Application:, Trigno Discover (1.7.0)
Date/Time:, 2026/9/9 上午 11:32:08
Collection Length (seconds):, 40.527
Avanti Sensor 11 (69574)
sensor mode: 50
EMG 1 Time Series (s), EMG 1 (mV), ACC X Time Series (s), ACC X (G), ACC Y Time Series (s), ACC Y (G), ACC Z Time Series (s), ACC Z (G), GYRO X Time Series (s), GYRO X (deg/s), GYRO Y Time Series (s), GYRO Y (deg/s), GYRO Z Time Series (s), GYRO Z (deg/s)
, 1259.2593 Hz, , 148.1481 Hz, , 148.1481 Hz, , 148.1481 Hz, , 148.1481 Hz, , 148.1481 Hz, , 148.1481 Hz
0, -0.005539, 0, 0.0682983, 0, -0.999939, 0, -0.1558838, 0, 1.3206106, 0, 0.6335878, 0, -3.0076337
0.0007941, -0.0031891, 0.00675, 0.0688477, 0.00675, -1.0009155, 0.00675, -0.1583252, 0.00675, 1.2671756, 0.00675, 0.6564885, 0.00675, -2.9923663
0.0015882, -0.0016785, 0.0135, 0.0683594, 0.0135, -1.003479, 0.0135, -0.1586304, 0.0135, 1.2137405, 0.0135, 0.6870229, 0.0135, -2.9160306
0.0023824, -0.0062104, 0.02025, 0.072876, 0.02025, -1.0014038, 0.02025, -0.1588135, 0.02025, 1.0229008, 0.02025, 0.6259542, 0.02025, -2.9541984
0.0031765, -0.0035248, 0.027, 0.0722656, 0.027, -1.0024414, 0.027, -0.1605835, 0.027, 1.2366412, 0.027, 0.6641222, 0.027, -3.0534351
0.0039706, -0.0038605, 0.03375, 0.0707397, 0.03375, -1.0012817, 0.03375, -0.1589966, 0.03375, 0.9770992, 0.03375, 0.6793893, 0.03375, -3.0229008
0.0047647, -0.0048676, 0.0405, 0.0725708, 0.0405, -0.9996338, 0.0405, -0.1571655, 0.0405, 1.1832061, 0.0405, 0.7175573, 0.0405, -3.0687022
0.0055588, -0.005539, 0.04725, 0.072998, 0.04725, -1.0012817, 0.04725, -0.1546021, 0.04725, 1.2442749, 0.04725, 0.6412213, 0.04725, -3.091603
0.0063529, -0.0085603, 0.054, 0.0671997, 0.054, -1.0021362, 0.054, -0.1571655, 0.054, 1.1755725, 0.054, 0.5725191, 0.054, -3.091603
0.0071471, -0.0135958, 0.06075, 0.0690308, 0.06075, -1.0057983, 0.06075, -0.1582031, 0.06075, 0.9541985, 0.06075, 0.4351145, 0.06075, -3.1068702
0.0079412, -0.0149386, 0.0675, 0.0682373, 0.0675, -1.0026855, 0.0675, -0.1582031, 0.0675, 1.1145039, 0.0675, 0.5343512, 0.0675, -3.0458016
0.0087353, -0.0162814, 0.07425, 0.0706787, 0.07425, -1.0009155, 0.07425, -0.1567993, 0.07425, 1.0610687, 0.07425, 0.6412213, 0.07425, -3.1068702
0.0095294, -0.0184634, 0.081, 0.0698853, 0.081, -1.0005493, 0.081, -0.1554565, 0.081, 1.0305344, 0.081, 0.6793893, 0.081, -3.1374047
0.0103235, -0.0199741, 0.08775, 0.0698853, 0.08775, -1.0012817, 0.08775, -0.1585693, 0.08775, 0.9007633, 0.08775, 0.8549618, 0.08775, -3.0763359
0.0111176, -0.0229953, 0.0945, 0.0701904, 0.0945, -0.9995117, 0.0945, -0.1596069, 0.0945, 0.8549618, 0.0945, 0.9007633, 0.0945, -3.1603053
0.0119118, -0.023331, 0.10125, 0.0720215, 0.10125, -1.0010376, 0.10125, -0.1629028, 0.10125, 1.0534351, 0.10125, 1.1755725, 0.10125, -2.9160306
0.0127059, -0.0216526, 0.108, 0.0701294, 0.108, -1.0015259, 0.108, -0.1587524, 0.108, 1.1145039, 0.108, 1.1679389, 0.108, -3.129771
0.0135, -0.0238346, 0.11475, 0.0706177, 0.11475, -1.0015869, 0.11475, -0.1610718, 0.11475, 0.8549618, 0.11475, 1.1450381, 0.11475, -2.9770992
0.0142941, -0.0206455, 0.1215, 0.0656738, 0.1215, -0.9985352, 0.1215, -0.1622314, 0.1215, 0.9541985, 0.1215, 1.1374046, 0.1215, -3.1374047
0.0150882, -0.0176242, 0.12825, 0.0667114, 0.12825, -1.0031128, 0.12825, -0.1593018, 0.12825, 1.0458015, 0.12825, 0.8549618, 0.12825, -3.091603
0.0158824, -0.0151064, 0.135, 0.0702515, 0.135, -1.003479, 0.135, -0.1619263, 0.135, 1.0458015, 0.135, 0.6870229, 0.135, -3.0839694
0.0166765, -0.0115816, 0.14175, 0.0723267, 0.14175, -1.0023193, 0.14175, -0.1626587, 0.14175, 1.0076336, 0.14175, 0.5343512, 0.14175, -3.1603053
0.0174706, -0.011078, 0.1485, 0.0717773, 0.1485, -1.0037842, 0.1485, -0.1611938, 0.1485, 1.1145039, 0.1485, 0.5343512, 0.1485, -3.0229008
0.0182647, -0.010071, 0.15525, 0.0718994, 0.15525, -1.0006104, 0.15525, -0.161377, 0.15525, 1.0305344, 0.15525, 0.5267175, 0.15525, -3.0152671
0.0190588, -0.0095674, 0.162, 0.0723267, 0.162, -1.003479, 0.162, -0.1611938, 0.162, 1.1145039, 0.162, 0.6717557, 0.162, -3.2900763
0.0198529, -0.0102388, 0.16875, 0.0744019, 0.16875, -1.0027466, 0.16875, -0.1612549, 0.16875, 1.1450381, 0.16875, 0.6793893, 0.16875, -3.1679389
0.0206471, -0.0078889, 0.1755, 0.0700684, 0.1755, -1.005188, 0.1755, -0.1602173, 0.1755, 1.1603054, 0.1755, 0.8015267, 0.1755, -3.0534351
0.0214412, -0.0105745, 0.18225, 0.0696411, 0.18225, -1.0044556, 0.18225, -0.1604004, 0.18225, 1.2137405, 0.18225, 0.9541985, 0.18225, -3.038168
0.0222353, -0.0102388, 0.189, 0.0680542, 0.189, -1.0020142, 0.189, -0.1619873, 0.189, 1.1679389, 0.189, 0.9007633, 0.189, -3.091603
0.0230294, -0.0092317, 0.19575, 0.0662842, 0.19575, -1.0037231, 0.19575, -0.1623535, 0.19575, 1.351145, 0.19575, 1.038168, 0.19575, -3.0229008
0.0238235, -0.0092317, 0.2025, 0.071106, 0.2025, -1.0056152, 0.2025, -0.1617432, 0.2025, 1.2137405, 0.2025, 0.961832, 0.2025, -3.0763359
0.0246176, -0.0125887, 0.20925, 0.0709229, 0.20925, -1.0045166, 0.20925, -0.1598511, 0.20925, 1.1755725, 0.20925, 0.9236641, 0.20925, -3.0610688
0.0254118, -0.012253, 0.216, 0.071167, 0.216, -1.0023193, 0.216, -0.1627808, 0.216, 1.351145, 0.216, 0.8931298, 0.216, -3.0687022
0.0262059, -0.0166171, 0.22275, 0.0714722, 0.22275, -1.0026855, 0.22275, -0.1627197, 0.22275, 1.2519084, 0.22275, 0.9770992, 0.22275, -3.0992367
0.027, -0.0226596, 0.2295, 0.0712891, 0.2295, -1.0021973, 0.2295, -0.1602173, 0.2295, 1.3740458, 0.2295, 1.0610687, 0.2295, -3.0458016
0.0277941, -0.0250095, 0.23625, 0.0709839, 0.23625, -1.0027466, 0.23625, -0.1630859, 0.23625, 1.4656489, 0.23625, 1.1832061, 0.23625, -2.8931298
0.0285882, -0.0223239, 0.243, 0.0717773, 0.243, -1.0010376, 0.243, -0.1635132, 0.243, 1.4351145, 0.243, 1.2061069, 0.243, -3.038168
0.0293824, -0.0179599, 0.24975, 0.0716553, 0.24975, -1.0036621, 0.24975, -0.1630859, 0.24975, 1.5877863, 0.24975, 1.2900764, 0.24975, -2.8931298
0.0301765, -0.0186313, 0.2565, 0.0722656, 0.2565, -1.0003052, 0.2565, -0.1627197, 0.2565, 1.5496184, 0.2565, 1.1221374, 0.2565, -2.8167939
0.0309706, -0.0199741, 0.26325, 0.0689697, 0.26325, -1.0043945, 0.26325, -0.15979, 0.26325, 1.6412214, 0.26325, 1.1603054, 0.26325, -2.908397
0.0317647, -0.0243381, 0.27, 0.067688, 0.27, -1.0028687, 0.27, -0.1619263, 0.27, 1.5648855, 0.27, 1.0152671, 0.27, -3.0152671
0.0325588, -0.0216526, 0.27675, 0.0681152, 0.27675, -1.0029297, 0.27675, -0.1583862, 0.27675, 1.5267175, 0.27675, 0.8778626, 0.27675, -2.961832
0.0333529, -0.0142672, 0.2835, 0.0690308, 0.2835, -1.0022583, 0.2835, -0.1588745, 0.2835, 1.6030535, 0.2835, 0.9694657, 0.2835, -3.1068702
0.0341471, -0.0082246, 0.29025, 0.0692139, 0.29025, -1.0028687, 0.29025, -0.156189, 0.29025, 1.6030535, 0.29025, 0.9160305, 0.29025, -3.1221373
0.0349412, -0.0063783, 0.297, 0.0675659, 0.297, -1.0018921, 0.297, -0.1604004, 0.297, 1.6183206, 0.297, 0.8625954, 0.297, -3.091603
0.0357353, -0.0068818, 0.30375, 0.0708008, 0.30375, -1.003418, 0.30375, -0.1567993, 0.30375, 1.6030535, 0.30375, 0.6717557, 0.30375, -3
0.0365294, -0.0030213, 0.3105, 0.0692139, 0.3105, -1.005127, 0.3105, -0.1573486, 0.3105, 1.5419847, 0.3105, 0.908397, 0.3105, -3.0152671
0.0373235, -0.0036927, 0.31725, 0.0667725, 0.31725, -1.0058594, 0.31725, -0.1584473, 0.31725, 1.5267175, 0.31725, 0.8854962, 0.31725, -3.0839694
0.0381176, -0.0078889, 0.324, 0.0686035, 0.324, -1.0031738, 0.324, -0.1557617, 0.324, 1.6259542, 0.324, 0.961832, 0.324, -3.2137403
0.0389118, -0.008896, 0.33075, 0.0673218, 0.33075, -1.0028687, 0.33075, -0.1594849, 0.33075, 1.389313, 0.33075, 1.0152671, 0.33075, -3.0763359
0.0397059, -0.0083925, 0.3375, 0.0692749, 0.3375, -1.0032349, 0.3375, -0.1583862, 0.3375, 1.2900764, 0.3375, 0.9160305, 0.3375, -3.038168
0.0405, -0.0119173, 0.34425, 0.0681152, 0.34425, -1.0048828, 0.34425, -0.1572266, 0.34425, 1.3587786, 0.34425, 1.091603, 0.34425, -3.0763359
0.0412941, -0.011078, 0.351, 0.0686035, 0.351, -1.0023193, 0.351, -0.1593018, 0.351, 1.4274809, 0.351, 0.9465649, 0.351, -2.9770992
0.0420882, -0.0162814, 0.35775, 0.0689087, 0.35775, -1.0031738, 0.35775, -0.1575317, 0.35775, 1.3816794, 0.35775, 0.7633588, 0.35775, -3.0839694
0.0428824, -0.017792, 0.3645, 0.0703735, 0.3645, -1.0036011, 0.3645, -0.1581421, 0.3645, 1.4351145, 0.3645, 0.9847328, 0.3645, -3.0458016
0.0436765, -0.0203098, 0.37125, 0.067749, 0.37125, -1.0047607, 0.37125, -0.1590576, 0.37125, 1.4885496, 0.37125, 1.0152671, 0.37125, -3
0.0444706, -0.018967, 0.378, 0.0681152, 0.378, -1.0006714, 0.378, -0.1558838, 0.378, 1.259542, 0.378, 0.9465649, 0.378, -3.0534351
0.0452647, -0.0193027, 0.38475, 0.0671387, 0.38475, -1.000061, 0.38475, -0.156189, 0.38475, 1.3740458, 0.38475, 0.7938932, 0.38475, -3.1603053
0.0460588, -0.0229953, 0.3915, 0.0673218, 0.3915, -0.9997559, 0.3915, -0.1586304, 0.3915, 1.351145, 0.3915, 0.7251908, 0.3915, -3.129771
0.0468529, -0.0213169, 0.39825, 0.0671387, 0.39825, -1.0009155, 0.39825, -0.1567383, 0.39825, 1.2900764, 0.39825, 0.6259542, 0.39825, -3.2061069
0.0476471, -0.0193027, 0.405, 0.0666504, 0.405, -1.0031738, 0.405, -0.1591187, 0.405, 1.2977099, 0.405, 0.4580153, 0.405, -3.2137403
0.0484412, -0.0146029, 0.41175, 0.0667725, 0.41175, -1.0036011, 0.41175, -0.1565552, 0.41175, 1.3129771, 0.41175, 0.5954198, 0.41175, -3.259542
0.0492353, -0.01561, 0.4185, 0.0691528, 0.4185, -0.999939, 0.4185, -0.1582031, 0.4185, 1.3587786, 0.4185, 0.6717557, 0.4185, -3.0534351
0.0500294, -0.0176242, 0.42525, 0.0696411, 0.42525, -1.0011597, 0.42525, -0.1583862, 0.42525, 1.3816794, 0.42525, 0.5725191, 0.42525, -3.129771
0.0508235, -0.01561, 0.432, 0.0708618, 0.432, -1.00354, 0.432, -0.1602783, 0.432, 1.3969465, 0.432, 0.6412213, 0.432, -3.1450381
0.0516176, -0.0083925, 0.43875, 0.0720215, 0.43875, -1.003479, 0.43875, -0.1599731, 0.43875, 1.2824427, 0.43875, 0.7557252, 0.43875, -3.0839694
0.0524118, -0.0068818, 0.4455, 0.069458, 0.4455, -1.00354, 0.4455, -0.1622925, 0.4455, 1.2519084, 0.4455, 0.6946565, 0.4455, -3.091603
0.0532059, -0.0058747, 0.45225, 0.0665283, 0.45225, -1.0032959, 0.45225, -0.1598511, 0.45225, 1.3358779, 0.45225, 0.5725191, 0.45225, -3.0610688
0.054, -0.0099031, 0.459, 0.0707397, 0.459, -0.9996338, 0.459, -0.1596069, 0.459, 1.351145, 0.459, 0.5725191, 0.459, -3.2061069
0.0547941, -0.0099031, 0.46575, 0.0699463, 0.46575, -1.00177, 0.46575, -0.1594849, 0.46575, 1.3435115, 0.46575, 0.7175573, 0.46575, -3.0763359
0.0555882, -0.008896, 0.4725, 0.0719604, 0.4725, -1.003418, 0.4725, -0.1602173, 0.4725, 1.4198474, 0.4725, 0.8320611, 0.4725, -3
0.0563824, -0.0114137, 0.47925, 0.0707397, 0.47925, -1.0039062, 0.47925, -0.1619873, 0.47925, 1.5267175, 0.47925, 0.7557252, 0.47925, -3.1755726
0.0571765, -0.0132601, 0.486, 0.0697021, 0.486, -1.0020752, 0.486, -0.15979, 0.486, 1.3587786, 0.486, 0.8854962, 0.486, -3.1221373
0.0579706, -0.0147707, 0.49275, 0.0679321, 0.49275, -1.0003662, 0.49275, -0.1577759, 0.49275, 1.2977099, 0.49275, 0.9236641, 0.49275, -3.1603053
0.0587647, -0.018967, 0.4995, 0.0683594, 0.4995, -1.0012817, 0.4995, -0.1582031, 0.4995, 1.4122137, 0.4995, 0.8091603, 0.4995, -3.1145039
0.0595588, -0.0152743, 0.50625, 0.0690308, 0.50625, -1.0039673, 0.50625, -0.1574097, 0.50625, 1.4732825, 0.50625, 0.8015267, 0.50625, -3.1068702
0.0603529, -0.0154421, 0.513, 0.0689697, 0.513, -1.0049438, 0.513, -0.1572876, 0.513, 1.4198474, 0.513, 0.9389313, 0.513, -3.1068702
0.0611471, -0.0162814, 0.51975, 0.0654297, 0.51975, -1.0036621, 0.51975, -0.1567993, 0.51975, 1.3969465, 0.51975, 0.6641222, 0.51975, -3.0992367
0.0619412, -0.0172885, 0.5265, 0.0705566, 0.5265, -1.0048828, 0.5265, -0.1574097, 0.5265, 1.4198474, 0.5265, 0.7022901, 0.5265, -3.1374047
0.0627353, -0.023331, 0.53325, 0.0717163, 0.53325, -1.0029907, 0.53325, -0.1577759, 0.53325, 1.4122137, 0.53325, 0.5725191, 0.53325, -3.1221373
0.0635294, -0.0238346, 0.54, 0.0689697, 0.54, -1.0028076, 0.54, -0.1595459, 0.54, 1.4427481, 0.54, 0.610687, 0.54, -3.1755726
0.0643235, -0.0229953, 0.54675, 0.0700684, 0.54675, -1.0043945, 0.54675, -0.1582031, 0.54675, 1.3206106, 0.54675, 0.7557252, 0.54675, -2.9389312
0.0651176, -0.0216526, 0.5535, 0.069397, 0.5535, -1.0032349, 0.5535, -0.1570435, 0.5535, 1.1908396, 0.5535, 0.9236641, 0.5535, -2.9389312
0.0659118, -0.0169528, 0.56025, 0.0703735, 0.56025, -1.003479, 0.56025, -0.1577759, 0.56025, 1.3435115, 0.56025, 0.8931298, 0.56025, -3.0305343
0.0667059, -0.0130922, 0.567, 0.0679321, 0.567, -1.0061646, 0.567, -0.1589355, 0.567, 1.2824427, 0.567, 0.8091603, 0.567, -3.0152671
0.0675, -0.0130922, 0.57375, 0.0697632, 0.57375, -1.0058594, 0.57375, -0.1596069, 0.57375, 1.5496184, 0.57375, 0.8244275, 0.57375, -3.0763359
0.0682941, -0.0099031, 0.5805, 0.0680542, 0.5805, -1.005188, 0.5805, -0.1584473, 0.5805, 1.4198474, 0.5805, 0.8320611, 0.5805, -3.0687022
0.0690882, -0.0095674, 0.58725, 0.0700073, 0.58725, -1.0020142, 0.58725, -0.15625, 0.58725, 1.3816794, 0.58725, 0.8244275, 0.58725, -3
0.0698824, -0.0097353, 0.594, 0.0668945, 0.594, -1.0010376, 0.594, -0.1577759, 0.594, 1.3206106, 0.594, 0.9312977, 0.594, -3.0992367
0.0706765, -0.0038605, 0.60075, 0.0697632, 0.60075, -1.0037842, 0.60075, -0.1573486, 0.60075, 1.4122137, 0.60075, 1.038168, 0.60075, -3.0687022
0.0714706, -0.0072175, 0.6075, 0.0690918, 0.6075, -0.9990845, 0.6075, -0.1585083, 0.6075, 1.2824427, 0.6075, 0.9160305, 0.6075, -3.0152671
0.0722647, -0.0112459, 0.61425, 0.0709229, 0.61425, -1.0029297, 0.61425, -0.1591187, 0.61425, 1.3053435, 0.61425, 0.9312977, 0.61425, -3.129771
0.0730588, -0.0112459, 0.621, 0.0675659, 0.621, -1.0047607, 0.621, -0.161438, 0.621, 1.3053435, 0.621, 0.8931298, 0.621, -3.0687022
0.0738529, -0.0099031, 0.62775, 0.067688, 0.62775, -1.0012207, 0.62775, -0.1571045, 0.62775, 1.351145, 0.62775, 0.9007633, 0.62775, -3.0229008
0.0746471, -0.0129244, 0.6345, 0.065979, 0.6345, -1.00177, 0.6345, -0.1567993, 0.6345, 1.1374046, 0.6345, 0.961832, 0.6345, -2.9541984
0.0754412, -0.018967, 0.64125, 0.0673218, 0.64125, -1.0007935, 0.64125, -0.1565552, 0.64125, 1.2366412, 0.64125, 0.7557252, 0.64125, -3.0458016
0.0762353, -0.0209812, 0.648, 0.0702515, 0.648, -1.0025024, 0.648, -0.1564331, 0.648, 1.2824427, 0.648, 0.7938932, 0.648, -3.0076337
0.0770294, -0.0216526, 0.65475, 0.0686035, 0.65475, -1.0047607, 0.65475, -0.1575928, 0.65475, 1.2519084, 0.65475, 0.740458, 0.65475, -3.0610688
0.0778235, -0.0248417, 0.6615, 0.0702515, 0.6615, -1.0036011, 0.6615, -0.1567383, 0.6615, 1.2366412, 0.6615, 0.6335878, 0.6615, -3.0305343
0.0786176, -0.0226596, 0.66825, 0.0691528, 0.66825, -1.0045166, 0.66825, -0.1604614, 0.66825, 1.2748091, 0.66825, 0.8244275, 0.66825, -3.0610688
0.0794118, -0.0226596, 0.675, 0.0703735, 0.675, -1.0044556, 0.675, -0.1624146, 0.675, 1.3664122, 0.675, 0.7862595, 0.675, -3.129771
0.0802059, -0.0203098, 0.68175, 0.0712891, 0.68175, -1.0011597, 0.68175, -0.1593018, 0.68175, 1.2519084, 0.68175, 0.7862595, 0.68175, -2.9923663
0.081, -0.018967, 0.6885, 0.0718384, 0.6885, -1.0016479, 0.6885, -0.1606445, 0.6885, 1.3206106, 0.6885, 0.8396947, 0.6885, -3
0.0817941, -0.0119173, 0.69525, 0.0701904, 0.69525, -1.0018311, 0.69525, -0.1602173, 0.69525, 1.3816794, 0.69525, 0.9541985, 0.69525, -2.9694657
0.0825882, -0.0135958, 0.702, 0.0709229, 0.702, -1.0018311, 0.702, -0.1601562, 0.702, 1.3664122, 0.702, 1.0992366, 0.702, -3
0.0833824, -0.0129244, 0.70875, 0.0698242, 0.70875, -1.00177, 0.70875, -0.1589966, 0.70875, 1.4503816, 0.70875, 1.0229008, 0.70875, -2.9389312
0.0841765, -0.0085603, 0.7155, 0.0690308, 0.7155, -1.0028687, 0.7155, -0.1574097, 0.7155, 1.5267175, 0.7155, 1.0610687, 0.7155, -3.1221373
0.0849706, -0.012253, 0.72225, 0.0689697, 0.72225, -1.0001221, 0.72225, -0.1574707, 0.72225, 1.6183206, 0.72225, 1.0687023, 0.72225, -2.8625953
0.0857647, -0.0129244, 0.729, 0.0663452, 0.729, -0.9996338, 0.729, -0.1578369, 0.729, 1.480916, 0.729, 1.0534351, 0.729, -2.9770992
0.0865588, -0.0045319, 0.73575, 0.0679932, 0.73575, -1.0015869, 0.73575, -0.1569824, 0.73575, 1.6183206, 0.73575, 0.7099237, 0.73575, -3.0763359
0.0873529, -0.0035248, 0.7425, 0.0693359, 0.7425, -0.9996338, 0.7425, -0.1573486, 0.7425, 1.5038168, 0.7425, 0.6793893, 0.7425, -3.091603
0.0881471, -0.0090639, 0.74925, 0.0692749, 0.74925, -1.0018311, 0.74925, -0.1594238, 0.74925, 1.3740458, 0.74925, 0.7862595, 0.74925, -3.038168
0.0889412, -0.0140993, 0.756, 0.0690918, 0.756, -1.0028076, 0.756, -0.1577148, 0.756, 1.2900764, 0.756, 0.6030535, 0.756, -2.9923663
0.0897353, -0.0199741, 0.76275, 0.0690918, 0.76275, -1.006958, 0.76275, -0.1552734, 0.76275, 1.3969465, 0.76275, 0.6335878, 0.76275, -2.961832
0.0905294, -0.0162814, 0.7695, 0.0689087, 0.7695, -1.0075073, 0.7695, -0.1546021, 0.7695, 1.3587786, 0.7695, 0.8244275, 0.7695, -3
0.0913235, -0.0176242, 0.77625, 0.0679321, 0.77625, -1.0022583, 0.77625, -0.1568604, 0.77625, 1.5419847, 0.77625, 0.6717557, 0.77625, -3.0534351
0.0921176, -0.0162814, 0.783, 0.0667725, 0.783, -1.00354, 0.783, -0.1564941, 0.783, 1.4045801, 0.783, 0.9389313, 0.783, -3.0763359
0.0929118, -0.0130922, 0.78975, 0.0653076, 0.78975, -1.0043335, 0.78975, -0.1573486, 0.78975, 1.5877863, 0.78975, 0.7633588, 0.78975, -2.9541984
0.0937059, -0.0119173, 0.7965, 0.0664062, 0.7965, -1.0018921, 0.7965, -0.1577148, 0.7965, 1.351145, 0.7965, 0.6335878, 0.7965, -2.9465649
0.0945, -0.0132601, 0.80325, 0.0679932, 0.80325, -1.0018311, 0.80325, -0.1564941, 0.80325, 1.2748091, 0.80325, 0.7709923, 0.80325, -2.9312978
0.0952941, -0.0135958, 0.81, 0.0679321, 0.81, -1.0018311, 0.81, -0.15625, 0.81, 1.2977099, 0.81, 0.8396947, 0.81, -3.1221373
0.0960882, -0.0139315, 0.81675, 0.0683594, 0.81675, -1.0021362, 0.81675, -0.1551514, 0.81675, 1.2900764, 0.81675, 0.6870229, 0.81675, -3.2061069
0.0968824, -0.0172885, 0.8235, 0.0658569, 0.8235, -1.0057983, 0.8235, -0.1550903, 0.8235, 1.2519084, 0.8235, 0.870229, 0.8235, -2.9923663
0.0976765, -0.0186313, 0.83025, 0.0649414, 0.83025, -1.0021973, 0.83025, -0.1535645, 0.83025, 1.129771, 0.83025, 0.5496183, 0.83025, -3.091603
0.0984706, -0.0176242, 0.837, 0.0655518, 0.837, -1.0005493, 0.837, -0.1542358, 0.837, 1.1908396, 0.837, 0.3740458, 0.837, -3.1145039
0.0992647, -0.0196384, 0.84375, 0.0687866, 0.84375, -0.9995117, 0.84375, -0.1556396, 0.84375, 1.2748091, 0.84375, 0.480916, 0.84375, -3.0152671
0.1000588, -0.0209812, 0.8505, 0.0670166, 0.8505, -1.0008545, 0.8505, -0.1549072, 0.8505, 1.1374046, 0.8505, 0.5496183, 0.8505, -2.9770992
0.1008529, -0.0082246, 0.85725, 0.0692139, 0.85725, -1.0028687, 0.85725, -0.1572876, 0.85725, 1.0229008, 0.85725, 0.5877863, 0.85725, -3.1221373
0.1016471, -0.0041962, 0.864, 0.0687256, 0.864, -1.001709, 0.864, -0.1588135, 0.864, 1.2824427, 0.864, 0.6564885, 0.864, -3.0687022
0.1024412, -0.0068818, 0.87075, 0.0706787, 0.87075, -1.0047607, 0.87075, -0.1563721, 0.87075, 1.1908396, 0.87075, 0.5572519, 0.87075, -3.0992367
0.1032353, -0.0058747, 0.8775, 0.069397, 0.8775, -1.0039673, 0.8775, -0.1594849, 0.8775, 1.1526718, 0.8775, 0.6183206, 0.8775, -3.1984732
0.1040294, -0.0062104, 0.88425, 0.0667725, 0.88425, -1.0025024, 0.88425, -0.1580811, 0.88425, 1.1603054, 0.88425, 0.8549618, 0.88425, -3.038168
0.1048235, -0.0082246, 0.891, 0.0683594, 0.891, -1.0042114, 0.891, -0.157959, 0.891, 1.0687023, 0.891, 0.8015267, 0.891, -2.961832
0.1056176, -0.010071, 0.89775, 0.0684204, 0.89775, -1.0050049, 0.89775, -0.15979, 0.89775, 1.221374, 0.89775, 0.6030535, 0.89775, -3.091603
0.1064118, -0.0129244, 0.9045, 0.0651245, 0.9045, -1.0032959, 0.9045, -0.157959, 0.9045, 1.1832061, 0.9045, 0.6793893, 0.9045, -3.2290077
0.1072059, -0.0142672, 0.91125, 0.0684204, 0.91125, -1.0025635, 0.91125, -0.1578369, 0.91125, 1.1068702, 0.91125, 0.6641222, 0.91125, -3.0076337
0.108, -0.018967, 0.918, 0.0658569, 0.918, -1.0029907, 0.918, -0.1588745, 0.918, 1.1908396, 0.918, 0.8396947, 0.918, -3.1374047
0.1087941, -0.0176242, 0.92475, 0.0682373, 0.92475, -1.00354, 0.92475, -0.157959, 0.92475, 1.3282443, 0.92475, 0.8091603, 0.92475, -3.1526718
0.1095882, -0.0176242, 0.9315, 0.0692749, 0.9315, -1.0031738, 0.9315, -0.1602173, 0.9315, 1.3053435, 0.9315, 0.8091603, 0.9315, -3.221374
0.1103824, -0.0186313, 0.93825, 0.0653076, 0.93825, -1.00177, 0.93825, -0.1604614, 0.93825, 1.3740458, 0.93825, 0.9847328, 0.93825, -3.091603
0.1111765, -0.0182956, 0.945, 0.065918, 0.945, -1.0004883, 0.945, -0.1596069, 0.945, 1.1908396, 0.945, 1.1450381, 0.945, -3.0076337
0.1119706, -0.0162814, 0.95175, 0.0678101, 0.95175, -1.0010986, 0.95175, -0.1606445, 0.95175, 1.3816794, 0.95175, 1.2061069, 0.95175, -3.259542
0.1127647, -0.0229953, 0.9585, 0.0675659, 0.9585, -1.003418, 0.9585, -0.1607056, 0.9585, 1.2061069, 0.9585, 1.2061069, 0.9585, -3.2061069
0.1135588, -0.0256809, 0.96525, 0.0697021, 0.96525, -1.005127, 0.96525, -0.1596069, 0.96525, 1.3587786, 0.96525, 1.221374, 0.96525, -3.0152671
0.1143529, -0.0172885, 0.972, 0.0671997, 0.972, -1.0008545, 0.972, -0.1589966, 0.972, 1.3587786, 0.972, 1.1755725, 0.972, -3.1755726
0.1151471, -0.0152743, 0.97875, 0.0717163, 0.97875, -0.9996948, 0.97875, -0.1586304, 0.97875, 1.4503816, 0.97875, 1.129771, 0.97875, -3.1526718
0.1159412, -0.012253, 0.9855, 0.0684814, 0.9855, -1.001709, 0.9855, -0.1582031, 0.9855, 1.4580153, 0.9855, 1.1755725, 0.9855, -3.2824428
0.1167353, -0.0129244, 0.99225, 0.0715332, 0.99225, -0.9997559, 0.99225, -0.1616211, 0.99225, 1.6259542, 0.99225, 1.0687023, 0.99225, -3.091603
0.1175294, -0.0092317, 0.999, 0.0706787, 0.999, -0.9996948, 0.999, -0.1586914, 0.999, 1.6564885, 0.999, 1.3358779, 0.999, -3.1374047
0.1183235, -0.0073854, 1.00575, 0.0720825, 1.00575, -1.0021973, 1.00575, -0.1571045, 1.00575, 1.610687, 1.00575, 1.4732825, 1.00575, -3.1755726
0.1191176, -0.0115816, 1.0125, 0.0731201, 1.0125, -0.9979858, 1.0125, -0.1532593, 1.0125, 1.6641221, 1.0125, 1.5343511, 1.0125, -3.1984732
0.1199118, -0.0095674, 1.01925, 0.0783081, 1.01925, -0.9959106, 1.01925, -0.1544189, 1.01925, 1.1450381, 1.01925, 1.9236641, 1.01925, -3.2824428
0.1207059, -0.005539, 1.026, 0.0772095, 1.026, -0.994873, 1.026, -0.1531982, 1.026, 0.8091603, 1.026, 2, 1.026, -3.3435113
0.1215, -0.0087282, 1.03275, 0.0788574, 1.03275, -0.9946899, 1.03275, -0.1521606, 1.03275, 0.7633588, 1.03275, 1.9236641, 1.03275, -3.2824428
0.1222941, -0.0132601, 1.0395, 0.072876, 1.0395, -0.9984131, 1.0395, -0.1537476, 1.0395, 0.6259542, 1.0395, 1.9312977, 1.0395, -3.5038168
0.1230882, -0.0115816, 1.04625, 0.0665283, 1.04625, -0.9985352, 1.04625, -0.1517944, 1.04625, 0.4427481, 1.04625, 1.5419847, 1.04625, -3.5725191
0.1238824, -0.014435, 1.053, 0.0662231, 1.053, -1.0003662, 1.053, -0.15625, 1.053, 0.4885496, 1.053, 1.0458015, 1.053, -3.5725191
0.1246765, -0.0135958, 1.05975, 0.0654907, 1.05975, -1.0030518, 1.05975, -0.1551514, 1.05975, 0.7099237, 1.05975, 0.2442748, 1.05975, -3.6259542
0.1254706, -0.0166171, 1.0665, 0.0604248, 1.0665, -1.0045776, 1.0665, -0.1566772, 1.0665, 0.6946565, 1.0665, -0.3816794, 1.0665, -3.9236641
0.1262647, -0.0216526, 1.07325, 0.0599976, 1.07325, -1.0043335, 1.07325, -0.1621094, 1.07325, 0.8549618, 1.07325, -0.8549618, 1.07325, -4.1908398
0.1270588, -0.0234989, 1.08, 0.057373, 1.08, -1.0046997, 1.08, -0.1616211, 1.08, 1.0687023, 1.08, -0.908397, 1.08, -4.0763359
0.1278529, -0.0223239, 1.08675, 0.0630493, 1.08675, -1.0026245, 1.08675, -0.1589355, 1.08675, 1.1755725, 1.08675, -0.6717557, 1.08675, -4.0992365
0.1286471, -0.0275273, 1.0935, 0.0680542, 1.0935, -1.0030518, 1.0935, -0.1677856, 1.0935, 1.4351145, 1.0935, -0.4732825, 1.0935, -4.1297708
0.1294412, -0.0236667, 1.10025, 0.0706177, 1.10025, -1.0016479, 1.10025, -0.1677856, 1.10025, 1.1908396, 1.10025, 0.389313, 1.10025, -4.1450381
0.1302353, -0.0159457, 1.107, 0.0708618, 1.107, -1.0031128, 1.107, -0.1627808, 1.107, 1.0458015, 1.107, 1.7938931, 1.107, -4.1221375
0.1310294, -0.0124208, 1.11375, 0.0640259, 1.11375, -1.0056763, 1.11375, -0.1623535, 1.11375, 0.9236641, 1.11375, 2.9389312, 1.11375, -4.1145039
0.1318235, -0.0132601, 1.1205, 0.057312, 1.1205, -1.0081177, 1.1205, -0.1628418, 1.1205, 1.0534351, 1.1205, 3.3664122, 1.1205, -4.2290077
0.1326176, -0.0095674, 1.12725, 0.0564575, 1.12725, -1.0072632, 1.12725, -0.159729, 1.12725, 1.1145039, 1.12725, 3.4351146, 1.12725, -4.3664122
0.1334118, -0.0065461, 1.134, 0.0593262, 1.134, -1.0015869, 1.134, -0.1663208, 1.134, 1.4198474, 1.134, 2.7328243, 1.134, -4.4198475
0.1342059, -0.0048676, 1.14075, 0.0603027, 1.14075, -1.0012207, 1.14075, -0.1600952, 1.14075, 1.5343511, 1.14075, 2.3587787, 1.14075, -4.6717558
0.135, -0.0095674, 1.1475, 0.0628052, 1.1475, -1.0049438, 1.1475, -0.1586304, 1.1475, 1.5572519, 1.1475, 3.0839694, 1.1475, -4.9923663
0.1357941, -0.0058747, 1.15425, 0.0588989, 1.15425, -1.0031738, 1.15425, -0.1574097, 1.15425, 1.9312977, 1.15425, 2.9694657, 1.15425, -5.259542
0.1365882, -0.0030213, 1.161, 0.0482788, 1.161, -1.0049438, 1.161, -0.1625366, 1.161, 1.9694656, 1.161, 3.1908398, 1.161, -5.4656487
0.1373824, -0.0052033, 1.16775, 0.0459595, 1.16775, -1.0067139, 1.16775, -0.1659546, 1.16775, 1.480916, 1.16775, 3.1145039, 1.16775, -5.5267177
0.1381765, -0.0092317, 1.1745, 0.0524902, 1.1745, -1.0079956, 1.1745, -0.1633301, 1.1745, 1.2137405, 1.1745, 2.8244274, 1.1745, -5.7709923
0.1389706, -0.0097353, 1.18125, 0.0551147, 1.18125, -1.010437, 1.18125, -0.1673584, 1.18125, 1.1068702, 1.18125, 2.3969467, 1.18125, -6.259542
0.1397647, -0.0095674, 1.188, 0.0581055, 1.188, -1.0077515, 1.188, -0.1706543, 1.188, 1.5114504, 1.188, 2.1450381, 1.188, -6.2519083
0.1405588, -0.014435, 1.19475, 0.0612183, 1.19475, -1.0083008, 1.19475, -0.1747437, 1.19475, 1.8778626, 1.19475, 2.2137403, 1.19475, -6.3053436
0.1413529, -0.0196384, 1.2015, 0.0700684, 1.2015, -1.0128784, 1.2015, -0.1745605, 1.2015, 2.1832061, 1.2015, 2.6564887, 1.2015, -6.5114503
0.1421471, -0.0199741, 1.20825, 0.0759888, 1.20825, -1.0111084, 1.20825, -0.1762085, 1.20825, 2.351145, 1.20825, 3.5343511, 1.20825, -6.4885497
0.1429412, -0.0176242, 1.215, 0.0751343, 1.215, -1.0136108, 1.215, -0.1782837, 1.215, 2.5038168, 1.215, 4.961832, 1.215, -6.4656487
0.1437353, -0.0181277, 1.22175, 0.0698242, 1.22175, -1.0111694, 1.22175, -0.1772461, 1.22175, 2.7862597, 1.22175, 6.3893127, 1.22175, -6.3129773
0.1445294, -0.023331, 1.2285, 0.0698242, 1.2285, -1.0080566, 1.2285, -0.1595459, 1.2285, 2.1221373, 1.2285, 7.8244276, 1.2285, -6.0916033
0.1453235, -0.0256809, 1.23525, 0.076355, 1.23525, -1.0098877, 1.23525, -0.1691284, 1.23525, 1.9541985, 1.23525, 9.4274807, 1.23525, -5.8244276
0.1461176, -0.0253452, 1.242, 0.0825195, 1.242, -1.0135498, 1.242, -0.1728516, 1.242, 1.740458, 1.242, 10.0305347, 1.242, -5.7251906
0.1469118, -0.0238346, 1.24875, 0.079834, 1.24875, -1.010376, 1.24875, -0.1726074, 1.24875, 1.9389313, 1.24875, 11.4427481, 1.24875, -5.7022901
0.1477059, -0.0240024, 1.2555, 0.0786743, 1.2555, -1.0053101, 1.2555, -0.1717529, 1.2555, 2.2290077, 1.2555, 13.0458012, 1.2555, -5.6335878
0.1485, -0.0263523, 1.26225, 0.0728149, 1.26225, -1.0081787, 1.26225, -0.168335, 1.26225, 2.1832061, 1.26225, 13.358779, 1.26225, -5.6641221
0.1492941, -0.0209812, 1.269, 0.0668945, 1.269, -1.0108032, 1.269, -0.1693115, 1.269, 2.5877862, 1.269, 12.5877867, 1.269, -5.8702292
0.1500882, -0.0142672, 1.27575, 0.0722046, 1.27575, -1.0148926, 1.27575, -0.1719971, 1.27575, 3.0763359, 1.27575, 11.9923668, 1.27575, -6.038168
0.1508824, -0.0070497, 1.2825, 0.071167, 1.2825, -1.0178223, 1.2825, -0.1665649, 1.2825, 3.908397, 1.2825, 11.5725193, 1.2825, -6.1832061
0.1516765, -0.0003357, 1.28925, 0.0690918, 1.28925, -1.0211792, 1.28925, -0.161438, 1.28925, 4.3435116, 1.28925, 11.4198475, 1.28925, -6.1679387
0.1524706, 0.0018463, 1.296, 0.0706177, 1.296, -1.0221558, 1.296, -0.1455078, 1.296, 5.1145039, 1.296, 12.282443, 1.296, -6.1908398
0.1532647, -0.0028534, 1.30275, 0.0734863, 1.30275, -1.0161133, 1.30275, -0.149292, 1.30275, 5.2366414, 1.30275, 12.2290077, 1.30275, -5.7633586
0.1540588, -0.0028534, 1.3095, 0.0778198, 1.3095, -1.0103149, 1.3095, -0.1679688, 1.3095, 5.0992365, 1.3095, 11.9770994, 1.3095, -5.7099237
0.1548529, -0.0028534, 1.31625, 0.0775146, 1.31625, -1.0079346, 1.31625, -0.1564941, 1.31625, 4.4656487, 1.31625, 12.5877867, 1.31625, -5.7022901
0.1556471, -0.0104067, 1.323, 0.0759277, 1.323, -1.0124512, 1.323, -0.1400757, 1.323, 3.8320611, 1.323, 15.2442751, 1.323, -5.6259542
0.1564412, -0.0169528, 1.32975, 0.0764771, 1.32975, -1.0251465, 1.32975, -0.144043, 1.32975, 3.6793892, 1.32975, 16.8167934, 1.32975, -5.4351144
0.1572353, -0.01561, 1.3365, 0.0745239, 1.3365, -1.0296021, 1.3365, -0.15448, 1.3365, 4.4427481, 1.3365, 16.0305347, 1.3365, -5.3664122
0.1580294, -0.01561, 1.34325, 0.0708618, 1.34325, -1.0341187, 1.34325, -0.1615601, 1.34325, 4.7709923, 1.34325, 16.5877857, 1.34325, -5.0305343
0.1588235, -0.0206455, 1.35, 0.0639648, 1.35, -1.0265503, 1.35, -0.1445312, 1.35, 3.4045801, 1.35, 18.801527, 1.35, -4.6870227
0.1596176, -0.0199741, 1.35675, 0.0550537, 1.35675, -1.0141602, 1.35675, -0.1495972, 1.35675, 1.5114504, 1.35675, 18.7557259, 1.35675, -4.4580154
0.1604118, -0.0193027, 1.3635, 0.0461426, 1.3635, -1.0137329, 1.3635, -0.1503296, 1.3635, 0.0229008, 1.3635, 18.1145039, 1.3635, -4.3053436
0.1612059, -0.0162814, 1.37025, 0.0333252, 1.37025, -1.0126953, 1.37025, -0.1174316, 1.37025, -0.9160305, 1.37025, 18.3282452, 1.37025, -4.038168
0.162, -0.0115816, 1.377, 0.0275269, 1.377, -1.012207, 1.377, -0.0929565, 1.377, -1.221374, 1.377, 18.2977104, 1.377, -3.5038168
0.1627941, -0.0159457, 1.38375, 0.0346069, 1.38375, -1.0115967, 1.38375, -0.0939331, 1.38375, -1.0152671, 1.38375, 15.641221, 1.38375, -2.7633588
0.1635882, -0.0162814, 1.3905, 0.0491333, 1.3905, -1.010376, 1.3905, -0.1085815, 1.3905, -1.1984733, 1.3905, 14.9923668, 1.3905, -2.2977099
0.1643824, -0.0209812, 1.39725, 0.0674438, 1.39725, -1.008728, 1.39725, -0.1092529, 1.39725, -1.480916, 1.39725, 15.7862597, 1.39725, -2.1374047
0.1651765, -0.0142672, 1.404, 0.0881348, 1.404, -1.0071411, 1.404, -0.1048584, 1.404, -2.3587787, 1.404, 17.1297703, 1.404, -1.8244275
0.1659706, -0.0068818, 1.41075, 0.0930176, 1.41075, -1.0027466, 1.41075, -0.0981445, 1.41075, -2.6793892, 1.41075, 16.7251911, 1.41075, -1.5877863
0.1667647, -0.0057069, 1.4175, 0.1027832, 1.4175, -0.99646, 1.4175, -0.0974731, 1.4175, -2.4274809, 1.4175, 16.641222, 1.4175, -1.5267175
0.1675588, -0.0063783, 1.42425, 0.1256714, 1.42425, -0.9777222, 1.42425, -0.1209717, 1.42425, -2.8854961, 1.42425, 17.3511448, 1.42425, -1.4198474
0.1683529, -0.0078889, 1.431, 0.1465454, 1.431, -0.975647, 1.431, -0.1051025, 1.431, -3.6946564, 1.431, 19.4045811, 1.431, -1.3969465
0.1691471, -0.0171206, 1.43775, 0.135498, 1.43775, -0.9671021, 1.43775, -0.130249, 1.43775, -3.8320611, 1.43775, 18.7709923, 1.43775, -1.1450381
0.1699412, -0.01561, 1.4445, 0.1323242, 1.4445, -0.9647827, 1.4445, -0.1449585, 1.4445, -4.4961834, 1.4445, 17.641222, 1.4445, -1.1755725
0.1707353, -0.0135958, 1.45125, 0.1320801, 1.45125, -0.9754028, 1.45125, -0.1445312, 1.45125, -4.3511453, 1.45125, 17.9847336, 1.45125, -1.1374046
0.1715294, -0.0152743, 1.458, 0.151123, 1.458, -0.9754639, 1.458, -0.1558838, 1.458, -4.4045801, 1.458, 17.8091602, 1.458, -1.4351145
0.1723235, -0.0112459, 1.46475, 0.1652832, 1.46475, -0.9765015, 1.46475, -0.1524048, 1.46475, -4.0992365, 1.46475, 18.5801525, 1.46475, -1.4656489
0.1731176, -0.0146029, 1.4715, 0.1765747, 1.4715, -0.970459, 1.4715, -0.1679077, 1.4715, -3.4274809, 1.4715, 19.8549614, 1.4715, -1.0534351
0.1739118, -0.0176242, 1.47825, 0.1815186, 1.47825, -0.9650879, 1.47825, -0.1783447, 1.47825, -3.0458016, 1.47825, 20.8778629, 1.47825, -0.7938932
0.1747059, -0.0186313, 1.485, 0.1878052, 1.485, -0.9658203, 1.485, -0.1781616, 1.485, -2.0687022, 1.485, 23.3435116, 1.485, 0.0839695
0.1755, -0.0186313, 1.49175, 0.1862183, 1.49175, -0.9707642, 1.49175, -0.1748047, 1.49175, -0.9847328, 1.49175, 26.8244267, 1.49175, 0.3206107
0.1762941, -0.0224918, 1.4985, 0.1781616, 1.4985, -0.97052, 1.4985, -0.1702271, 1.4985, 0.1603053, 1.4985, 28.9312973, 1.4985, 0.6259542
0.1770882, -0.0240024, 1.50525, 0.171814, 1.50525, -0.9663086, 1.50525, -0.1763916, 1.50525, 2.0763359, 1.50525, 29.5496178, 1.50525, 0.9160305
0.1778824, -0.0224918, 1.512, 0.1607056, 1.512, -0.9602051, 1.512, -0.1829224, 1.512, 3.9541984, 1.512, 30.1526718, 1.512, 1.038168
0.1786765, -0.018967, 1.51875, 0.1358643, 1.51875, -0.9625854, 1.51875, -0.163147, 1.51875, 5.7633586, 1.51875, 31.2137413, 1.51875, 0.8931298
0.1794706, -0.0213169, 1.5255, 0.1113892, 1.5255, -0.9605713, 1.5255, -0.1647339, 1.5255, 6.9160304, 1.5255, 30.5725193, 1.5255, 0.740458
0.1802647, -0.0231632, 1.53225, 0.0609741, 1.53225, -0.9536743, 1.53225, -0.1541748, 1.53225, 6.3969464, 1.53225, 28.6335869, 1.53225, 0.2900763
0.1810588, -0.0203098, 1.539, 0.0039062, 1.539, -0.947937, 1.539, -0.1461182, 1.539, 5.2366414, 1.539, 25.0458012, 1.539, -0.5648855
0.1818529, -0.0172885, 1.54575, -0.0435791, 1.54575, -0.9537964, 1.54575, -0.1878662, 1.54575, 4.7633586, 1.54575, 14.6488552, 1.54575, -1.740458
0.1826471, -0.0179599, 1.5525, -0.0697021, 1.5525, -0.968811, 1.5525, -0.1774292, 1.5525, 4.7480917, 1.5525, 7.1145039, 1.5525, -2.740458
0.1834412, -0.0154421, 1.55925, -0.0557861, 1.55925, -0.9959106, 1.55925, -0.163147, 1.55925, 4.3816795, 1.55925, -4.2671757, 1.55925, -4.9083967
0.1842353, -0.008896, 1.566, -0.0296631, 1.566, -1.0100098, 1.566, -0.1680298, 1.566, 4.8549619, 1.566, -14.3740454, 1.566, -6.8473282
0.1850294, 0.0001678, 1.57275, 0.0543823, 1.57275, -1.0302734, 1.57275, -0.1586914, 1.57275, 5.8244276, 1.57275, -22, 1.57275, -8
0.1858235, -0.0025177, 1.5795, 0.1347656, 1.5795, -1.0357666, 1.5795, -0.1583252, 1.5795, 6.9923663, 1.5795, -23.3282452, 1.5795, -7.9847326
0.1866176, -0.0058747, 1.58625, 0.1860352, 1.58625, -1.0332031, 1.58625, -0.1677856, 1.58625, 7.9312978, 1.58625, -18.0916023, 1.58625, -7.1068702
0.1874118, -0.0109102, 1.593, 0.1974487, 1.593, -1.027771, 1.593, -0.1599731, 1.593, 8.3969469, 1.593, -9.8778629, 1.593, -5.5114503
0.1882059, -0.0135958, 1.59975, 0.1716919, 1.59975, -1.0213013, 1.59975, -0.1514893, 1.59975, 8.4885492, 1.59975, -1.1068702, 1.59975, -3.9236641
0.189, -0.0139315, 1.6065, 0.1347046, 1.6065, -1.0180054, 1.6065, -0.1508179, 1.6065, 8.1908398, 1.6065, 6.1068702, 1.6065, -2.8778627
0.1897941, -0.0119173, 1.61325, 0.1018677, 1.61325, -1.0164185, 1.61325, -0.1447754, 1.61325, 7.6335878, 1.61325, 11.9541988, 1.61325, -1.6946565
0.1905882, -0.0119173, 1.62, 0.0736084, 1.62, -1.0213013, 1.62, -0.135498, 1.62, 6.8549619, 1.62, 16.1450386, 1.62, -0.870229
0.1913824, -0.0159457, 1.62675, 0.048584, 1.62675, -1.0146484, 1.62675, -0.1200562, 1.62675, 6.4351144, 1.62675, 18.7099228, 1.62675, 0.1145038
0.1921765, -0.0135958, 1.6335, 0.0222168, 1.6335, -1.0183105, 1.6335, -0.0967407, 1.6335, 6.1526718, 1.6335, 19.4351139, 1.6335, 0.3129771
0.1929706, -0.0199741, 1.64025, 0.0092163, 1.64025, -1.0257568, 1.64025, -0.0787354, 1.64025, 6.1984735, 1.64025, 19.7175579, 1.64025, 0.7633588
0.1937647, -0.0219883, 1.647, 0.0117188, 1.647, -1.0299683, 1.647, -0.0731812, 1.647, 6.5725193, 1.647, 17.9923668, 1.647, 0.9694657
0.1945588, -0.0209812, 1.65375, 0.0234375, 1.65375, -1.0303345, 1.65375, -0.072876, 1.65375, 7.1984735, 1.65375, 14.5954199, 1.65375, 1.0610687
0.1953529, -0.0193027, 1.6605, 0.0479126, 1.6605, -1.0192871, 1.6605, -0.0760498, 1.6605, 7.4732823, 1.6605, 10.8320608, 1.6605, 1.038168
0.1961471, -0.0216526, 1.66725, 0.0756836, 1.66725, -1.006897, 1.66725, -0.0961914, 1.66725, 7.8702292, 1.66725, 6.5572519, 1.66725, 1.0839695
0.1969412, -0.0196384, 1.674, 0.1037598, 1.674, -0.9974976, 1.674, -0.0991211, 1.674, 8.4961834, 1.674, 4.8473282, 1.674, 1.2290076
0.1977353, -0.0159457, 1.68075, 0.1261597, 1.68075, -1.0058594, 1.68075, -0.0878906, 1.68075, 9.4885492, 1.68075, 4.4656487, 1.68075, 1.648855
0.1985294, -0.0099031, 1.6875, 0.135498, 1.6875, -1.0224609, 1.6875, -0.0744019, 1.6875, 11.4045801, 1.6875, 4.7251906, 1.6875, 2.0687022
0.1993235, -0.0097353, 1.69425, 0.1212769, 1.69425, -1.0234375, 1.69425, -0.0726318, 1.69425, 13.3282442, 1.69425, 3.4427481, 1.69425, 1.7938931
0.2001176, -0.0077211, 1.701, 0.0881348, 1.701, -1.0183716, 1.701, -0.069397, 1.701, 15.2442751, 1.701, -0.5267175, 1.701, 1.5725191
0.2009118, -0.0058747, 1.70775, 0.0614624, 1.70775, -0.9934692, 1.70775, -0.0860596, 1.70775, 15.9770994, 1.70775, -3.9923663, 1.70775, 1.389313
0.2017059, -0.0015106, 1.7145, 0.06073, 1.7145, -0.9696655, 1.7145, -0.1359863, 1.7145, 15.6641226, 1.7145, -10.7709923, 1.7145, 1.2366412
0.2025, 0.0005035, 1.72125, 0.0689697, 1.72125, -0.9642334, 1.72125, -0.1739502, 1.72125, 13.4961834, 1.72125, -13.5038166, 1.72125, 0.4427481
0.2032941, -0.0035248, 1.728, 0.0839233, 1.728, -0.9760132, 1.728, -0.2128296, 1.728, 11.7099237, 1.728, -11.1068707, 1.728, 0.1755725
0.2040882, -0.0068818, 1.73475, 0.0762329, 1.73475, -1.0045166, 1.73475, -0.1921387, 1.73475, 10.5801525, 1.73475, -6.0687022, 1.73475, 0.4427481
0.2048824, -0.0035248, 1.7415, 0.059082, 1.7415, -1.0278931, 1.7415, -0.1702271, 1.7415, 10.2137403, 1.7415, -1.7862595, 1.7415, 0.4732825
0.2056765, -0.0028534, 1.74825, 0.0429077, 1.74825, -1.0348511, 1.74825, -0.1615601, 1.74825, 10.7709923, 1.74825, -0.2519084, 1.74825, 0.9923664
0.2064706, -0.0062104, 1.755, 0.0292358, 1.755, -1.0274048, 1.755, -0.1571655, 1.755, 11.3282442, 1.755, -0.3358779, 1.755, 1.610687
0.2072647, -0.0105745, 1.76175, 0.0324097, 1.76175, -1.0151978, 1.76175, -0.1566772, 1.76175, 11.358779, 1.76175, -0.7709923, 1.76175, 1.6717557
0.2080588, -0.0172885, 1.7685, 0.0383911, 1.7685, -1.0040894, 1.7685, -0.1570435, 1.7685, 11.679389, 1.7685, -1.9465649, 1.7685, 1.740458
0.2088529, -0.0199741, 1.77525, 0.0529175, 1.77525, -0.9967651, 1.77525, -0.1463623, 1.77525, 11.320611, 1.77525, -2.7251909, 1.77525, 1.6946565
0.2096471, -0.0166171, 1.782, 0.0689087, 1.782, -0.9968872, 1.782, -0.1467896, 1.782, 10.8778629, 1.782, -3.0152671, 1.782, 1.3053435
0.2104412, -0.0193027, 1.78875, 0.0782471, 1.78875, -0.9940186, 1.78875, -0.1370239, 1.78875, 10.7404585, 1.78875, -3.4503818, 1.78875, 1.1908396
0.2112353, -0.0229953, 1.7955, 0.0794067, 1.7955, -0.9934082, 1.7955, -0.125, 1.7955, 10.7328243, 1.7955, -4, 1.7955, 1.3206106
0.2120294, -0.0246738, 1.80225, 0.0788574, 1.80225, -0.9932861, 1.80225, -0.1229858, 1.80225, 10.4351149, 1.80225, -4.259542, 1.80225, 1.3358779
0.2128235, -0.0250095, 1.809, 0.076355, 1.809, -1.0009155, 1.809, -0.1231689, 1.809, 9.9465647, 1.809, -5.038168, 1.809, 1.3435115
0.2136176, -0.0199741, 1.81575, 0.0654297, 1.81575, -1.0042114, 1.81575, -0.1138916, 1.81575, 9.7022905, 1.81575, -5.5496182, 1.81575, 1.1526718
0.2144118, -0.0162814, 1.8225, 0.0668335, 1.8225, -1.0039062, 1.8225, -0.109436, 1.8225, 9.282443, 1.8225, -5.480916, 1.8225, 1.129771
0.2152059, -0.0129244, 1.82925, 0.0623169, 1.82925, -0.9971924, 1.82925, -0.124939, 1.82925, 9.0992365, 1.82925, -5.8396945, 1.82925, 1.129771
0.216, -0.0162814, 1.836, 0.0531616, 1.836, -0.9937134, 1.836, -0.1287231, 1.836, 8.5801525, 1.836, -4.3282442, 1.836, 1.6793894
0.2167941, -0.0135958, 1.84275, 0.0512695, 1.84275, -0.9971313, 1.84275, -0.125061, 1.84275, 8.3435116, 1.84275, -2.778626, 1.84275, 1.6183206
0.2175882, -0.0082246, 1.8495, 0.045166, 1.8495, -0.9985962, 1.8495, -0.1201782, 1.8495, 8.1145039, 1.8495, -2.0305343, 1.8495, 1.4580153
0.2183824, -0.0090639, 1.85625, 0.0365601, 1.85625, -1.0020752, 1.85625, -0.1139526, 1.85625, 7.9847326, 1.85625, -1.6717557, 1.85625, 1.5496184
0.2191765, -0.005539, 1.863, 0.0316772, 1.863, -1.0037842, 1.863, -0.1124878, 1.863, 8.0687027, 1.863, -1.8091604, 1.863, 1.6335878
0.2199706, -0.0058747, 1.86975, 0.0292358, 1.86975, -1.0039062, 1.86975, -0.1107788, 1.86975, 7.8854961, 1.86975, -2.2900763, 1.86975, 1.5572519
0.2207647, -0.0129244, 1.8765, 0.0317383, 1.8765, -1.0031128, 1.8765, -0.1083984, 1.8765, 7.7251906, 1.8765, -3.1450381, 1.8765, 1.2519084
0.2215588, -0.0129244, 1.88325, 0.0402832, 1.88325, -1.0079346, 1.88325, -0.109314, 1.88325, 7.4351144, 1.88325, -3.6641221, 1.88325, 1.1679389
0.2223529, -0.0090639, 1.89, 0.0599976, 1.89, -1.0095825, 1.89, -0.1129761, 1.89, 7.3282442, 1.89, -4.7328243, 1.89, 1.0992366
0.2231471, -0.0075532, 1.89675, 0.0770874, 1.89675, -1.0083008, 1.89675, -0.1205444, 1.89675, 7.2137403, 1.89675, -4.8702292, 1.89675, 1.1832061
0.2239412, -0.012253, 1.9035, 0.0965576, 1.9035, -1.0083008, 1.9035, -0.1286621, 1.9035, 7.0687022, 1.9035, -3.4274809, 1.9035, 1.2824427
0.2247353, -0.012253, 1.91025, 0.1020508, 1.91025, -1.0100098, 1.91025, -0.1333618, 1.91025, 6.6030536, 1.91025, -1.3282443, 1.91025, 1.2824427
0.2255294, -0.0082246, 1.917, 0.0992432, 1.917, -1.0087891, 1.917, -0.1378784, 1.917, 6.6106873, 1.917, 0.7099237, 1.917, 1.3969465
0.2263235, -0.0139315, 1.92375, 0.0940552, 1.92375, -1.0126343, 1.92375, -0.1310425, 1.92375, 6.4732823, 1.92375, 3.2137403, 1.92375, 1.8931298
0.2271176, -0.0159457, 1.9305, 0.0800171, 1.9305, -1.0167236, 1.9305, -0.1188965, 1.9305, 6.7328243, 1.9305, 5.4580154, 1.9305, 2.0076337
0.2279118, -0.0151064, 1.93725, 0.0615234, 1.93725, -1.0117798, 1.93725, -0.1055298, 1.93725, 7.1450381, 1.93725, 6.4351144, 1.93725, 1.9389313
0.2287059, -0.0176242, 1.944, 0.0415649, 1.944, -1.0063477, 1.944, -0.1010742, 1.944, 7.3282442, 1.944, 6.7099237, 1.944, 2.2137403
0.2295, -0.0240024, 1.95075, 0.0318604, 1.95075, -0.9995117, 1.95075, -0.0982666, 1.95075, 7.8244276, 1.95075, 6.1984735, 1.95075, 2.1221373
0.2302941, -0.0223239, 1.9575, 0.0269775, 1.9575, -1.0001831, 1.9575, -0.0982056, 1.9575, 7.9312978, 1.9575, 4.3893127, 1.9575, 1.870229
0.2310882, -0.0273594, 1.96425, 0.0270386, 1.96425, -0.9953613, 1.96425, -0.0953979, 1.96425, 8.2366409, 1.96425, 2.6793892, 1.96425, 1.5267175
0.2318824, -0.0263523, 1.971, 0.0321045, 1.971, -0.9971924, 1.971, -0.0938721, 1.971, 8.2977095, 1.971, 1.3053435, 1.971, 1.3358779
0.2326765, -0.0169528, 1.97775, 0.0283813, 1.97775, -0.9983521, 1.97775, -0.0827637, 1.97775, 8.6106873, 1.97775, 0.3664122, 1.97775, 1.038168
0.2334706, -0.0149386, 1.9845, 0.022644, 1.9845, -0.9997559, 1.9845, -0.0834961, 1.9845, 8.3893127, 1.9845, -1.2137405, 1.9845, 0.7022901
0.2342647, -0.0169528, 1.99125, 0.0262451, 1.99125, -1.0018921, 1.99125, -0.0890503, 1.99125, 8.3816795, 1.99125, -2.6946564, 1.99125, 0.4885496
0.2350588, -0.0142672, 1.998, 0.0334473, 1.998, -1.0054932, 1.998, -0.0836792, 1.998, 8.6259546, 1.998, -3.2290077, 1.998, 0.2748092
0.2358529, -0.0132601, 2.00475, 0.0409546, 2.00475, -1.0033569, 2.00475, -0.0773926, 2.00475, 8.4045801, 2.00475, -3.259542, 2.00475, 0.1755725
0.2366471, -0.0112459, 2.0115, 0.043396, 2.0115, -1.0042725, 2.0115, -0.0682373, 2.0115, 8.1374044, 2.0115, -2.7862597, 2.0115, 0.1450382
0.2374412, -0.0125887, 2.01825, 0.0463867, 2.01825, -1.0015869, 2.01825, -0.0731201, 2.01825, 7.9007635, 2.01825, -2.3587787, 2.01825, 0.0992366
0.2382353, -0.0095674, 2.025, 0.046875, 2.025, -1.0007935, 2.025, -0.0744019, 2.025, 7.6106873, 2.025, -1.6030535, 2.025, 0.3664122
0.2390294, -0.005539, 2.03175, 0.0431519, 2.03175, -1.000061, 2.03175, -0.0698853, 2.03175, 7.5038166, 2.03175, -0.4122137, 2.03175, 0.3587786
0.2398235, -0.0097353, 2.0385, 0.041687, 2.0385, -1.0080566, 2.0385, -0.0646362, 2.0385, 7.0839696, 2.0385, 0.3816794, 2.0385, 0.3282443
0.2406176, -0.0125887, 2.04525, 0.0355835, 2.04525, -1.0057983, 2.04525, -0.0575562, 2.04525, 6.5343513, 2.04525, 0.1679389, 2.04525, 0.1221374
0.2414118, -0.0162814, 2.052, 0.0328979, 2.052, -1.0078125, 2.052, -0.06073, 2.052, 6.0610685, 2.052, -0.1450382, 2.052, -0.0610687
0.2422059, -0.0218204, 2.05875, 0.0301514, 2.05875, -1.0081177, 2.05875, -0.064209, 2.05875, 5.6946564, 2.05875, -0.4503817, 2.05875, -0.351145
0.243, -0.0236667, 2.0655, 0.0366211, 2.0655, -1.0105591, 2.0655, -0.0637817, 2.0655, 5.2671757, 2.0655, -0.870229, 2.0655, -0.5038168
0.2437941, -0.0223239, 2.07225, 0.0390625, 2.07225, -1.0136108, 2.07225, -0.0584106, 2.07225, 4.9770994, 2.07225, -1.2290076, 2.07225, -0.6183206
0.2445882, -0.0216526, 2.079, 0.0384521, 2.079, -1.0147705, 2.079, -0.0551147, 2.079, 4.5343513, 2.079, -1.2824427, 2.079, -0.6030535
0.2453824, -0.0204776, 2.08575, 0.0389404, 2.08575, -1.0157471, 2.08575, -0.0571899, 2.08575, 4.519084, 2.08575, -2.0305343, 2.08575, -0.8244275
0.2461765, -0.0204776, 2.0925, 0.0435181, 2.0925, -1.0065918, 2.0925, -0.0687256, 2.0925, 4.2519083, 2.0925, -2.3740458, 2.0925, -0.9923664
0.2469706, -0.0206455, 2.09925, 0.0477905, 2.09925, -1.0117798, 2.09925, -0.0724487, 2.09925, 4.1145039, 2.09925, -2.3740458, 2.09925, -0.8396947
0.2477647, -0.0166171, 2.106, 0.0543213, 2.106, -1.0163574, 2.106, -0.0731201, 2.106, 3.8549619, 2.106, -2.0152671, 2.106, -0.8625954
0.2485588, -0.0095674, 2.11275, 0.0569458, 2.11275, -1.0160522, 2.11275, -0.0752563, 2.11275, 4.0916033, 2.11275, -1.3740458, 2.11275, -1.038168
0.2493529, -0.0062104, 2.1195, 0.0551758, 2.1195, -1.0106812, 2.1195, -0.078186, 2.1195, 3.9236641, 2.1195, -0.648855, 2.1195, -0.778626
0.2501471, -0.0062104, 2.12625, 0.0533447, 2.12625, -1.0075073, 2.12625, -0.0797729, 2.12625, 3.7709923, 2.12625, 0.2519084, 2.12625, -0.7251908
0.2509412, -0.0043641, 2.133, 0.0518188, 2.133, -1.0066528, 2.133, -0.081604, 2.133, 3.778626, 2.133, 0.3206107, 2.133, -0.8473282
0.2517353, -0.0048676, 2.13975, 0.0535889, 2.13975, -1.0042114, 2.13975, -0.0791016, 2.13975, 3.8396947, 2.13975, 0.4274809, 2.13975, -1.0152671
0.2525294, -0.0045319, 2.1465, 0.0513306, 2.1465, -1.0049438, 2.1465, -0.0784912, 2.1465, 3.8320611, 2.1465, 0.9465649, 2.1465, -0.7099237
0.2533235, -0.0092317, 2.15325, 0.0457153, 2.15325, -1.0033569, 2.15325, -0.0779419, 2.15325, 3.4427481, 2.15325, 1.5496184, 2.15325, -0.8015267
0.2541176, -0.0112459, 2.16, 0.0383301, 2.16, -1.0061035, 2.16, -0.0748291, 2.16, 3.5343511, 2.16, 1.5267175, 2.16, -0.610687
0.2549118, -0.0115816, 2.16675, 0.0319824, 2.16675, -1.0040894, 2.16675, -0.0714722, 2.16675, 3.4656489, 2.16675, 1.6183206, 2.16675, -0.5038168
0.2557059, -0.0112459, 2.1735, 0.0325928, 2.1735, -1.0020752, 2.1735, -0.0692139, 2.1735, 3.5801528, 2.1735, 1.5343511, 2.1735, -0.5038168
0.2565, -0.0112459, 2.18025, 0.0278931, 2.18025, -1.0009766, 2.18025, -0.0678101, 2.18025, 3.3740458, 2.18025, 1.1374046, 2.18025, -0.7099237
0.2572941, -0.0093996, 2.187, 0.0276489, 2.187, -1.0044556, 2.187, -0.0698853, 2.187, 3.4045801, 2.187, 0.5725191, 2.187, -0.8854962
0.2580882, -0.0062104, 2.19375, 0.0300293, 2.19375, -1.0065918, 2.19375, -0.0663452, 2.19375, 3.3664122, 2.19375, 0.2366412, 2.19375, -0.870229
0.2588824, -0.0115816, 2.2005, 0.0319824, 2.2005, -1.0093384, 2.2005, -0.0635986, 2.2005, 3.0534351, 2.2005, -0.4503817, 2.2005, -1.0229008
0.2596765, -0.0157778, 2.20725, 0.0355835, 2.20725, -1.0101318, 2.20725, -0.0690308, 2.20725, 2.8320611, 2.20725, -1.2442749, 2.20725, -0.9465649
0.2604706, -0.0115816, 2.214, 0.0424194, 2.214, -1.0065308, 2.214, -0.0715942, 2.214, 2.8396947, 2.214, -1.5648855, 2.214, -1.0763359
0.2612647, -0.0109102, 2.22075, 0.053833, 2.22075, -1.0111084, 2.22075, -0.0669556, 2.22075, 2.778626, 2.22075, -1.389313, 2.22075, -0.9694657
0.2620588, -0.0129244, 2.2275, 0.0521851, 2.2275, -1.0080566, 2.2275, -0.0671997, 2.2275, 2.5572519, 2.2275, -0.9694657, 2.2275, -0.9694657
0.2628529, -0.0182956, 2.23425, 0.0527954, 2.23425, -1.0050659, 2.23425, -0.0740967, 2.23425, 2.4427481, 2.23425, -0.7251908, 2.23425, -0.8320611
0.2636471, -0.023331, 2.241, 0.0490112, 2.241, -1.0073853, 2.241, -0.0790405, 2.241, 2.5801528, 2.241, -0.4274809, 2.241, -0.8320611
0.2644412, -0.0243381, 2.24775, 0.0484619, 2.24775, -1.0073853, 2.24775, -0.0755005, 2.24775, 2.6641221, 2.24775, -0.0992366, 2.24775, -0.8625954
0.2652353, -0.0201419, 2.2545, 0.0439453, 2.2545, -1.0045776, 2.2545, -0.0731812, 2.2545, 2.5725191, 2.2545, 0.0458015, 2.2545, -0.908397
0.2660294, -0.0196384, 2.26125, 0.0360107, 2.26125, -1.0062866, 2.26125, -0.071228, 2.26125, 2.3969467, 2.26125, 0.6030535, 2.26125, -0.9389313
0.2668235, -0.023331, 2.268, 0.0351562, 2.268, -1.0077515, 2.268, -0.0716553, 2.268, 2.3664122, 2.268, 0.5725191, 2.268, -1.0076336
0.2676176, -0.0184634, 2.27475, 0.0314941, 2.27475, -1.0101318, 2.27475, -0.0690308, 2.27475, 2.648855, 2.27475, 0.1374046, 2.27475, -0.9770992
0.2684118, -0.0115816, 2.2815, 0.0314941, 2.2815, -1.006958, 2.2815, -0.0695801, 2.2815, 2.5801528, 2.2815, 0.3129771, 2.2815, -0.9160305
0.2692059, -0.0099031, 2.28825, 0.0319214, 2.28825, -1.0058594, 2.28825, -0.0743408, 2.28825, 2.5114503, 2.28825, 0.480916, 2.28825, -1
0.27, -0.0117494, 2.295, 0.0299683, 2.295, -1.008606, 2.295, -0.0664062, 2.295, 2.2824428, 2.295, 1.4122137, 2.295, -1.091603
0.2707941, -0.0142672, 2.30175, 0.0275269, 2.30175, -1.0102539, 2.30175, -0.0650024, 2.30175, 2.1374047, 2.30175, 1.3129771, 2.30175, -1
0.2715882, -0.0149386, 2.3085, 0.0291748, 2.3085, -1.0134277, 2.3085, -0.0632324, 2.3085, 2.1603053, 2.3085, 1.5572519, 2.3085, -1.0687023
0.2723824, -0.0142672, 2.31525, 0.0296021, 2.31525, -1.0076294, 2.31525, -0.0654907, 2.31525, 2.259542, 2.31525, 1.7709924, 2.31525, -1.3358779
0.2731765, -0.0129244, 2.322, 0.0339355, 2.322, -1.0084839, 2.322, -0.0672607, 2.322, 2.0152671, 2.322, 2.2366412, 2.322, -1.2442749
0.2739706, -0.0162814, 2.32875, 0.0339355, 2.32875, -1.0096436, 2.32875, -0.0679321, 2.32875, 1.9312977, 2.32875, 2.1450381, 2.32875, -1.3358779
0.2747647, -0.018967, 2.3355, 0.0343628, 2.3355, -1.0045166, 2.3355, -0.0647583, 2.3355, 1.7251909, 2.3355, 2.8625953, 2.3355, -1.3206106
0.2755588, -0.0193027, 2.34225, 0.0325317, 2.34225, -1.0090332, 2.34225, -0.0620728, 2.34225, 1.5648855, 2.34225, 2.9923663, 2.34225, -1.1679389
0.2763529, -0.0216526, 2.349, 0.0235596, 2.349, -1.0031738, 2.349, -0.0623779, 2.349, 1.519084, 2.349, 2.7022901, 2.349, -1.480916
0.2771471, -0.0176242, 2.35575, 0.0182495, 2.35575, -1.0067749, 2.35575, -0.0682373, 2.35575, 1.1832061, 2.35575, 2.0839694, 2.35575, -1.4045801
0.2779412, -0.0162814, 2.3625, 0.017395, 2.3625, -1.0057373, 2.3625, -0.0645142, 2.3625, 1.0610687, 2.3625, 1.5267175, 2.3625, -1.5572519
0.2787353, -0.0184634, 2.36925, 0.0186768, 2.36925, -1.0079346, 2.36925, -0.057312, 2.36925, 0.961832, 2.36925, 0.5801527, 2.36925, -1.8320611
0.2795294, -0.0199741, 2.376, 0.0197754, 2.376, -1.006897, 2.376, -0.0584106, 2.376, 0.9007633, 2.376, -0.4274809, 2.376, -1.9847329
0.2803235, -0.0203098, 2.38275, 0.0177002, 2.38275, -1.0027466, 2.38275, -0.0592041, 2.38275, 0.8778626, 2.38275, -1.1221374, 2.38275, -2.1984732
0.2811176, -0.0182956, 2.3895, 0.0256958, 2.3895, -1.0043945, 2.3895, -0.0644531, 2.3895, 0.5114504, 2.3895, -2.0076337, 2.3895, -2.3206108
0.2819118, -0.0166171, 2.39625, 0.0355225, 2.39625, -1.0023193, 2.39625, -0.0680542, 2.39625, 0.5038168, 2.39625, -2.2137403, 2.39625, -2.3358779
0.2827059, -0.0129244, 2.403, 0.038269, 2.403, -1.0046997, 2.403, -0.0686646, 2.403, 0.4274809, 2.403, -1.6793894, 2.403, -2.3816793
0.2835, -0.0115816, 2.40975, 0.0407715, 2.40975, -1.0045776, 2.40975, -0.0665283, 2.40975, 0.4351145, 2.40975, -1.389313, 2.40975, -2.351145
0.2842941, -0.0112459, 2.4165, 0.0272827, 2.4165, -1.0042114, 2.4165, -0.0701904, 2.4165, 0.3587786, 2.4165, -1.2366412, 2.4165, -2.4427481
0.2850882, -0.0087282, 2.42325, 0.0228271, 2.42325, -1.0050659, 2.42325, -0.071228, 2.42325, 0.2519084, 2.42325, -0.9312977, 2.42325, -2.5877862
0.2858824, -0.0062104, 2.43, 0.0200806, 2.43, -1.0065308, 2.43, -0.0718384, 2.43, 0.0687023, 2.43, -1.1145039, 2.43, -2.5648854
0.2866765, -0.0045319, 2.43675, 0.0194702, 2.43675, -1.0093384, 2.43675, -0.0681152, 2.43675, 0.0610687, 2.43675, -1.5648855, 2.43675, -2.5267177
0.2874706, -0.0085603, 2.4435, 0.0201416, 2.4435, -1.0084839, 2.4435, -0.067627, 2.4435, 0.0076336, 2.4435, -2.0458016, 2.4435, -2.5877862
0.2882647, -0.011078, 2.45025, 0.0303955, 2.45025, -1.0031128, 2.45025, -0.069458, 2.45025, -0.0534351, 2.45025, -2.0076337, 2.45025, -2.5954199
0.2890588, -0.0125887, 2.457, 0.0338135, 2.457, -1.005249, 2.457, -0.0752563, 2.457, -0.0610687, 2.457, -2.221374, 2.457, -2.7938931
0.2898529, -0.0182956, 2.46375, 0.0367432, 2.46375, -1.005127, 2.46375, -0.0787964, 2.46375, -0.1145038, 2.46375, -1.9923664, 2.46375, -2.8549619
0.2906471, -0.0216526, 2.4705, 0.0432129, 2.4705, -1.0067749, 2.4705, -0.0789185, 2.4705, -0.3053435, 2.4705, -1.8625954, 2.4705, -2.7022901
0.2914412, -0.0224918, 2.47725, 0.0479126, 2.47725, -1.0101318, 2.47725, -0.0802612, 2.47725, -0.1221374, 2.47725, -1.0687023, 2.47725, -2.6412213
0.2922353, -0.023331, 2.484, 0.0406494, 2.484, -1.0117188, 2.484, -0.074707, 2.484, -0.1145038, 2.484, -0.6641222, 2.484, -2.7633588
0.2930294, -0.0196384, 2.49075, 0.0326538, 2.49075, -1.0041504, 2.49075, -0.0790405, 2.49075, -0.0305344, 2.49075, -0.4656489, 2.49075, -2.648855
0.2938235, -0.0216526, 2.4975, 0.0296631, 2.4975, -1.0039062, 2.4975, -0.0801392, 2.4975, 0.0381679, 2.4975, -0.9160305, 2.4975, -2.6412213
0.2946176, -0.0236667, 2.50425, 0.0267334, 2.50425, -1.0109863, 2.50425, -0.0789185, 2.50425, -0.0305344, 2.50425, -1.1832061, 2.50425, -2.7938931
0.2954118, -0.0219883, 2.511, 0.0276489, 2.511, -1.0075073, 2.511, -0.0761108, 2.511, -0.1526718, 2.511, -1.5725191, 2.511, -2.6564887
0.2962059, -0.0162814, 2.51775, 0.0339966, 2.51775, -1.003418, 2.51775, -0.0772705, 2.51775, -0.1450382, 2.51775, -1.9847329, 2.51775, -2.6946564
0.297, -0.0182956, 2.5245, 0.039856, 2.5245, -1.0036011, 2.5245, -0.0791016, 2.5245, -0.1679389, 2.5245, -1.8320611, 2.5245, -2.778626
0.2977941, -0.0203098, 2.53125, 0.0455322, 2.53125, -0.9988403, 2.53125, -0.085083, 2.53125, 0.0534351, 2.53125, -1.610687, 2.53125, -2.8091602
0.2985882, -0.0179599, 2.538, 0.0471802, 2.538, -1.0018921, 2.538, -0.0901489, 2.538, 0.0992366, 2.538, -0.7480916, 2.538, -2.5954199
0.2993824, -0.0115816, 2.54475, 0.0426636, 2.54475, -1.0021973, 2.54475, -0.0849609, 2.54475, 0.2137405, 2.54475, -0.0229008, 2.54475, -2.5419848
0.3001765, -0.0078889, 2.5515, 0.0384521, 2.5515, -1.007019, 2.5515, -0.0853882, 2.5515, 0.3740458, 2.5515, 0.4732825, 2.5515, -2.4427481
0.3009706, -0.0031891, 2.55825, 0.0373535, 2.55825, -1.0073853, 2.55825, -0.0819702, 2.55825, 0.610687, 2.55825, 0.4122137, 2.55825, -2.5419848
0.3017647, -0.0052033, 2.565, 0.0311279, 2.565, -1.0082397, 2.565, -0.0830078, 2.565, 0.6946565, 2.565, 0.3664122, 2.565, -2.480916
0.3025588, -0.0085603, 2.57175, 0.0328369, 2.57175, -1.0101318, 2.57175, -0.0848999, 2.57175, 0.7328244, 2.57175, 0.2061069, 2.57175, -2.480916
0.3033529, -0.0045319, 2.5785, 0.03479, 2.5785, -1.0078125, 2.5785, -0.0823975, 2.5785, 0.740458, 2.5785, 0.129771, 2.5785, -2.4961832
0.3041471, -0.0062104, 2.58525, 0.0358887, 2.58525, -1.0081177, 2.58525, -0.0795288, 2.58525, 0.7633588, 2.58525, 0.1145038, 2.58525, -2.3664122
0.3049412, -0.0090639, 2.592, 0.0337524, 2.592, -1.0100708, 2.592, -0.0764771, 2.592, 0.7022901, 2.592, 0.0992366, 2.592, -2.4045801
0.3057353, -0.012253, 2.59875, 0.0333252, 2.59875, -1.0099487, 2.59875, -0.0762329, 2.59875, 0.9007633, 2.59875, -0.0152672, 2.59875, -2.5801528
0.3065294, -0.0149386, 2.6055, 0.0334473, 2.6055, -1.0054932, 2.6055, -0.0752563, 2.6055, 0.6793893, 2.6055, -0.0152672, 2.6055, -2.4961832
0.3073235, -0.0172885, 2.61225, 0.03125, 2.61225, -1.0019531, 2.61225, -0.0754395, 2.61225, 0.5725191, 2.61225, 0.3129771, 2.61225, -2.3816793
0.3081176, -0.0149386, 2.619, 0.0302124, 2.619, -1.0050659, 2.619, -0.0741577, 2.619, 0.5114504, 2.619, 0.2366412, 2.619, -2.3816793
0.3089118, -0.012253, 2.62575, 0.0308228, 2.62575, -1.0032349, 2.62575, -0.0757446, 2.62575, 0.5877863, 2.62575, 0.5725191, 2.62575, -2.3740458
0.3097059, -0.0132601, 2.6325, 0.0310669, 2.6325, -1.0075684, 2.6325, -0.0725098, 2.6325, 0.4580153, 2.6325, 0.4885496, 2.6325, -2.389313
0.3105, -0.0146029, 2.63925, 0.0344238, 2.63925, -1.0033569, 2.63925, -0.0731812, 2.63925, 0.4351145, 2.63925, 0.648855, 2.63925, -2.3587787
0.3112941, -0.0169528, 2.646, 0.0336914, 2.646, -1.0073853, 2.646, -0.0741577, 2.646, 0.2671756, 2.646, 0.8015267, 2.646, -2.2900763
0.3120882, -0.023331, 2.65275, 0.0339966, 2.65275, -1.0100708, 2.65275, -0.072876, 2.65275, 0.2366412, 2.65275, 1.1145039, 2.65275, -2.2442749
0.3128824, -0.0213169, 2.6595, 0.0302124, 2.6595, -1.0067749, 2.6595, -0.0706177, 2.6595, 0.0229008, 2.6595, 1.1374046, 2.6595, -2.4198472
0.3136765, -0.0209812, 2.66625, 0.0258789, 2.66625, -1.0091553, 2.66625, -0.0688477, 2.66625, 0.1145038, 2.66625, 0.5267175, 2.66625, -2.4580152
0.3144706, -0.0236667, 2.673, 0.0236206, 2.673, -1.0079346, 2.673, -0.0706787, 2.673, -0.0152672, 2.673, 0.0916031, 2.673, -2.3816793
0.3152647, -0.0229953, 2.67975, 0.0265503, 2.67975, -1.0083008, 2.67975, -0.0713501, 2.67975, -0.1068702, 2.67975, -0.1755725, 2.67975, -2.610687
0.3160588, -0.0191348, 2.6865, 0.027771, 2.6865, -1.0089111, 2.6865, -0.069458, 2.6865, -0.1603053, 2.6865, -0.4656489, 2.6865, -2.6641221
0.3168529, -0.0196384, 2.69325, 0.02948, 2.69325, -1.0076904, 2.69325, -0.0719604, 2.69325, -0.3587786, 2.69325, -0.740458, 2.69325, -2.5877862
0.3176471, -0.0142672, 2.7, 0.0342407, 2.7, -1.0060425, 2.7, -0.0743408, 2.7, -0.4580153, 2.7, -0.8167939, 2.7, -2.6717558
0.3184412, -0.0062104, 2.70675, 0.0332642, 2.70675, -1.0075684, 2.70675, -0.078064, 2.70675, -0.6412213, 2.70675, -0.6259542, 2.70675, -2.5877862
0.3192353, -0.002182, 2.7135, 0.0310059, 2.7135, -1.0036621, 2.7135, -0.0783691, 2.7135, -0.4656489, 2.7135, -0.4198473, 2.7135, -2.8015268
0.3200294, -0.0020142, 2.72025, 0.0305786, 2.72025, -1.0045166, 2.72025, -0.0783081, 2.72025, -0.5267175, 2.72025, -0.1832061, 2.72025, -2.6564887
0.3208235, -0.0062104, 2.727, 0.0245361, 2.727, -1.0053101, 2.727, -0.0759888, 2.727, -0.7251908, 2.727, -0.0992366, 2.727, -2.7022901
0.3216176, -0.0077211, 2.73375, 0.026001, 2.73375, -1.0019531, 2.73375, -0.0764771, 2.73375, -0.7633588, 2.73375, -0.1374046, 2.73375, -2.5725191
0.3224118, -0.0115816, 2.7405, 0.0209961, 2.7405, -1.0011597, 2.7405, -0.0770874, 2.7405, -0.8167939, 2.7405, -0.3358779, 2.7405, -2.5496182
0.3232059, -0.008896, 2.74725, 0.0253296, 2.74725, -1.0022583, 2.74725, -0.0761108, 2.74725, -0.9236641, 2.74725, -0.7022901, 2.74725, -2.7099237
0.324, -0.0085603, 2.754, 0.0291748, 2.754, -1.0031128, 2.754, -0.072876, 2.754, -0.8854962, 2.754, -0.7709923, 2.754, -2.5572519
0.3247941, -0.0127565, 2.76075, 0.0354614, 2.76075, -1.0064087, 2.76075, -0.0742188, 2.76075, -0.870229, 2.76075, -0.3587786, 2.76075, -2.648855
0.3255882, -0.012253, 2.7675, 0.0310059, 2.7675, -1.006958, 2.7675, -0.0736694, 2.7675, -1.1221374, 2.7675, 0.3129771, 2.7675, -2.5801528
0.3263824, -0.0112459, 2.77425, 0.0285645, 2.77425, -1.0075684, 2.77425, -0.0734253, 2.77425, -1.1832061, 2.77425, 0.3816794, 2.77425, -2.5038168
0.3271765, -0.0112459, 2.781, 0.0291748, 2.781, -1.0060425, 2.781, -0.0750122, 2.781, -1.1755725, 2.781, 0.259542, 2.781, -2.5419848
0.3279706, -0.0152743, 2.78775, 0.0288696, 2.78775, -1.008606, 2.78775, -0.0802612, 2.78775, -1.1145039, 2.78775, 0.0916031, 2.78775, -2.6870229
0.3287647, -0.0191348, 2.7945, 0.0275879, 2.7945, -1.0097656, 2.7945, -0.0796509, 2.7945, -1.1526718, 2.7945, 0.1450382, 2.7945, -2.6641221
0.3295588, -0.0176242, 2.80125, 0.0284424, 2.80125, -1.0083618, 2.80125, -0.081665, 2.80125, -1.3206106, 2.80125, 0.4885496, 2.80125, -2.5038168
0.3303529, -0.0186313, 2.808, 0.0233154, 2.808, -1.0093384, 2.808, -0.0822144, 2.808, -1.4580153, 2.808, 0.4656489, 2.808, -2.7022901
0.3311471, -0.0169528, 2.81475, 0.0250244, 2.81475, -1.0082397, 2.81475, -0.0859985, 2.81475, -1.2748091, 2.81475, 0.1908397, 2.81475, -2.6717558
0.3319412, -0.0102388, 2.8215, 0.0206299, 2.8215, -1.0079956, 2.8215, -0.0878296, 2.8215, -1.389313, 2.8215, 0.2366412, 2.8215, -2.8320611
0.3327353, -0.0077211, 2.82825, 0.0201416, 2.82825, -1.0033569, 2.82825, -0.0932007, 2.82825, -1.4961832, 2.82825, -0.221374, 2.82825, -2.8167939
0.3335294, -0.0041962, 2.835, 0.0267334, 2.835, -1.0015259, 2.835, -0.0907593, 2.835, -1.5038168, 2.835, -0.3664122, 2.835, -2.9694657
0.3343235, 0.0011749, 2.84175, 0.0270386, 2.84175, -1.0023804, 2.84175, -0.0933228, 2.84175, -1.4885496, 2.84175, -0.4732825, 2.84175, -2.9007633
0.3351176, 0.0052033, 2.8485, 0.0304565, 2.8485, -1.0020752, 2.8485, -0.0941772, 2.8485, -1.5267175, 2.8485, -0.0152672, 2.8485, -2.8549619
0.3359118, 0.002182, 2.85525, 0.0355225, 2.85525, -0.9995117, 2.85525, -0.09729, 2.85525, -1.3435115, 2.85525, 0.1908397, 2.85525, -2.9236641
0.3367059, -0.0015106, 2.862, 0.0310669, 2.862, -1.003418, 2.862, -0.0984497, 2.862, -1.3129771, 2.862, 0.610687, 2.862, -2.9847329
0.3375, -0.0058747, 2.86875, 0.0270996, 2.86875, -1.0026855, 2.86875, -0.0956421, 2.86875, -1.1984733, 2.86875, 0.480916, 2.86875, -2.8320611
0.3382941, -0.0125887, 2.8755, 0.0302734, 2.8755, -1.0030518, 2.8755, -0.0968018, 2.8755, -1.129771, 2.8755, 0.2900763, 2.8755, -2.8015268
0.3390882, -0.0149386, 2.88225, 0.0289917, 2.88225, -1.0026855, 2.88225, -0.0949707, 2.88225, -1.2824427, 2.88225, -0.0076336, 2.88225, -3.0763359
0.3398824, -0.0199741, 2.889, 0.0294189, 2.889, -1.0054932, 2.889, -0.0976562, 2.889, -0.9923664, 2.889, 0.0076336, 2.889, -3.0305343
0.3406765, -0.0218204, 2.89575, 0.0280151, 2.89575, -1.0054932, 2.89575, -0.0930176, 2.89575, -0.9847328, 2.89575, 0.1450382, 2.89575, -3.0610688
0.3414706, -0.0203098, 2.9025, 0.0255737, 2.9025, -1.0054321, 2.9025, -0.0911255, 2.9025, -1.0458015, 2.9025, 0.2442748, 2.9025, -2.9694657
0.3422647, -0.0216526, 2.90925, 0.0197754, 2.90925, -1.0053101, 2.90925, -0.0900879, 2.90925, -0.9312977, 2.90925, -0.0916031, 2.90925, -3.2137403
0.3430588, -0.0283665, 2.916, 0.0209961, 2.916, -1.0050049, 2.916, -0.0914307, 2.916, -1.0458015, 2.916, -0.6717557, 2.916, -3.0687022
0.3438529, -0.0303807, 2.92275, 0.0249023, 2.92275, -1.0037842, 2.92275, -0.0892944, 2.92275, -1.1679389, 2.92275, -0.908397, 2.92275, -3.2442749
0.3446471, -0.0337377, 2.9295, 0.0296021, 2.9295, -1.00354, 2.9295, -0.0919189, 2.9295, -1.1145039, 2.9295, -1.0992366, 2.9295, -3.3129771
0.3454412, -0.0290379, 2.93625, 0.0283813, 2.93625, -1.0043335, 2.93625, -0.0934448, 2.93625, -0.9923664, 2.93625, -1.0229008, 2.93625, -3.2519083
0.3462353, -0.026688, 2.943, 0.0302734, 2.943, -1.0106201, 2.943, -0.0946655, 2.943, -1.1145039, 2.943, -0.5496183, 2.943, -3.1068702
0.3470294, -0.0221561, 2.94975, 0.0255127, 2.94975, -1.0062256, 2.94975, -0.0921631, 2.94975, -1.0458015, 2.94975, -0.3740458, 2.94975, -3.2748091
0.3478235, -0.0206455, 2.9565, 0.0245361, 2.9565, -1.0073853, 2.9565, -0.0928955, 2.9565, -1.0152671, 2.9565, -0.2137405, 2.9565, -3.4503818
0.3486176, -0.0135958, 2.96325, 0.0267944, 2.96325, -1.0065918, 2.96325, -0.0950928, 2.96325, -1.1450381, 2.96325, -0.221374, 2.96325, -3.3969467
0.3494118, -0.0063783, 2.97, 0.0300903, 2.97, -1.0064087, 2.97, -0.097168, 2.97, -0.9770992, 2.97, -0.4351145, 2.97, -2.961832
0.3502059, -0.0036927, 2.97675, 0.02948, 2.97675, -1.0102539, 2.97675, -0.0996704, 2.97675, -1.1526718, 2.97675, 0, 2.97675, -3.4122138
0.351, -0.0008392, 2.9835, 0.0274048, 2.9835, -1.0153809, 2.9835, -0.1013184, 2.9835, -1.1145039, 2.9835, 0.0534351, 2.9835, -3.4732823
0.3517941, 0.0031891, 2.99025, 0.0270996, 2.99025, -1.0140381, 2.99025, -0.0994263, 2.99025, -0.961832, 2.99025, 0.0076336, 2.99025, -3.7328243
0.3525882, -0.0008392, 2.997, 0.0339966, 2.997, -1.0143433, 2.997, -0.1072998, 2.997, -0.7938932, 2.997, 0.2671756, 2.997, -3.6335878
0.3533824, 0.0015106, 3.00375, 0.0441284, 3.00375, -1.0125122, 3.00375, -0.1121216, 3.00375, -0.5267175, 3.00375, 0.8931298, 3.00375, -3.4961832
0.3541765, 0.0008392, 3.0105, 0.0430908, 3.0105, -1.0093994, 3.0105, -0.1097412, 3.0105, -0.4122137, 3.0105, 2.221374, 3.0105, -3.5801528
0.3549706, -0.0045319, 3.01725, 0.0387573, 3.01725, -1.0084229, 3.01725, -0.107605, 3.01725, -0.2290076, 3.01725, 3.2137403, 3.01725, -3.5801528
0.3557647, -0.0127565, 3.024, 0.0335083, 3.024, -1.0096436, 3.024, -0.1016846, 3.024, 0.0610687, 3.024, 3.9541984, 3.024, -3.6946564
0.3565588, -0.0159457, 3.03075, 0.0250854, 3.03075, -1.012146, 3.03075, -0.0975952, 3.03075, 0.2290076, 3.03075, 3.9923663, 3.03075, -3.7022901
0.3573529, -0.0226596, 3.0375, 0.0209961, 3.0375, -1.0128784, 3.0375, -0.0967407, 3.0375, 0.3816794, 3.0375, 3.7328243, 3.0375, -3.8244274
0.3581471, -0.0287022, 3.04425, 0.0211792, 3.04425, -1.0112305, 3.04425, -0.0961304, 3.04425, 0.7022901, 3.04425, 3.6870229, 3.04425, -4.1221375
0.3589412, -0.0288701, 3.051, 0.0201416, 3.051, -1.0114136, 3.051, -0.0996704, 3.051, 0.4961832, 3.051, 3.519084, 3.051, -4.0763359
0.3597353, -0.0270237, 3.05775, 0.0259399, 3.05775, -1.0110474, 3.05775, -0.0942383, 3.05775, 0.8167939, 3.05775, 3.4503818, 3.05775, -4.0229006
0.3605294, -0.0273594, 3.0645, 0.0234985, 3.0645, -1.006897, 3.0645, -0.0952759, 3.0645, 0.9160305, 3.0645, 3.2824428, 3.0645, -4.4351144
0.3613235, -0.0293736, 3.07125, 0.0259399, 3.07125, -1.0039673, 3.07125, -0.1002197, 3.07125, 0.7328244, 3.07125, 3.0305343, 3.07125, -4.6564884
0.3621176, -0.0310521, 3.078, 0.0239868, 3.078, -1.0056763, 3.078, -0.1016846, 3.078, 0.9236641, 3.078, 2.9770992, 3.078, -4.7709923
0.3629118, -0.030045, 3.08475, 0.0217285, 3.08475, -1.0100708, 3.08475, -0.1027222, 3.08475, 1.0076336, 3.08475, 2.9389312, 3.08475, -5.0305343
0.3637059, -0.0270237, 3.0915, 0.0158691, 3.0915, -1.0076904, 3.0915, -0.1016846, 3.0915, 0.6946565, 3.0915, 2.6183207, 3.0915, -5.0992365
0.3645, -0.0240024, 3.09825, 0.0162964, 3.09825, -1.005249, 3.09825, -0.0993652, 3.09825, 0.6793893, 3.09825, 2.221374, 3.09825, -5.2442746
0.3652941, -0.0196384, 3.105, 0.0166016, 3.105, -1.0042725, 3.105, -0.105835, 3.105, 0.7022901, 3.105, 1.8473282, 3.105, -5.4198475
0.3660882, -0.012253, 3.11175, 0.0196533, 3.11175, -1.0026855, 3.11175, -0.1102905, 3.11175, 0.5801527, 3.11175, 1.5114504, 3.11175, -5.8167939
0.3668824, -0.011078, 3.1185, 0.024292, 3.1185, -1.0002441, 3.1185, -0.1115112, 3.1185, 0.5343512, 3.1185, 1.3969465, 3.1185, -6.0458016
0.3676765, -0.0078889, 3.12525, 0.02948, 3.12525, -1.0015869, 3.12525, -0.1132202, 3.12525, 0.648855, 3.12525, 1.648855, 3.12525, -6.221374
0.3684706, -0.0119173, 3.132, 0.0279541, 3.132, -0.9995117, 3.132, -0.1131592, 3.132, 0.610687, 3.132, 2.4122138, 3.132, -6.221374
0.3692647, -0.0090639, 3.13875, 0.0238037, 3.13875, -1.0018311, 3.13875, -0.1148682, 3.13875, 0.519084, 3.13875, 3.0229008, 3.13875, -6.4122138
0.3700588, -0.0065461, 3.1455, 0.0164185, 3.1455, -1.0044556, 3.1455, -0.1085815, 3.1455, 0.5343512, 3.1455, 3.1374047, 3.1455, -6.2900763
0.3708529, -0.0068818, 3.15225, 0.0131836, 3.15225, -1.0072021, 3.15225, -0.0992432, 3.15225, 0.5954198, 3.15225, 2.961832, 3.15225, -6.4503818
0.3716471, -0.0068818, 3.159, 0.0131226, 3.159, -1.012146, 3.159, -0.0963135, 3.159, 0.6564885, 3.159, 2.519084, 3.159, -6.6412215
0.3724412, -0.0129244, 3.16575, 0.0158081, 3.16575, -1.0134888, 3.16575, -0.0980225, 3.16575, 0.8931298, 3.16575, 1.7633588, 3.16575, -6.7557254
0.3732353, -0.012253, 3.1725, 0.022644, 3.1725, -1.0134277, 3.1725, -0.0924072, 3.1725, 0.9465649, 3.1725, 1.1755725, 3.1725, -6.9083967
0.3740294, -0.0119173, 3.17925, 0.0287476, 3.17925, -1.010437, 3.17925, -0.0865479, 3.17925, 1.038168, 3.17925, 0.8167939, 3.17925, -6.9541984
0.3748235, -0.0117494, 3.186, 0.032959, 3.186, -1.0139771, 3.186, -0.0838623, 3.186, 1.2137405, 3.186, 0.610687, 3.186, -6.8396945
0.3756176, -0.0129244, 3.19275, 0.0279541, 3.19275, -1.0131226, 3.19275, -0.0827637, 3.19275, 1.1832061, 3.19275, 0.351145, 3.19275, -6.9847326
0.3764118, -0.0176242, 3.1995, 0.0281982, 3.1995, -1.012085, 3.1995, -0.0839233, 3.1995, 0.8931298, 3.1995, 0.0610687, 3.1995, -6.9847326
0.3772059, -0.0166171, 3.20625, 0.0265503, 3.20625, -1.0103149, 3.20625, -0.0761108, 3.20625, 0.7251908, 3.20625, -0.2671756, 3.20625, -7.1374044
0.378, -0.0213169, 3.213, 0.0252075, 3.213, -1.0162354, 3.213, -0.0661011, 3.213, 0.4656489, 3.213, -1.0076336, 3.213, -7.3511453
0.3787941, -0.0223239, 3.21975, 0.0228882, 3.21975, -1.0136719, 3.21975, -0.06427, 3.21975, 0.3053435, 3.21975, -1.9160305, 3.21975, -7.4122138
0.3795882, -0.0236667, 3.2265, 0.0219116, 3.2265, -1.012207, 3.2265, -0.0656128, 3.2265, 0.1145038, 3.2265, -3.0229008, 3.2265, -7.4045801
0.3803824, -0.0213169, 3.23325, 0.0232544, 3.23325, -1.0100098, 3.23325, -0.0649414, 3.23325, 0.0687023, 3.23325, -3.7938931, 3.23325, -7.4503818
0.3811765, -0.01561, 3.24, 0.0327759, 3.24, -1.0095215, 3.24, -0.0696411, 3.24, -0.1068702, 3.24, -4.3435116, 3.24, -7.3740458
0.3819706, -0.014435, 3.24675, 0.0325928, 3.24675, -1.0148926, 3.24675, -0.0662842, 3.24675, -0.0458015, 3.24675, -4.1755724, 3.24675, -7.6106873
0.3827647, -0.0176242, 3.2535, 0.0311279, 3.2535, -1.013916, 3.2535, -0.0679932, 3.2535, -0.1145038, 3.2535, -4.2290077, 3.2535, -7.6870227
0.3835588, -0.0146029, 3.26025, 0.0324707, 3.26025, -1.0140991, 3.26025, -0.0689087, 3.26025, -0.2366412, 3.26025, -4.3816795, 3.26025, -7.7175574
0.3843529, -0.0105745, 3.267, 0.0334473, 3.267, -1.0128784, 3.267, -0.0742798, 3.267, -0.4045801, 3.267, -5.1221375, 3.267, -7.7557254
0.3851471, -0.0082246, 3.27375, 0.0355225, 3.27375, -1.0126953, 3.27375, -0.0731201, 3.27375, -1.0152671, 3.27375, -5.038168, 3.27375, -7.8473282
0.3859412, -0.0023499, 3.2805, 0.038269, 3.2805, -1.0126343, 3.2805, -0.0744629, 3.2805, -1.4351145, 3.2805, -5.1297708, 3.2805, -7.6488547
0.3867353, -0.0041962, 3.28725, 0.0402832, 3.28725, -1.0064697, 3.28725, -0.0807495, 3.28725, -2.1832061, 3.28725, -5.1832061, 3.28725, -7.6793895
0.3875294, -0.0052033, 3.294, 0.0435181, 3.294, -1.0061035, 3.294, -0.0777588, 3.294, -2.6335878, 3.294, -4.0763359, 3.294, -7.7022901
0.3883235, -0.0045319, 3.30075, 0.0477295, 3.30075, -1.0026245, 3.30075, -0.088623, 3.30075, -3.1908398, 3.30075, -3.6030533, 3.30075, -7.8320613
0.3891176, -0.0068818, 3.3075, 0.0513916, 3.3075, -1.0004883, 3.3075, -0.0900879, 3.3075, -3.1374047, 3.3075, -3.8473282, 3.3075, -7.6564884
0.3899118, -0.0092317, 3.31425, 0.0565186, 3.31425, -0.9990845, 3.31425, -0.0948486, 3.31425, -2.8167939, 3.31425, -3.2824428, 3.31425, -7.5954199
0.3907059, -0.0109102, 3.321, 0.0612183, 3.321, -0.9990845, 3.321, -0.0938721, 3.321, -2.5877862, 3.321, -2.519084, 3.321, -7.6183205
0.3915, -0.0169528, 3.32775, 0.0684814, 3.32775, -1.0011597, 3.32775, -0.1018677, 3.32775, -2.4274809, 3.32775, -2.4732823, 3.32775, -7.3816795
0.3922941, -0.0166171, 3.3345, 0.0707397, 3.3345, -1.0010986, 3.3345, -0.1066284, 3.3345, -1.9847329, 3.3345, -1.5343511, 3.3345, -7.2061067
0.3930882, -0.0159457, 3.34125, 0.0712891, 3.34125, -1.0008545, 3.34125, -0.1032715, 3.34125, -1.870229, 3.34125, -0.6641222, 3.34125, -7.1297708
0.3938824, -0.0115816, 3.348, 0.0650024, 3.348, -1.0036011, 3.348, -0.0993652, 3.348, -1.6793894, 3.348, 0.8091603, 3.348, -6.9236641
0.3946765, -0.0095674, 3.35475, 0.0603027, 3.35475, -1.0039673, 3.35475, -0.1005249, 3.35475, -1.5038168, 3.35475, 1.7099236, 3.35475, -6.8167939
0.3954706, -0.012253, 3.3615, 0.050354, 3.3615, -1.0040894, 3.3615, -0.1004639, 3.3615, -1.5267175, 3.3615, 2.129771, 3.3615, -6.8396945
0.3962647, -0.0135958, 3.36825, 0.0419922, 3.36825, -1.010498, 3.36825, -0.0991821, 3.36825, -1.1832061, 3.36825, 2.1755726, 3.36825, -6.6717558
0.3970588, -0.0142672, 3.375, 0.0410767, 3.375, -1.0110474, 3.375, -0.0977173, 3.375, -1.1832061, 3.375, 1.4580153, 3.375, -6.3740458
0.3978529, -0.0135958, 3.38175, 0.0456543, 3.38175, -1.0109863, 3.38175, -0.0986938, 3.38175, -1.221374, 3.38175, 0.8778626, 3.38175, -6.6412215
0.3986471, -0.0119173, 3.3885, 0.0449829, 3.3885, -1.0084229, 3.3885, -0.0953979, 3.3885, -1.091603, 3.3885, 0.4351145, 3.3885, -6.6870227
0.3994412, -0.012253, 3.39525, 0.0539551, 3.39525, -1.0064697, 3.39525, -0.0940552, 3.39525, -0.9007633, 3.39525, 0.0458015, 3.39525, -6.6946564
0.4002353, -0.0112459, 3.402, 0.0582886, 3.402, -1.0084839, 3.402, -0.0973511, 3.402, -0.9541985, 3.402, -0.1603053, 3.402, -6.519084
0.4010294, -0.0045319, 3.40875, 0.0594482, 3.40875, -1.0093994, 3.40875, -0.0977173, 3.40875, -0.9847328, 3.40875, 0.0916031, 3.40875, -6.4885497
0.4018235, -0.0045319, 3.4155, 0.065918, 3.4155, -1.0075073, 3.4155, -0.1047974, 3.4155, -1.0687023, 3.4155, 0.1984733, 3.4155, -6.3816795
0.4026176, -0.0048676, 3.42225, 0.0759888, 3.42225, -1.0060425, 3.42225, -0.1082153, 3.42225, -0.9312977, 3.42225, 0.2442748, 3.42225, -6.1908398
0.4034118, -0.005539, 3.429, 0.0768433, 3.429, -1.0074463, 3.429, -0.1090698, 3.429, -0.648855, 3.429, 1.1145039, 3.429, -6.1755724
0.4042059, -0.0092317, 3.43575, 0.0786743, 3.43575, -1.0103149, 3.43575, -0.1152344, 3.43575, -0.6335878, 3.43575, 2.1526718, 3.43575, -5.961832
0.405, -0.0102388, 3.4425, 0.0715332, 3.4425, -1.0137939, 3.4425, -0.1108398, 3.4425, -0.6030535, 3.4425, 3.0687022, 3.4425, -5.740458
0.4057941, -0.012253, 3.44925, 0.0626221, 3.44925, -1.0084229, 3.44925, -0.1088257, 3.44925, -0.648855, 3.44925, 3.3969467, 3.44925, -5.7251906
0.4065882, -0.0149386, 3.456, 0.0552368, 3.456, -1.0116577, 3.456, -0.1080933, 3.456, -0.4274809, 3.456, 3.1832061, 3.456, -5.6946564
0.4073824, -0.0149386, 3.46275, 0.0523682, 3.46275, -1.0098877, 3.46275, -0.1098022, 3.46275, -0.4885496, 3.46275, 2.8167939, 3.46275, -5.6412215
0.4081765, -0.0196384, 3.4695, 0.0509644, 3.4695, -1.0089722, 3.4695, -0.1102295, 3.4695, -0.5038168, 3.4695, 2.5572519, 3.4695, -5.7251906
0.4089706, -0.0191348, 3.47625, 0.0505981, 3.47625, -1.0063477, 3.47625, -0.1049805, 3.47625, -0.5725191, 3.47625, 2.2824428, 3.47625, -5.480916
0.4097647, -0.0194705, 3.483, 0.0491943, 3.483, -1.0092773, 3.483, -0.1015625, 3.483, -0.4961832, 3.483, 1.9389313, 3.483, -5.5648856
0.4105588, -0.0236667, 3.48975, 0.0499878, 3.48975, -1.0092773, 3.48975, -0.0975342, 3.48975, -0.4122137, 3.48975, 1.778626, 3.48975, -5.7022901
0.4113529, -0.0256809, 3.4965, 0.0491333, 3.4965, -1.0100098, 3.4965, -0.0941162, 3.4965, -0.4427481, 3.4965, 1.7251909, 3.4965, -5.778626
0.4121471, -0.0270237, 3.50325, 0.0527344, 3.50325, -1.0067749, 3.50325, -0.0939331, 3.50325, -0.5419847, 3.50325, 1.6183206, 3.50325, -5.519084
0.4129412, -0.0281987, 3.51, 0.0531616, 3.51, -1.0045166, 3.51, -0.09198, 3.51, -0.6793893, 3.51, 1.5267175, 3.51, -5.6030536
0.4137353, -0.0275273, 3.51675, 0.0551758, 3.51675, -1.0031738, 3.51675, -0.0840454, 3.51675, -0.870229, 3.51675, 1.4427481, 3.51675, -5.6259542
0.4145294, -0.0223239, 3.5235, 0.0548706, 3.5235, -1.0012817, 3.5235, -0.0834961, 3.5235, -1.1450381, 3.5235, 1.389313, 3.5235, -5.6488547
0.4153235, -0.0179599, 3.53025, 0.0530396, 3.53025, -1.0018921, 3.53025, -0.0848999, 3.53025, -1.3358779, 3.53025, 1.221374, 3.53025, -5.7251906
0.4161176, -0.0142672, 3.537, 0.0537109, 3.537, -1.0021973, 3.537, -0.0869141, 3.537, -1.7022901, 3.537, 1.1374046, 3.537, -5.7557254
0.4169118, -0.0132601, 3.54375, 0.0507812, 3.54375, -1.0011597, 3.54375, -0.0870361, 3.54375, -1.8167939, 3.54375, 1.0687023, 3.54375, -5.7480917
0.4177059, -0.0137636, 3.5505, 0.0516968, 3.5505, -1.0037231, 3.5505, -0.0878296, 3.5505, -2.0305343, 3.5505, 0.9465649, 3.5505, -5.8473282
0.4185, -0.0127565, 3.55725, 0.0441284, 3.55725, -1.0013428, 3.55725, -0.0908813, 3.55725, -2.2137403, 3.55725, 0.961832, 3.55725, -5.8702292
0.4192941, -0.012253, 3.564, 0.0400391, 3.564, -1.0021362, 3.564, -0.0913696, 3.564, -2.5496182, 3.564, 0.5954198, 3.564, -6.0305343
0.4200882, -0.0082246, 3.57075, 0.0418091, 3.57075, -1.0030518, 3.57075, -0.0949097, 3.57075, -2.5801528, 3.57075, 0.1374046, 3.57075, -6.1068702
0.4208824, -0.008896, 3.5775, 0.0454102, 3.5775, -1.0013428, 3.5775, -0.0944824, 3.5775, -2.7633588, 3.5775, -0.3969466, 3.5775, -6.3129773
0.4216765, -0.0068818, 3.58425, 0.0454712, 3.58425, -0.9985962, 3.58425, -0.0942993, 3.58425, -2.9847329, 3.58425, -0.3206107, 3.58425, -6.3282442
0.4224706, -0.008896, 3.591, 0.0477295, 3.591, -0.9966431, 3.591, -0.093689, 3.591, -3.1145039, 3.591, -0.7633588, 3.591, -6.3587785
0.4232647, -0.0179599, 3.59775, 0.0492554, 3.59775, -0.9957275, 3.59775, -0.0913086, 3.59775, -3.2748091, 3.59775, -1.1145039, 3.59775, -6.3816795
0.4240588, -0.0193027, 3.6045, 0.0497437, 3.6045, -0.9984131, 3.6045, -0.0980225, 3.6045, -3.3358779, 3.6045, -1.5496184, 3.6045, -6.5877862
0.4248529, -0.018967, 3.61125, 0.0499878, 3.61125, -0.9944458, 3.61125, -0.0949097, 3.61125, -3.4656489, 3.61125, -1.8091604, 3.61125, -6.7633586
0.4256471, -0.0182956, 3.618, 0.0510864, 3.618, -0.9962769, 3.618, -0.0973511, 3.618, -4.0610685, 3.618, -1.9923664, 3.618, -6.9236641
0.4264412, -0.0125887, 3.62475, 0.0460815, 3.62475, -0.9987183, 3.62475, -0.0950928, 3.62475, -4.1755724, 3.62475, -2.1908398, 3.62475, -7
0.4272353, -0.0139315, 3.6315, 0.0458984, 3.6315, -1.0015259, 3.6315, -0.0950317, 3.6315, -4.5038166, 3.6315, -2.5496182, 3.6315, -7.1679387
0.4280294, -0.0209812, 3.63825, 0.0499878, 3.63825, -1.0064697, 3.63825, -0.0944214, 3.63825, -4.6488547, 3.63825, -2.870229, 3.63825, -7.1984735
0.4288235, -0.0206455, 3.645, 0.0517578, 3.645, -1.0065918, 3.645, -0.0996094, 3.645, -5.0076337, 3.645, -2.9770992, 3.645, -7.3129773
0.4296176, -0.0176242, 3.65175, 0.0593262, 3.65175, -1.0055542, 3.65175, -0.1011963, 3.65175, -5.0610685, 3.65175, -2.9847329, 3.65175, -7.3129773
0.4304118, -0.017792, 3.6585, 0.0622559, 3.6585, -1.0061646, 3.6585, -0.1016235, 3.6585, -5.2824426, 3.6585, -2.7633588, 3.6585, -7.2671757
0.4312059, -0.0095674, 3.66525, 0.0643921, 3.66525, -1.0059204, 3.66525, -0.1029663, 3.66525, -5.6564884, 3.66525, -2.4274809, 3.66525, -7.3969464
0.432, -0.008896, 3.672, 0.0681763, 3.672, -1.0056152, 3.672, -0.107605, 3.672, -5.8549619, 3.672, -1.9160305, 3.672, -7.259542
0.4327941, -0.0050355, 3.67875, 0.0672607, 3.67875, -1.006958, 3.67875, -0.1101074, 3.67875, -6.1221375, 3.67875, -1.4274809, 3.67875, -7.038168
0.4335882, -0.0082246, 3.6855, 0.0692139, 3.6855, -1.0061035, 3.6855, -0.1153564, 3.6855, -6.3664122, 3.6855, -1.3587786, 3.6855, -6.9236641
0.4343824, -0.0115816, 3.69225, 0.0734253, 3.69225, -1.0040894, 3.69225, -0.1221924, 3.69225, -6.4885497, 3.69225, -1.3969465, 3.69225, -6.961832
0.4351765, -0.0102388, 3.699, 0.0772705, 3.699, -1.0059814, 3.699, -0.1262817, 3.699, -6.4122138, 3.699, -1.4503816, 3.699, -6.7862597
0.4359706, -0.0109102, 3.70575, 0.0773926, 3.70575, -1.0054932, 3.70575, -0.1318359, 3.70575, -6.4503818, 3.70575, -1.2290076, 3.70575, -6.8473282
0.4367647, -0.0102388, 3.7125, 0.0836182, 3.7125, -1.0110474, 3.7125, -0.1364746, 3.7125, -6.4198475, 3.7125, -1.129771, 3.7125, -6.6946564
0.4375588, -0.012253, 3.71925, 0.0836792, 3.71925, -1.0091553, 3.71925, -0.1432495, 3.71925, -6.0763359, 3.71925, -1.1145039, 3.71925, -6.7709923
0.4383529, -0.0112459, 3.726, 0.0847778, 3.726, -1.0040894, 3.726, -0.1491089, 3.726, -6.0687022, 3.726, -1.1221374, 3.726, -6.6183205
0.4391471, -0.0104067, 3.73275, 0.0890503, 3.73275, -0.9979248, 3.73275, -0.1524658, 3.73275, -5.5572519, 3.73275, -0.8320611, 3.73275, -6.5572519
0.4399412, -0.0142672, 3.7395, 0.0895996, 3.7395, -0.9985962, 3.7395, -0.15448, 3.7395, -5.3587785, 3.7395, -0.4580153, 3.7395, -6.2824426
0.4407353, -0.0169528, 3.74625, 0.0881348, 3.74625, -0.9951782, 3.74625, -0.1532593, 3.74625, -4.8320613, 3.74625, 0.2748092, 3.74625, -6.0152674
0.4415294, -0.014435, 3.753, 0.0829468, 3.753, -0.9974976, 3.753, -0.1530762, 3.753, -4.7251906, 3.753, 0.610687, 3.753, -6.0076337
0.4423235, -0.01561, 3.75975, 0.0773315, 3.75975, -0.9941406, 3.75975, -0.1484375, 3.75975, -4.480916, 3.75975, 0.6717557, 3.75975, -5.8015265
0.4431176, -0.0193027, 3.7665, 0.0720825, 3.7665, -0.9985962, 3.7665, -0.1463013, 3.7665, -3.9007633, 3.7665, 0.5877863, 3.7665, -5.7251906
0.4439118, -0.0199741, 3.77325, 0.0721436, 3.77325, -1.006897, 3.77325, -0.142395, 3.77325, -3.4656489, 3.77325, 0.3587786, 3.77325, -5.6870227
0.4447059, -0.0196384, 3.78, 0.0705566, 3.78, -1.0112305, 3.78, -0.1433105, 3.78, -3.2748091, 3.78, 0.2671756, 3.78, -5.7862597
0.4455, -0.0206455, 3.78675, 0.0747681, 3.78675, -1.0109253, 3.78675, -0.1398315, 3.78675, -2.9847329, 3.78675, 0.1450382, 3.78675, -5.519084
0.4462941, -0.0216526, 3.7935, 0.0769653, 3.7935, -1.0100708, 3.7935, -0.1387939, 3.7935, -2.9389312, 3.7935, 0.2290076, 3.7935, -5.5648856
0.4470882, -0.0216526, 3.80025, 0.0789795, 3.80025, -1.0090332, 3.80025, -0.1376953, 3.80025, -2.8015268, 3.80025, 0.5267175, 3.80025, -5.3053436
0.4478824, -0.0182956, 3.807, 0.0871582, 3.807, -1.0089111, 3.807, -0.1376343, 3.807, -2.7709923, 3.807, 0.7328244, 3.807, -5.3740458
0.4486765, -0.0115816, 3.81375, 0.0865479, 3.81375, -1.0062256, 3.81375, -0.1386108, 3.81375, -2.5954199, 3.81375, 1.2366412, 3.81375, -5.2900763
0.4494706, -0.0102388, 3.8205, 0.0861816, 3.8205, -1.0048218, 3.8205, -0.1351929, 3.8205, -2.6641221, 3.8205, 1.5954199, 3.8205, -4.8702292
0.4502647, -0.0109102, 3.82725, 0.0828857, 3.82725, -1.0045776, 3.82725, -0.1314087, 3.82725, -2.6030533, 3.82725, 1.8625954, 3.82725, -4.740458
0.4510588, -0.0043641, 3.834, 0.0775757, 3.834, -1.003479, 3.834, -0.1317749, 3.834, -2.4732823, 3.834, 1.9236641, 3.834, -4.8549619
0.4518529, -0.0001678, 3.84075, 0.0720825, 3.84075, -1.006958, 3.84075, -0.1311035, 3.84075, -2.5267177, 3.84075, 1.5419847, 3.84075, -4.5877862
0.4526471, 0.0005035, 3.8475, 0.0698853, 3.8475, -1.0059204, 3.8475, -0.1313477, 3.8475, -2.6259542, 3.8475, 1.1374046, 3.8475, -4.8244276
0.4534412, -0.0028534, 3.85425, 0.0632935, 3.85425, -1.0067139, 3.85425, -0.1271362, 3.85425, -2.4045801, 3.85425, 0.4198473, 3.85425, -5.0687022
0.4542353, -0.0016785, 3.861, 0.0637817, 3.861, -1.0007324, 3.861, -0.130127, 3.861, -2.4885497, 3.861, -0.351145, 3.861, -5.0076337
0.4550294, -0.0063783, 3.86775, 0.0689697, 3.86775, -0.9990234, 3.86775, -0.1278687, 3.86775, -2.7633588, 3.86775, -0.908397, 3.86775, -5.1221375
0.4558235, -0.008896, 3.8745, 0.0703735, 3.8745, -0.9995117, 3.8745, -0.1282959, 3.8745, -2.6259542, 3.8745, -1.1374046, 3.8745, -5.3893127
0.4566176, -0.0095674, 3.88125, 0.069458, 3.88125, -0.9945679, 3.88125, -0.1260376, 3.88125, -2.6793892, 3.88125, -1.0687023, 3.88125, -5.3435116
0.4574118, -0.0147707, 3.888, 0.0725098, 3.888, -0.9908447, 3.888, -0.1276245, 3.888, -2.8244274, 3.888, -1.2442749, 3.888, -5.3816795
0.4582059, -0.011078, 3.89475, 0.0732422, 3.89475, -0.9906006, 3.89475, -0.1270142, 3.89475, -2.9770992, 3.89475, -1.4351145, 3.89475, -5.1068702
0.459, -0.0184634, 3.9015, 0.0714111, 3.9015, -0.9915161, 3.9015, -0.1296387, 3.9015, -3.1984732, 3.9015, -1.129771, 3.9015, -5.3816795
0.4597941, -0.0179599, 3.90825, 0.0688477, 3.90825, -0.9963989, 3.90825, -0.1271973, 3.90825, -3.4045801, 3.90825, -1.1145039, 3.90825, -5.3053436
0.4605882, -0.0159457, 3.915, 0.0686035, 3.915, -0.9946899, 3.915, -0.124939, 3.915, -3.7557251, 3.915, -0.9007633, 3.915, -5.4732823
0.4613824, -0.0218204, 3.92175, 0.0678711, 3.92175, -0.9981689, 3.92175, -0.1292114, 3.92175, -3.9465649, 3.92175, -1.1984733, 3.92175, -5.4580154
0.4621765, -0.0229953, 3.9285, 0.0652466, 3.9285, -1.0004883, 3.9285, -0.1306763, 3.9285, -4.1450381, 3.9285, -1.2748091, 3.9285, -5.5572519
0.4629706, -0.0213169, 3.93525, 0.067749, 3.93525, -1.0061035, 3.93525, -0.1275635, 3.93525, -4.3816795, 3.93525, -1.2824427, 3.93525, -5.6564884
0.4637647, -0.0179599, 3.942, 0.0687256, 3.942, -1.0072632, 3.942, -0.1311646, 3.942, -4.4656487, 3.942, -1.6641221, 3.942, -5.6488547
0.4645588, -0.0172885, 3.94875, 0.0684204, 3.94875, -1.005188, 3.94875, -0.1348267, 3.94875, -4.5343513, 3.94875, -1.8931298, 3.94875, -5.6488547
0.4653529, -0.0172885, 3.9555, 0.0726929, 3.9555, -1.0077515, 3.9555, -0.1358643, 3.9555, -4.6488547, 3.9555, -2.0839694, 3.9555, -5.5954199
0.4661471, -0.014435, 3.96225, 0.0794678, 3.96225, -1.0087891, 3.96225, -0.1420898, 3.96225, -4.6488547, 3.96225, -2.2137403, 3.96225, -5.6488547
0.4669412, -0.0132601, 3.969, 0.0819702, 3.969, -1.0074463, 3.969, -0.1474609, 3.969, -4.961832, 3.969, -2.1603053, 3.969, -5.6412215
0.4677353, -0.0102388, 3.97575, 0.0829468, 3.97575, -1.0088501, 3.97575, -0.1483154, 3.97575, -4.9847326, 3.97575, -2.3740458, 3.97575, -5.6717558
0.4685294, -0.0105745, 3.9825, 0.088562, 3.9825, -1.0120239, 3.9825, -0.1525269, 3.9825, -4.7022901, 3.9825, -2.351145, 3.9825, -5.4503818
0.4693235, -0.0102388, 3.98925, 0.0888062, 3.98925, -1.0106812, 3.98925, -0.156189, 3.98925, -4.3893127, 3.98925, -2.0534351, 3.98925, -5.4580154
0.4701176, -0.0065461, 3.996, 0.0897827, 3.996, -1.0068359, 3.996, -0.1584473, 3.996, -4.221374, 3.996, -1.8931298, 3.996, -5.2366414
0.4709118, -0.0087282, 4.00275, 0.0919189, 4.00275, -1.003479, 4.00275, -0.1608276, 4.00275, -3.9694657, 4.00275, -1.648855, 4.00275, -5.1832061
0.4717059, -0.0105745, 4.0095, 0.0909424, 4.0095, -1.0039673, 4.0095, -0.1660156, 4.0095, -3.8778627, 4.0095, -1.351145, 4.0095, -5.1908398
0.4725, -0.0162814, 4.01625, 0.0898438, 4.01625, -1.0049438, 4.01625, -0.1688843, 4.01625, -3.4427481, 4.01625, -1.1450381, 4.01625, -5.0610685
0.4732941, -0.0199741, 4.023, 0.0932617, 4.023, -1.0020752, 4.023, -0.1694336, 4.023, -3.0610688, 4.023, -1.091603, 4.023, -4.9694657
0.4740882, -0.0263523, 4.02975, 0.0944824, 4.02975, -0.9972534, 4.02975, -0.1712646, 4.02975, -2.8625953, 4.02975, -0.7633588, 4.02975, -4.9694657
0.4748824, -0.0283665, 4.0365, 0.0916748, 4.0365, -0.9978027, 4.0365, -0.1724854, 4.0365, -2.7557251, 4.0365, -0.5725191, 4.0365, -4.7938933
0.4756765, -0.0270237, 4.04325, 0.0917358, 4.04325, -0.9976807, 4.04325, -0.1759033, 4.04325, -2.3740458, 4.04325, -0.6183206, 4.04325, -4.6183205
0.4764706, -0.0250095, 4.05, 0.0930176, 4.05, -0.9971924, 4.05, -0.1760254, 4.05, -2.0076337, 4.05, -0.6259542, 4.05, -4.5877862
0.4772647, -0.0263523, 4.05675, 0.0900269, 4.05675, -1.0009155, 4.05675, -0.1735229, 4.05675, -1.5114504, 4.05675, -0.519084, 4.05675, -4.4045801
0.4780588, -0.0250095, 4.0635, 0.0880127, 4.0635, -0.9975586, 4.0635, -0.1721802, 4.0635, -1.1145039, 4.0635, -0.351145, 4.0635, -4.3206105
0.4788529, -0.0186313, 4.07025, 0.0900879, 4.07025, -0.9984131, 4.07025, -0.1745605, 4.07025, -0.7099237, 4.07025, -0.6183206, 4.07025, -4.2977099
0.4796471, -0.0164492, 4.077, 0.0841675, 4.077, -0.9996948, 4.077, -0.171875, 4.077, -0.5801527, 4.077, -0.8015267, 4.077, -4.2366414
0.4804412, -0.0184634, 4.08375, 0.0860596, 4.08375, -0.9995728, 4.08375, -0.168396, 4.08375, -0.2900763, 4.08375, -1.038168, 4.08375, -4.1068702
0.4812353, -0.017792, 4.0905, 0.0875854, 4.0905, -1.0010376, 4.0905, -0.1655273, 4.0905, 0.0076336, 4.0905, -1.3969465, 4.0905, -4.1297708
0.4820294, -0.0102388, 4.09725, 0.0863647, 4.09725, -0.9994507, 4.09725, -0.1641846, 4.09725, 0.1450382, 4.09725, -1.5725191, 4.09725, -4.1297708
0.4828235, -0.0092317, 4.104, 0.0828857, 4.104, -1.0024414, 4.104, -0.1616821, 4.104, 0.2366412, 4.104, -1.3969465, 4.104, -3.8778627
0.4836176, -0.0162814, 4.11075, 0.0841675, 4.11075, -1.0057373, 4.11075, -0.1571655, 4.11075, 0.5343512, 4.11075, -1.129771, 4.11075, -3.6793892
0.4844118, -0.0139315, 4.1175, 0.079895, 4.1175, -1.0080566, 4.1175, -0.1539307, 4.1175, 0.4732825, 4.1175, -1.0076336, 4.1175, -3.8473282
0.4852059, -0.0099031, 4.12425, 0.079895, 4.12425, -1.0107422, 4.12425, -0.1518555, 4.12425, 0.3358779, 4.12425, -1.1603054, 4.12425, -3.9312978
0.486, -0.0142672, 4.131, 0.0787354, 4.131, -1.0103149, 4.131, -0.151123, 4.131, 0.2442748, 4.131, -1.0687023, 4.131, -3.9847329
0.4867941, -0.0082246, 4.13775, 0.0807495, 4.13775, -1.0079956, 4.13775, -0.1501465, 4.13775, 0.4122137, 4.13775, -1.4198474, 4.13775, -3.7633588
0.4875882, -0.0043641, 4.1445, 0.0800781, 4.1445, -1.0055542, 4.1445, -0.1477051, 4.1445, 0.3816794, 4.1445, -1.6946565, 4.1445, -3.9465649
0.4883824, -0.0124208, 4.15125, 0.0786743, 4.15125, -1.0027466, 4.15125, -0.142334, 4.15125, 0.1832061, 4.15125, -1.8015267, 4.15125, -4
0.4891765, -0.0125887, 4.158, 0.0753784, 4.158, -1.0040894, 4.158, -0.1443481, 4.158, 0.1374046, 4.158, -2.2671757, 4.158, -3.9541984
0.4899706, -0.0119173, 4.16475, 0.071106, 4.16475, -1.0029907, 4.16475, -0.145813, 4.16475, -0.0610687, 4.16475, -2.6717558, 4.16475, -4.1755724
0.4907647, -0.0119173, 4.1715, 0.0675659, 4.1715, -1.0001221, 4.1715, -0.1376953, 4.1715, -0.3053435, 4.1715, -3.351145, 4.1715, -4.3435116
0.4915588, -0.0135958, 4.17825, 0.069458, 4.17825, -0.9985352, 4.17825, -0.1382446, 4.17825, -0.4961832, 4.17825, -4.038168, 4.17825, -4.4732823
0.4923529, -0.0109102, 4.185, 0.0682983, 4.185, -0.9980469, 4.185, -0.140686, 4.185, -0.5419847, 4.185, -4.5725193, 4.185, -4.4656487
0.4931471, -0.0142672, 4.19175, 0.0723267, 4.19175, -0.9935303, 4.19175, -0.1383667, 4.19175, -0.7480916, 4.19175, -4.6641221, 4.19175, -4.4732823
0.4939412, -0.023331, 4.1985, 0.0748291, 4.1985, -0.9894409, 4.1985, -0.1387329, 4.1985, -0.9160305, 4.1985, -5.2519083, 4.1985, -4.7099237
0.4947353, -0.0263523, 4.20525, 0.0739746, 4.20525, -0.9870605, 4.20525, -0.1396484, 4.20525, -1.221374, 4.20525, -5.4427481, 4.20525, -4.7709923
0.4955294, -0.0229953, 4.212, 0.0784912, 4.212, -0.9891968, 4.212, -0.1432495, 4.212, -1.4656489, 4.212, -5.6183205, 4.212, -4.4732823
0.4963235, -0.0243381, 4.21875, 0.0776978, 4.21875, -0.9890137, 4.21875, -0.1467896, 4.21875, -1.7480916, 4.21875, -5.7480917, 4.21875, -4.7557254
0.4971176, -0.0253452, 4.2255, 0.0797729, 4.2255, -0.994751, 4.2255, -0.1501465, 4.2255, -1.8778626, 4.2255, -5.6488547, 4.2255, -4.5725193
0.4979118, -0.0219883, 4.23225, 0.0767212, 4.23225, -0.9977417, 4.23225, -0.1521606, 4.23225, -2.0610688, 4.23225, -5.6106873, 4.23225, -4.7480917
0.4987059, -0.0162814, 4.239, 0.0788574, 4.239, -1.0036011, 4.239, -0.1536255, 4.239, -2.1145039, 4.239, -5.1374044, 4.239, -4.5725193
0.4995, -0.0115816, 4.24575, 0.0819092, 4.24575, -1.0065308, 4.24575, -0.1571045, 4.24575, -2.2061069, 4.24575, -5.4885497, 4.24575, -4.6106873
0.5002941, -0.0125887, 4.2525, 0.0866699, 4.2525, -1.0045776, 4.2525, -0.1575928, 4.2525, -2.0534351, 4.2525, -5.519084, 4.2525, -4.6793895
0.5010882, -0.0082246, 4.25925, 0.0899658, 4.25925, -1.0068359, 4.25925, -0.1643677, 4.25925, -2.0763359, 4.25925, -5.1374044, 4.25925, -4.7328243
0.5018824, -0.002182, 4.266, 0.0944214, 4.266, -1.0073853, 4.266, -0.1665649, 4.266, -2.0076337, 4.266, -4.5267177, 4.266, -4.6335878
0.5026765, -0.0010071, 4.27275, 0.0960693, 4.27275, -1.0075684, 4.27275, -0.1699829, 4.27275, -1.9389313, 4.27275, -4.1374044, 4.27275, -4.4732823
0.5034706, -0.0001678, 4.2795, 0.0942383, 4.2795, -1.0080566, 4.2795, -0.1717529, 4.2795, -2.1450381, 4.2795, -3.5648854, 4.2795, -4.2671757
0.5042647, -0.0005035, 4.28625, 0.0955811, 4.28625, -1.0065308, 4.28625, -0.1723633, 4.28625, -2.0152671, 4.28625, -2.6564887, 4.28625, -4.3511453
0.5050588, 0.0001678, 4.293, 0.0948486, 4.293, -1.0041504, 4.293, -0.1721191, 4.293, -1.6335878, 4.293, -2.2442749, 4.293, -4.0763359
0.5058529, -0.0006714, 4.29975, 0.0900879, 4.29975, -1.0063477, 4.29975, -0.1735229, 4.29975, -1.4656489, 4.29975, -1.7328244, 4.29975, -3.961832
0.5066471, -0.0031891, 4.3065, 0.0866089, 4.3065, -1.0077515, 4.3065, -0.1739502, 4.3065, -1.2824427, 4.3065, -1.5038168, 4.3065, -4.1068702
0.5074412, -0.0025177, 4.31325, 0.086792, 4.31325, -1.0056763, 4.31325, -0.1733398, 4.31325, -1.1374046, 4.31325, -1.519084, 4.31325, -3.9541984
0.5082353, -0.0008392, 4.32, 0.0888062, 4.32, -1.0031738, 4.32, -0.1773682, 4.32, -0.9465649, 4.32, -1.6793894, 4.32, -3.8778627
0.5090294, -0.0038605, 4.32675, 0.0926514, 4.32675, -0.9994507, 4.32675, -0.178772, 4.32675, -0.7557252, 4.32675, -1.5801526, 4.32675, -3.6641221
0.5098235, -0.0112459, 4.3335, 0.0983276, 4.3335, -1, 4.3335, -0.1779175, 4.3335, -0.5267175, 4.3335, -0.870229, 4.3335, -3.5572519
0.5106176, -0.0129244, 4.34025, 0.1012573, 4.34025, -1, 4.34025, -0.177124, 4.34025, -0.5038168, 4.34025, -0.4274809, 4.34025, -3.3740458
0.5114118, -0.0162814, 4.347, 0.0962524, 4.347, -0.9972534, 4.347, -0.1763916, 4.347, -0.4274809, 4.347, -0.1908397, 4.347, -3.4427481
0.5122059, -0.0135958, 4.35375, 0.0950928, 4.35375, -0.9923096, 4.35375, -0.175415, 4.35375, -0.351145, 4.35375, -0.0534351, 4.35375, -3.1755726
0.513, -0.018967, 4.3605, 0.0963745, 4.3605, -0.9942017, 4.3605, -0.1739502, 4.3605, -0.1145038, 4.3605, 0.351145, 4.3605, -2.9541984
0.5137941, -0.0196384, 4.36725, 0.09375, 4.36725, -0.9946899, 4.36725, -0.1679688, 4.36725, -0.0839695, 4.36725, 0.7557252, 4.36725, -2.9312978
0.5145882, -0.0159457, 4.374, 0.0891724, 4.374, -0.9989624, 4.374, -0.1663818, 4.374, -0.1221374, 4.374, 0.7633588, 4.374, -2.9312978
0.5153824, -0.0139315, 4.38075, 0.0876465, 4.38075, -1.0026855, 4.38075, -0.1658325, 4.38075, -0.0229008, 4.38075, 0.870229, 4.38075, -2.7862597
0.5161765, -0.0132601, 4.3875, 0.0861816, 4.3875, -1.0039673, 4.3875, -0.1656494, 4.3875, 0.0076336, 4.3875, 0.4580153, 4.3875, -2.7862597
0.5169706, -0.01561, 4.39425, 0.0844116, 4.39425, -1.0065918, 4.39425, -0.1642456, 4.39425, 0.0610687, 4.39425, 0.4351145, 4.39425, -3.0458016
0.5177647, -0.0169528, 4.401, 0.0835571, 4.401, -1.0050049, 4.401, -0.1659546, 4.401, 0.0916031, 4.401, 0.3129771, 4.401, -2.9160306
0.5185588, -0.0139315, 4.40775, 0.0842285, 4.40775, -1.0070801, 4.40775, -0.1674805, 4.40775, 0.0839695, 4.40775, 0.4656489, 4.40775, -2.8015268
0.5193529, -0.008896, 4.4145, 0.0872192, 4.4145, -1.005249, 4.4145, -0.1694946, 4.4145, 0.1374046, 4.4145, 0.5343512, 4.4145, -2.7633588
0.5201471, -0.0127565, 4.42125, 0.0897217, 4.42125, -1.008728, 4.42125, -0.1705933, 4.42125, 0.3740458, 4.42125, 0.8625954, 4.42125, -2.7862597
0.5209412, -0.01561, 4.428, 0.0888062, 4.428, -1.0091553, 4.428, -0.1716919, 4.428, 0.4885496, 4.428, 1.2366412, 4.428, -2.7022901
0.5217353, -0.0149386, 4.43475, 0.0921631, 4.43475, -1.007019, 4.43475, -0.1747437, 4.43475, 0.4122137, 4.43475, 1.6717557, 4.43475, -2.4656489
0.5225294, -0.0151064, 4.4415, 0.0917358, 4.4415, -1.0028076, 4.4415, -0.1773682, 4.4415, 0.5343512, 4.4415, 2.0458016, 4.4415, -2.4045801
0.5233235, -0.0186313, 4.44825, 0.0901489, 4.44825, -1.007019, 4.44825, -0.1763306, 4.44825, 0.8015267, 4.44825, 2.740458, 4.44825, -2.1526718
0.5241176, -0.0223239, 4.455, 0.090332, 4.455, -1.0076294, 4.455, -0.1767578, 4.455, 0.9007633, 4.455, 3.1984732, 4.455, -2.259542
0.5249118, -0.0236667, 4.46175, 0.0876465, 4.46175, -1.0047607, 4.46175, -0.1752319, 4.46175, 1.0763359, 4.46175, 3.5877862, 4.46175, -2.3206108
0.5257059, -0.0229953, 4.4685, 0.0844116, 4.4685, -1.0046387, 4.4685, -0.1792603, 4.4685, 1.2442749, 4.4685, 3.5267177, 4.4685, -2.2900763
0.5265, -0.0256809, 4.47525, 0.0838623, 4.47525, -1.0014038, 4.47525, -0.1735229, 4.47525, 1.4351145, 4.47525, 3.4198472, 4.47525, -2.0992367
0.5272941, -0.0258488, 4.482, 0.0814819, 4.482, -0.9998169, 4.482, -0.1784058, 4.482, 1.6259542, 4.482, 2.9923663, 4.482, -2.3740458
0.5280882, -0.0240024, 4.48875, 0.0829468, 4.48875, -0.994812, 4.48875, -0.1763306, 4.48875, 1.7557251, 4.48875, 2.8167939, 4.48875, -2.2748091
0.5288824, -0.021149, 4.4955, 0.0825195, 4.4955, -0.9920654, 4.4955, -0.1747437, 4.4955, 1.7251909, 4.4955, 2.7099237, 4.4955, -2.2977099
0.5296765, -0.018967, 4.50225, 0.0839844, 4.50225, -0.9941406, 4.50225, -0.1741333, 4.50225, 1.8167939, 4.50225, 2.5725191, 4.50225, -2.389313
0.5304706, -0.0209812, 4.509, 0.0802612, 4.509, -0.9979248, 4.509, -0.1719971, 4.509, 1.9923664, 4.509, 2.3664122, 4.509, -2.351145
0.5312647, -0.0226596, 4.51575, 0.0837402, 4.51575, -0.9966431, 4.51575, -0.1721802, 4.51575, 2.1221373, 4.51575, 2.259542, 4.51575, -2.1755726
0.5320588, -0.0216526, 4.5225, 0.0814209, 4.5225, -1.0032349, 4.5225, -0.171936, 4.5225, 2.2290077, 4.5225, 2.3969467, 4.5225, -2.3053436
0.5328529, -0.0223239, 4.52925, 0.0820312, 4.52925, -1.0055542, 4.52925, -0.1703491, 4.52925, 2.2671757, 4.52925, 2.5496182, 4.52925, -2.2290077
0.5336471, -0.0164492, 4.536, 0.0836182, 4.536, -1.0085449, 4.536, -0.1707153, 4.536, 2.4122138, 4.536, 2.4732823, 4.536, -2.1450381
0.5344412, -0.0117494, 4.54275, 0.0831299, 4.54275, -1.0063477, 4.54275, -0.1677856, 4.54275, 2.6564887, 4.54275, 2.3587787, 4.54275, -2.1984732
0.5352353, -0.0065461, 4.5495, 0.0877686, 4.5495, -1.0065918, 4.5495, -0.1699219, 4.5495, 2.610687, 4.5495, 2.7709923, 4.5495, -2.2671757
0.5360294, -0.0068818, 4.55625, 0.0888062, 4.55625, -1.0036621, 4.55625, -0.1676025, 4.55625, 2.610687, 4.55625, 3.1984732, 4.55625, -2.2748091
0.5368235, -0.0109102, 4.563, 0.0883789, 4.563, -1.0020752, 4.563, -0.1672363, 4.563, 2.7557251, 4.563, 3.5343511, 4.563, -2.1526718
0.5376176, -0.012253, 4.56975, 0.085144, 4.56975, -1.0020142, 4.56975, -0.1699219, 4.56975, 2.8244274, 4.56975, 3.961832, 4.56975, -2.0458016
0.5384118, -0.0164492, 4.5765, 0.0819092, 4.5765, -1.0016479, 4.5765, -0.1639404, 4.5765, 2.7862597, 4.5765, 4.0229006, 4.5765, -1.9389313
0.5392059, -0.0157778, 4.58325, 0.0791626, 4.58325, -1.0014038, 4.58325, -0.163208, 4.58325, 2.7251909, 4.58325, 4.2442746, 4.58325, -2
0.54, -0.0162814, 4.59, 0.0795898, 4.59, -1.0012207, 4.59, -0.1663818, 4.59, 2.778626, 4.59, 4.0610685, 4.59, -1.9847329
0.5407941, -0.0182956, 4.59675, 0.0787354, 4.59675, -1.0003052, 4.59675, -0.166748, 4.59675, 2.8473282, 4.59675, 3.7251909, 4.59675, -1.9770992
0.5415882, -0.0172885, 4.6035, 0.0812988, 4.6035, -0.9977417, 4.6035, -0.1650391, 4.6035, 2.8931298, 4.6035, 3.7862597, 4.6035, -2.1603053
0.5423824, -0.0125887, 4.61025, 0.0831299, 4.61025, -0.9954224, 4.61025, -0.1640015, 4.61025, 2.9389312, 4.61025, 3.7709923, 4.61025, -2.1221373
0.5431765, -0.0082246, 4.617, 0.0809326, 4.617, -0.9941406, 4.617, -0.1661987, 4.617, 2.8854961, 4.617, 3.6717558, 4.617, -2.2442749
0.5439706, -0.0135958, 4.62375, 0.0774536, 4.62375, -0.9951782, 4.62375, -0.1621094, 4.62375, 2.9007633, 4.62375, 3.6335878, 4.62375, -2.3282442
0.5447647, -0.0159457, 4.6305, 0.0733032, 4.6305, -0.9985352, 4.6305, -0.1606445, 4.6305, 3.0534351, 4.6305, 3.480916, 4.6305, -2.1374047
0.5455588, -0.0162814, 4.63725, 0.0736084, 4.63725, -1.0003662, 4.63725, -0.1604614, 4.63725, 2.7862597, 4.63725, 3.2519083, 4.63725, -2.3206108
0.5463529, -0.01561, 4.644, 0.0726318, 4.644, -1.0003662, 4.644, -0.1602173, 4.644, 3.0152671, 4.644, 3.1679389, 4.644, -2.2137403
0.5471471, -0.0203098, 4.65075, 0.0742798, 4.65075, -1.0043945, 4.65075, -0.1599731, 4.65075, 2.9389312, 4.65075, 3.0687022, 4.65075, -2.3969467
0.5479412, -0.0206455, 4.6575, 0.0724487, 4.6575, -1.0029297, 4.6575, -0.1557007, 4.6575, 2.8091602, 4.6575, 2.9007633, 4.6575, -2.4045801
0.5487353, -0.0135958, 4.66425, 0.0753784, 4.66425, -1.0018921, 4.66425, -0.1564331, 4.66425, 2.9541984, 4.66425, 2.6564887, 4.66425, -2.3435113
0.5495294, -0.0075532, 4.671, 0.0757446, 4.671, -1.0057373, 4.671, -0.1567383, 4.671, 2.8549619, 4.671, 2.6259542, 4.671, -2.5038168
0.5503235, -0.0028534, 4.67775, 0.0755615, 4.67775, -1.0042114, 4.67775, -0.1552124, 4.67775, 2.8244274, 4.67775, 2.5725191, 4.67775, -2.519084
0.5511176, -0.0008392, 4.6845, 0.0727539, 4.6845, -1.0049438, 4.6845, -0.1519775, 4.6845, 2.7022901, 4.6845, 2.6870229, 4.6845, -2.5801528
0.5519118, 0.0001678, 4.69125, 0.0706177, 4.69125, -1.0026245, 4.69125, -0.15271, 4.69125, 2.5877862, 4.69125, 2.519084, 4.69125, -2.7099237
0.5527059, 0.0003357, 4.698, 0.0646362, 4.698, -1.0031128, 4.698, -0.149231, 4.698, 2.5496182, 4.698, 2.0152671, 4.698, -3.038168
0.5535, -0.0045319, 4.70475, 0.0678101, 4.70475, -1.0018311, 4.70475, -0.1481323, 4.70475, 2.1603053, 4.70475, 1.4045801, 4.70475, -3.0229008
0.5542941, -0.0052033, 4.7115, 0.0649414, 4.7115, -1.003479, 4.7115, -0.1444702, 4.7115, 2.1221373, 4.7115, 0.6335878, 4.7115, -3.1679389
0.5550882, -0.0045319, 4.71825, 0.0687866, 4.71825, -1.003418, 4.71825, -0.1430054, 4.71825, 1.961832, 4.71825, 0.2061069, 4.71825, -3.3435113
0.5558824, -0.0030213, 4.725, 0.0739746, 4.725, -1.0053101, 4.725, -0.145752, 4.725, 1.778626, 4.725, -0.2061069, 4.725, -3.4427481
0.5566765, -0.0068818, 4.73175, 0.0759277, 4.73175, -1.0043335, 4.73175, -0.1477661, 4.73175, 1.7099236, 4.73175, -0.7175573, 4.73175, -3.6717558
0.5574706, -0.0119173, 4.7385, 0.0758667, 4.7385, -1.0028076, 4.7385, -0.1546631, 4.7385, 1.6335878, 4.7385, -0.8091603, 4.7385, -3.6793892
0.5582647, -0.0135958, 4.74525, 0.0776367, 4.74525, -1.0042114, 4.74525, -0.15625, 4.74525, 1.4427481, 4.74525, -1.1221374, 4.74525, -3.5496182
0.5590588, -0.0196384, 4.752, 0.0774536, 4.752, -1.0056763, 4.752, -0.1550903, 4.752, 1.389313, 4.752, -0.9694657, 4.752, -3.7633588
0.5598529, -0.0243381, 4.75875, 0.0753784, 4.75875, -1.0039673, 4.75875, -0.1558838, 4.75875, 1.2519084, 4.75875, -1.2748091, 4.75875, -3.8167939
0.5606471, -0.0236667, 4.7655, 0.0799561, 4.7655, -1.0046997, 4.7655, -0.1559448, 4.7655, 1.3969465, 4.7655, -1.4732825, 4.7655, -3.908397
0.5614412, -0.0260166, 4.77225, 0.0778198, 4.77225, -1.0021362, 4.77225, -0.1582642, 4.77225, 1.4885496, 4.77225, -1.7099236, 4.77225, -3.908397
0.5622353, -0.0251774, 4.779, 0.0794678, 4.779, -0.9998169, 4.779, -0.163208, 4.779, 1.3740458, 4.779, -2.0992367, 4.779, -3.8549619
0.5630294, -0.0209812, 4.78575, 0.0838013, 4.78575, -1.0022583, 4.78575, -0.1635742, 4.78575, 1.3740458, 4.78575, -2.0839694, 4.78575, -3.8931298
0.5638235, -0.0263523, 4.7925, 0.0823975, 4.7925, -1.0018311, 4.7925, -0.1672363, 4.7925, 1.5038168, 4.7925, -1.8854961, 4.7925, -4.0763359
0.5646176, -0.0243381, 4.79925, 0.0861816, 4.79925, -1.0020752, 4.79925, -0.1654053, 4.79925, 1.3358779, 4.79925, -1.6412214, 4.79925, -3.9770992
0.5654118, -0.0226596, 4.806, 0.0877075, 4.806, -1.00354, 4.806, -0.1694946, 4.806, 1.5877863, 4.806, -1.4274809, 4.806, -3.7709923
0.5662059, -0.0193027, 4.81275, 0.0899048, 4.81275, -1.0057373, 4.81275, -0.1703491, 4.81275, 1.7633588, 4.81275, -1.3664122, 4.81275, -3.9007633
0.567, -0.0129244, 4.8195, 0.0866699, 4.8195, -1.0040283, 4.8195, -0.1707153, 4.8195, 1.7022901, 4.8195, -1.1221374, 4.8195, -3.8549619
0.5677941, -0.0105745, 4.82625, 0.0869141, 4.82625, -1.0040894, 4.82625, -0.1704712, 4.82625, 1.9465649, 4.82625, -0.6717557, 4.82625, -3.778626
0.5685882, -0.0068818, 4.833, 0.0835571, 4.833, -1.0040283, 4.833, -0.1703491, 4.833, 2.038168, 4.833, -0.3969466, 4.833, -3.740458
0.5693824, -0.0038605, 4.83975, 0.0844116, 4.83975, -1.0054321, 4.83975, -0.1710815, 4.83975, 1.9847329, 4.83975, -0.3358779, 4.83975, -3.7099237
0.5701765, -0.0028534, 4.8465, 0.0825806, 4.8465, -1.0057373, 4.8465, -0.1697998, 4.8465, 2.3435113, 4.8465, -0.3664122, 4.8465, -3.8244274
0.5709706, -0.0048676, 4.85325, 0.081543, 4.85325, -1.0019531, 4.85325, -0.1678467, 4.85325, 2.3740458, 4.85325, -0.3435115, 4.85325, -3.8320611
0.5717647, -0.0075532, 4.86, 0.0831299, 4.86, -1.00354, 4.86, -0.1620483, 4.86, 2.3969467, 4.86, -0.1984733, 4.86, -3.7022901
0.5725588, -0.0095674, 4.86675, 0.0805664, 4.86675, -1.0021973, 4.86675, -0.1587524, 4.86675, 2.389313, 4.86675, 0.0305344, 4.86675, -3.648855
0.5733529, -0.0085603, 4.8735, 0.0812378, 4.8735, -0.9989624, 4.8735, -0.1552124, 4.8735, 2.4732823, 4.8735, 0.2671756, 4.8735, -3.7480917
0.5741471, -0.0132601, 4.88025, 0.0749512, 4.88025, -1.0005493, 4.88025, -0.1536255, 4.88025, 2.3206108, 4.88025, 0.3282443, 4.88025, -3.8244274
0.5749412, -0.0149386, 4.887, 0.0801392, 4.887, -1.0036621, 4.887, -0.1531372, 4.887, 2.4580152, 4.887, 0.3129771, 4.887, -3.7709923
0.5757353, -0.0176242, 4.89375, 0.0776367, 4.89375, -1.00354, 4.89375, -0.1502686, 4.89375, 2.351145, 4.89375, 0.4045801, 4.89375, -3.8091602
0.5765294, -0.0213169, 4.9005, 0.0802002, 4.9005, -1.0021973, 4.9005, -0.1501465, 4.9005, 2.0458016, 4.9005, 0.4580153, 4.9005, -3.8396947
0.5773235, -0.023331, 4.90725, 0.0822754, 4.90725, -1.0015869, 4.90725, -0.1507568, 4.90725, 2.0229008, 4.90725, 0.6412213, 4.90725, -3.961832
0.5781176, -0.0216526, 4.914, 0.0794678, 4.914, -1.0004272, 4.914, -0.1503906, 4.914, 1.9465649, 4.914, 0.8167939, 4.914, -3.7480917
0.5789118, -0.0224918, 4.92075, 0.0797729, 4.92075, -0.9980469, 4.92075, -0.1502686, 4.92075, 1.9160305, 4.92075, 1.0458015, 4.92075, -3.8549619
0.5797059, -0.0196384, 4.9275, 0.0788574, 4.9275, -0.9970093, 4.9275, -0.1502075, 4.9275, 1.8396946, 4.9275, 1.221374, 4.9275, -3.778626
0.5805, -0.0216526, 4.93425, 0.0762329, 4.93425, -0.9979248, 4.93425, -0.1489868, 4.93425, 1.5572519, 4.93425, 0.9007633, 4.93425, -3.9160306
0.5812941, -0.0203098, 4.941, 0.0797119, 4.941, -1.0002441, 4.941, -0.1537476, 4.941, 1.5419847, 4.941, 0.6946565, 4.941, -3.8931298
0.5820882, -0.0130922, 4.94775, 0.0792847, 4.94775, -1.0023804, 4.94775, -0.1537476, 4.94775, 1.4656489, 4.94775, 0.5648855, 4.94775, -4.0305343
0.5828824, -0.0139315, 4.9545, 0.0797119, 4.9545, -0.9951782, 4.9545, -0.1465454, 4.9545, 1.480916, 4.9545, 0.0763359, 4.9545, -3.908397
0.5836765, -0.0137636, 4.96125, 0.078186, 4.96125, -0.9969482, 4.96125, -0.1490479, 4.96125, 1.3435115, 4.96125, 0.1068702, 4.96125, -3.9923663
0.5844706, -0.0102388, 4.968, 0.0831299, 4.968, -0.994812, 4.968, -0.151062, 4.968, 1.2748091, 4.968, -0.0610687, 4.968, -4.1450381
0.5852647, -0.0119173, 4.97475, 0.0852661, 4.97475, -0.9963379, 4.97475, -0.156189, 4.97475, 1.091603, 4.97475, -0.0992366, 4.97475, -4.0687022
0.5860588, -0.0099031, 4.9815, 0.0849609, 4.9815, -1.0009766, 4.9815, -0.1549683, 4.9815, 1.1679389, 4.9815, -0.0763359, 4.9815, -4.0534353
0.5868529, -0.0078889, 4.98825, 0.0830078, 4.98825, -0.9992676, 4.98825, -0.1534424, 4.98825, 1.2137405, 4.98825, 0.0687023, 4.98825, -3.9465649
0.5876471, -0.0162814, 4.995, 0.083374, 4.995, -1.0010376, 4.995, -0.1539307, 4.995, 1.0152671, 4.995, -0.1068702, 4.995, -3.9770992
0.5884412, -0.0176242, 5.00175, 0.0831299, 5.00175, -1.0021973, 5.00175, -0.15802, 5.00175, 0.961832, 5.00175, 0, 5.00175, -3.9541984
0.5892353, -0.0169528, 5.0085, 0.0830078, 5.0085, -1.0045166, 5.0085, -0.1584473, 5.0085, 0.8015267, 5.0085, -0.0458015, 5.0085, -3.9923663
0.5900294, -0.0152743, 5.01525, 0.0861816, 5.01525, -1.00177, 5.01525, -0.1558838, 5.01525, 1.0305344, 5.01525, 0.0534351, 5.01525, -3.9847329
0.5908235, -0.0193027, 5.022, 0.0852051, 5.022, -1.003418, 5.022, -0.1594849, 5.022, 1.0458015, 5.022, 0.1755725, 5.022, -4.0152674
0.5916176, -0.018967, 5.02875, 0.0864868, 5.02875, -1.0041504, 5.02875, -0.1584473, 5.02875, 1.0534351, 5.02875, 0.4045801, 5.02875, -3.8778627
0.5924118, -0.0179599, 5.0355, 0.0834961, 5.0355, -1.0018921, 5.0355, -0.157959, 5.0355, 0.9312977, 5.0355, 0.5343512, 5.0355, -3.8015268
0.5932059, -0.0169528, 5.04225, 0.086853, 5.04225, -1.0004272, 5.04225, -0.1608276, 5.04225, 1.129771, 5.04225, 0.3587786, 5.04225, -3.8320611
0.594, -0.0162814, 5.049, 0.0874023, 5.049, -0.9953613, 5.049, -0.1564331, 5.049, 1, 5.049, 0.3740458, 5.049, -3.7328243
0.5947941, -0.0125887, 5.05575, 0.0834351, 5.05575, -0.9985962, 5.05575, -0.1560669, 5.05575, 1.0229008, 5.05575, 0.2748092, 5.05575, -3.8473282
0.5955882, -0.0102388, 5.0625, 0.0836182, 5.0625, -1.0001221, 5.0625, -0.156189, 5.0625, 0.9465649, 5.0625, 0.389313, 5.0625, -3.7633588
0.5963824, -0.0151064, 5.06925, 0.0830078, 5.06925, -1.0014648, 5.06925, -0.1550903, 5.06925, 0.9541985, 5.06925, 0.5648855, 5.06925, -3.5496182
0.5971765, -0.0162814, 5.076, 0.0890503, 5.076, -1.0018921, 5.076, -0.1578979, 5.076, 1.0687023, 5.076, 0.4656489, 5.076, -3.908397
0.5979706, -0.0142672, 5.08275, 0.0894775, 5.08275, -1.0054932, 5.08275, -0.1609497, 5.08275, 1.259542, 5.08275, 0.3282443, 5.08275, -3.6641221
0.5987647, -0.011078, 5.0895, 0.0888062, 5.0895, -1.0036011, 5.0895, -0.1602783, 5.0895, 1.3206106, 5.0895, 0.519084, 5.0895, -3.4885497
0.5995588, -0.006714, 5.09625, 0.088562, 5.09625, -1.0028076, 5.09625, -0.1641235, 5.09625, 1.1374046, 5.09625, 0.7938932, 5.09625, -3.519084
0.6003529, -0.0041962, 5.103, 0.0878906, 5.103, -1.0023804, 5.103, -0.1611328, 5.103, 1.2290076, 5.103, 0.9236641, 5.103, -3.5572519
0.6011471, -0.0001678, 5.10975, 0.0861816, 5.10975, -0.9998169, 5.10975, -0.1616211, 5.10975, 1.1908396, 5.10975, 1.0458015, 5.10975, -3.4122138
0.6019412, -0.002182, 5.1165, 0.0838623, 5.1165, -1.0007324, 5.1165, -0.1610718, 5.1165, 1.3664122, 5.1165, 1.1221374, 5.1165, -3.4198472
0.6027353, -0.0041962, 5.12325, 0.0834351, 5.12325, -1.0008545, 5.12325, -0.1641235, 5.12325, 1.5114504, 5.12325, 1.2519084, 5.12325, -3.5114503
0.6035294, -0.0008392, 5.13, 0.0861206, 5.13, -0.9992676, 5.13, -0.1624146, 5.13, 1.4885496, 5.13, 1.3206106, 5.13, -3.740458
0.6043235, -0.0020142, 5.13675, 0.0839233, 5.13675, -1, 5.13675, -0.1603394, 5.13675, 1.4961832, 5.13675, 1.3587786, 5.13675, -3.4732823
0.6051176, -0.0038605, 5.1435, 0.0839844, 5.1435, -0.999939, 5.1435, -0.1575928, 5.1435, 1.4274809, 5.1435, 1.3206106, 5.1435, -3.5801528
0.6059118, -0.0058747, 5.15025, 0.0842285, 5.15025, -0.9993286, 5.15025, -0.1587524, 5.15025, 1.3587786, 5.15025, 1.3435115, 5.15025, -3.480916
0.6067059, -0.0092317, 5.157, 0.0844727, 5.157, -1.0004883, 5.157, -0.1601562, 5.157, 1.389313, 5.157, 1.351145, 5.157, -3.5954199
0.6075, -0.0159457, 5.16375, 0.0848999, 5.16375, -1.0029297, 5.16375, -0.1549072, 5.16375, 1.4732825, 5.16375, 1.2824427, 5.16375, -3.3358779
0.6082941, -0.0169528, 5.1705, 0.0823975, 5.1705, -1.0001221, 5.1705, -0.15448, 5.1705, 1.5801526, 5.1705, 1.3435115, 5.1705, -3.4961832
0.6090882, -0.0223239, 5.17725, 0.0866089, 5.17725, -0.9987183, 5.17725, -0.1552124, 5.17725, 1.5267175, 5.17725, 1.519084, 5.17725, -3.4351146
0.6098824, -0.0256809, 5.184, 0.0829468, 5.184, -0.9963379, 5.184, -0.1549683, 5.184, 1.5267175, 5.184, 1.7099236, 5.184, -3.3435113
0.6106765, -0.0209812, 5.19075, 0.0848999, 5.19075, -0.9969482, 5.19075, -0.1547852, 5.19075, 1.4580153, 5.19075, 1.7862595, 5.19075, -3.3740458
0.6114706, -0.0209812, 5.1975, 0.085022, 5.1975, -1, 5.1975, -0.1565552, 5.1975, 1.480916, 5.1975, 1.8931298, 5.1975, -3.351145
0.6122647, -0.0203098, 5.20425, 0.0839233, 5.20425, -1.0002441, 5.20425, -0.1516724, 5.20425, 1.389313, 5.20425, 1.8091604, 5.20425, -3.3053436
0.6130588, -0.0229953, 5.211, 0.0812378, 5.211, -1.0006104, 5.211, -0.1523438, 5.211, 1.4580153, 5.211, 1.8167939, 5.211, -3.5038168
0.6138529, -0.0240024, 5.21775, 0.0803223, 5.21775, -1.0032349, 5.21775, -0.1538696, 5.21775, 1.4732825, 5.21775, 1.6793894, 5.21775, -3.5267177
0.6146471, -0.0250095, 5.2245, 0.0812988, 5.2245, -1.0015869, 5.2245, -0.1535034, 5.2245, 1.4503816, 5.2245, 1.2137405, 5.2245, -3.5267177
0.6154412, -0.0290379, 5.23125, 0.0827026, 5.23125, -1.0046997, 5.23125, -0.1516724, 5.23125, 1.3740458, 5.23125, 1.1755725, 5.23125, -3.480916
0.6162353, -0.0258488, 5.238, 0.0854492, 5.238, -1.0021973, 5.238, -0.1559448, 5.238, 1.4351145, 5.238, 1.0763359, 5.238, -3.5954199
0.6170294, -0.0203098, 5.24475, 0.0844727, 5.24475, -1.0046997, 5.24475, -0.1571655, 5.24475, 1.2442749, 5.24475, 1.259542, 5.24475, -3.5725191
0.6178235, -0.0162814, 5.2515, 0.086853, 5.2515, -1.0022583, 5.2515, -0.1571045, 5.2515, 1.3206106, 5.2515, 1.3282443, 5.2515, -3.8167939
0.6186176, -0.01561, 5.25825, 0.0863037, 5.25825, -1.0007935, 5.25825, -0.1546631, 5.25825, 1.2442749, 5.25825, 1.5572519, 5.25825, -3.5648854
0.6194118, -0.012253, 5.265, 0.0871582, 5.265, -1.0010376, 5.265, -0.1555176, 5.265, 1.129771, 5.265, 1.8854961, 5.265, -3.4732823
0.6202059, -0.0063783, 5.27175, 0.0838623, 5.27175, -0.9992676, 5.27175, -0.1518555, 5.27175, 1.1832061, 5.27175, 2.1068702, 5.27175, -3.4961832
0.621, -0.0078889, 5.2785, 0.0827637, 5.2785, -1.0004272, 5.2785, -0.1518555, 5.2785, 1.0534351, 5.2785, 1.7709924, 5.2785, -3.5419848
0.6217941, -0.0068818, 5.28525, 0.083313, 5.28525, -1.0004272, 5.28525, -0.1546021, 5.28525, 1.1068702, 5.28525, 1.5648855, 5.28525, -3.5572519
0.6225882, -0.0036927, 5.292, 0.0881958, 5.292, -0.9951172, 5.292, -0.1592407, 5.292, 1.0687023, 5.292, 1.5419847, 5.292, -3.648855
0.6233824, -0.0095674, 5.29875, 0.0877075, 5.29875, -0.9983521, 5.29875, -0.157959, 5.29875, 1.1526718, 5.29875, 1.8091604, 5.29875, -3.610687
0.6241765, -0.0099031, 5.3055, 0.0889893, 5.3055, -0.996582, 5.3055, -0.1589966, 5.3055, 1.1450381, 5.3055, 1.8931298, 5.3055, -3.519084
0.6249706, -0.0114137, 5.31225, 0.085022, 5.31225, -1.0007324, 5.31225, -0.1605225, 5.31225, 1.3129771, 5.31225, 1.9007634, 5.31225, -3.4656489
0.6257647, -0.012253, 5.319, 0.085022, 5.319, -1.0002441, 5.319, -0.1612549, 5.319, 1.1908396, 5.319, 1.9694656, 5.319, -3.6793892
0.6265588, -0.0162814, 5.32575, 0.0847778, 5.32575, -0.9997559, 5.32575, -0.1593018, 5.32575, 1.3282443, 5.32575, 1.9923664, 5.32575, -3.5954199
0.6273529, -0.0182956, 5.3325, 0.0847168, 5.3325, -1.0022583, 5.3325, -0.1564331, 5.3325, 1.2900764, 5.3325, 1.8778626, 5.3325, -3.6717558
0.6281471, -0.0182956, 5.33925, 0.0825195, 5.33925, -0.9993896, 5.33925, -0.1586914, 5.33925, 1.2671756, 5.33925, 1.7328244, 5.33925, -3.5648854
0.6289412, -0.0238346, 5.346, 0.0846558, 5.346, -0.9986572, 5.346, -0.1571045, 5.346, 1.3740458, 5.346, 1.8244275, 5.346, -3.4580152
0.6297353, -0.0273594, 5.35275, 0.081665, 5.35275, -0.9987793, 5.35275, -0.1571655, 5.35275, 1.389313, 5.35275, 1.5038168, 5.35275, -3.6183207
0.6305294, -0.026688, 5.3595, 0.0822754, 5.3595, -1.0029297, 5.3595, -0.1574097, 5.3595, 1.4274809, 5.3595, 1.4885496, 5.3595, -3.6183207
0.6313235, -0.0243381, 5.36625, 0.0838013, 5.36625, -1.0008545, 5.36625, -0.1566162, 5.36625, 1.3587786, 5.36625, 1.2748091, 5.36625, -3.6259542
0.6321176, -0.0216526, 5.373, 0.085144, 5.373, -1.0009766, 5.373, -0.1558228, 5.373, 1.3740458, 5.373, 1.2137405, 5.373, -3.7328243
0.6329118, -0.0176242, 5.37975, 0.0839844, 5.37975, -1.0014038, 5.37975, -0.1564941, 5.37975, 1.2977099, 5.37975, 0.9541985, 5.37975, -3.6717558
0.6337059, -0.0146029, 5.3865, 0.088562, 5.3865, -1.006897, 5.3865, -0.1586304, 5.3865, 1.3816794, 5.3865, 0.8931298, 5.3865, -3.6183207
0.6345, -0.011078, 5.39325, 0.0864868, 5.39325, -1.0071411, 5.39325, -0.15802, 5.39325, 1.4961832, 5.39325, 0.8625954, 5.39325, -3.5954199
0.6352941, -0.0104067, 5.4, 0.0870361, 5.4, -1.0040894, 5.4, -0.1547852, 5.4, 1.5343511, 5.4, 0.9007633, 5.4, -3.5648854
0.6360882, -0.0137636, 5.40675, 0.0876465, 5.40675, -1.0022583, 5.40675, -0.1585083, 5.40675, 1.5496184, 5.40675, 0.8549618, 5.40675, -3.6183207
0.6368824, -0.0129244, 5.4135, 0.0873413, 5.4135, -1.0004883, 5.4135, -0.1588745, 5.4135, 1.4961832, 5.4135, 0.7251908, 5.4135, -3.6793892
0.6376765, -0.0120851, 5.42025, 0.0889282, 5.42025, -1.0029297, 5.42025, -0.1623535, 5.42025, 1.6641221, 5.42025, 0.5419847, 5.42025, -3.5954199
0.6384706, -0.0072175, 5.427, 0.0914917, 5.427, -1.0036621, 5.427, -0.1604004, 5.427, 1.8778626, 5.427, 0.8015267, 5.427, -3.610687
0.6392647, -0.0075532, 5.43375, 0.0892944, 5.43375, -0.9996948, 5.43375, -0.1640625, 5.43375, 2.038168, 5.43375, 1, 5.43375, -3.6335878
0.6400588, -0.008896, 5.4405, 0.086853, 5.4405, -1.0020752, 5.4405, -0.1630859, 5.4405, 2.0687022, 5.4405, 0.8931298, 5.4405, -3.6183207
0.6408529, -0.0102388, 5.44725, 0.0883179, 5.44725, -0.9998169, 5.44725, -0.1598511, 5.44725, 1.9541985, 5.44725, 0.7862595, 5.44725, -3.5801528
0.6416471, -0.0124208, 5.454, 0.0852661, 5.454, -1.0002441, 5.454, -0.1640625, 5.454, 2.1832061, 5.454, 0.6564885, 5.454, -3.5877862
0.6424412, -0.0124208, 5.46075, 0.0889282, 5.46075, -1.0028687, 5.46075, -0.1642456, 5.46075, 2.2748091, 5.46075, 0.6870229, 5.46075, -3.4274809
0.6432353, -0.0152743, 5.4675, 0.0888062, 5.4675, -0.9996338, 5.4675, -0.1607056, 5.4675, 2.1908398, 5.4675, 0.908397, 5.4675, -3.4885497
0.6440294, -0.0146029, 5.47425, 0.0911255, 5.47425, -1.0010376, 5.47425, -0.1583252, 5.47425, 2.2748091, 5.47425, 0.8931298, 5.47425, -3.3587787
0.6448235, -0.0135958, 5.481, 0.0906982, 5.481, -1.0015869, 5.481, -0.1621704, 5.481, 2.4656489, 5.481, 0.9847328, 5.481, -3.3282442
0.6456176, -0.0157778, 5.48775, 0.0907593, 5.48775, -1.0027466, 5.48775, -0.1617432, 5.48775, 2.6183207, 5.48775, 1.1450381, 5.48775, -3.2137403
0.6464118, -0.0159457, 5.4945, 0.0915527, 5.4945, -1.0044556, 5.4945, -0.1591187, 5.4945, 2.6641221, 5.4945, 1.351145, 5.4945, -3.351145
0.6472059, -0.0198062, 5.50125, 0.0904541, 5.50125, -1.0028687, 5.50125, -0.1582642, 5.50125, 2.7251909, 5.50125, 1.6564885, 5.50125, -3.2290077
0.648, -0.0152743, 5.508, 0.0863037, 5.508, -1.0024414, 5.508, -0.1600952, 5.508, 2.778626, 5.508, 1.2900764, 5.508, -3.3053436
0.6487941, -0.0135958, 5.51475, 0.0844116, 5.51475, -0.9998169, 5.51475, -0.1555786, 5.51475, 2.7251909, 5.51475, 1.3969465, 5.51475, -3.3206108
0.6495882, -0.0115816, 5.5215, 0.0862427, 5.5215, -1.0001221, 5.5215, -0.156311, 5.5215, 2.740458, 5.5215, 1.4045801, 5.5215, -3.2671757
0.6503824, -0.0105745, 5.52825, 0.0869141, 5.52825, -1.0003662, 5.52825, -0.1547241, 5.52825, 2.870229, 5.52825, 1.3816794, 5.52825, -3.2519083
0.6511765, -0.0052033, 5.535, 0.0847168, 5.535, -1.0022583, 5.535, -0.1551514, 5.535, 2.8320611, 5.535, 1.3282443, 5.535, -3.0534351
0.6519706, -0.0035248, 5.54175, 0.0872803, 5.54175, -1.0029297, 5.54175, -0.1556396, 5.54175, 2.8549619, 5.54175, 1.3664122, 5.54175, -3.0992367
0.6527647, -0.0041962, 5.5485, 0.0865479, 5.5485, -1.0028687, 5.5485, -0.1557007, 5.5485, 2.870229, 5.5485, 1.5343511, 5.5485, -2.9923663
0.6535588, -0.0114137, 5.55525, 0.0865479, 5.55525, -0.9993286, 5.55525, -0.1539917, 5.55525, 3.0076337, 5.55525, 1.6183206, 5.55525, -3.0305343
0.6543529, -0.0087282, 5.562, 0.0864258, 5.562, -1.0013428, 5.562, -0.1565552, 5.562, 2.7633588, 5.562, 1.740458, 5.562, -2.9923663
0.6551471, -0.0041962, 5.56875, 0.0897827, 5.56875, -1.0028076, 5.56875, -0.1506958, 5.56875, 3.0152671, 5.56875, 1.8244275, 5.56875, -3.0839694
0.6559412, -0.0070497, 5.5755, 0.0878296, 5.5755, -1.0004272, 5.5755, -0.1542358, 5.5755, 3.129771, 5.5755, 1.778626, 5.5755, -3.1526718
0.6567353, -0.0085603, 5.58225, 0.0854492, 5.58225, -0.9975586, 5.58225, -0.1565552, 5.58225, 3.1145039, 5.58225, 1.8167939, 5.58225, -2.9541984
0.6575294, -0.0082246, 5.589, 0.0881958, 5.589, -0.9972534, 5.589, -0.1524658, 5.589, 3.1526718, 5.589, 1.8931298, 5.589, -3.0229008
0.6583235, -0.0125887, 5.59575, 0.0899048, 5.59575, -0.9997559, 5.59575, -0.1501465, 5.59575, 3.129771, 5.59575, 1.9770992, 5.59575, -2.8625953
0.6591176, -0.0164492, 5.6025, 0.0891724, 5.6025, -0.9985352, 5.6025, -0.1494751, 5.6025, 3.038168, 5.6025, 1.9694656, 5.6025, -2.7938931
0.6599118, -0.0196384, 5.60925, 0.0877686, 5.60925, -0.9987183, 5.60925, -0.1491699, 5.60925, 2.9007633, 5.60925, 2.0534351, 5.60925, -2.870229
0.6607059, -0.0229953, 5.616, 0.086792, 5.616, -1.0004272, 5.616, -0.1437378, 5.616, 3.0992367, 5.616, 2.0152671, 5.616, -3.0458016
0.6615, -0.0280308, 5.62275, 0.0828247, 5.62275, -0.9995728, 5.62275, -0.1466675, 5.62275, 3.0534351, 5.62275, 1.8320611, 5.62275, -2.961832
0.6622941, -0.0270237, 5.6295, 0.0866699, 5.6295, -0.9989014, 5.6295, -0.1447144, 5.6295, 2.870229, 5.6295, 1.6717557, 5.6295, -3.0229008
0.6630882, -0.0216526, 5.63625, 0.081543, 5.63625, -1.0028076, 5.63625, -0.1467896, 5.63625, 2.7175572, 5.63625, 1.4885496, 5.63625, -2.9160306
0.6638824, -0.0216526, 5.643, 0.0853271, 5.643, -1.0004272, 5.643, -0.1469727, 5.643, 2.648855, 5.643, 1.3358779, 5.643, -2.9312978
0.6646765, -0.0204776, 5.64975, 0.0856323, 5.64975, -1.0010376, 5.64975, -0.1445312, 5.64975, 2.5877862, 5.64975, 1.5648855, 5.64975, -2.778626
0.6654706, -0.0109102, 5.6565, 0.088562, 5.6565, -1.0008545, 5.6565, -0.1462402, 5.6565, 2.4656489, 5.6565, 1.4885496, 5.6565, -2.8549619
0.6662647, -0.0105745, 5.66325, 0.0883789, 5.66325, -1.0028076, 5.66325, -0.1478271, 5.66325, 2.4351146, 5.66325, 1.4045801, 5.66325, -2.8167939
0.6670588, -0.0082246, 5.67, 0.0869141, 5.67, -1.0030518, 5.67, -0.1463623, 5.67, 2.3969467, 5.67, 1.519084, 5.67, -2.6946564
0.6678529, -0.0011749, 5.67675, 0.0893555, 5.67675, -1.0036621, 5.67675, -0.1452637, 5.67675, 2.1984732, 5.67675, 1.4961832, 5.67675, -2.7938931
0.6686471, -0.0025177, 5.6835, 0.0893555, 5.6835, -1.0010986, 5.6835, -0.1444092, 5.6835, 2.1984732, 5.6835, 1.480916, 5.6835, -2.8015268
0.6694412, -0.0052033, 5.69025, 0.086731, 5.69025, -1.0021362, 5.69025, -0.1466675, 5.69025, 2.3435113, 5.69025, 1.4274809, 5.69025, -2.8244274
0.6702353, -0.0050355, 5.697, 0.0874023, 5.697, -1.0043335, 5.697, -0.1452026, 5.697, 2.0992367, 5.697, 1.5801526, 5.697, -2.778626
0.6710294, -0.008896, 5.70375, 0.0860596, 5.70375, -1.0012207, 5.70375, -0.1463013, 5.70375, 2.091603, 5.70375, 1.4351145, 5.70375, -2.7709923
0.6718235, -0.0181277, 5.7105, 0.0841064, 5.7105, -1.0027466, 5.7105, -0.1468506, 5.7105, 2.2442749, 5.7105, 1.2137405, 5.7105, -2.6870229
0.6726176, -0.0199741, 5.71725, 0.0845947, 5.71725, -1.0029297, 5.71725, -0.1471558, 5.71725, 2.1526718, 5.71725, 1.1526718, 5.71725, -2.7328243
0.6734118, -0.018967, 5.724, 0.0841064, 5.724, -1.0032959, 5.724, -0.1497192, 5.724, 2.0992367, 5.724, 1.0229008, 5.724, -2.8015268
0.6742059, -0.0159457, 5.73075, 0.0845947, 5.73075, -1.0040283, 5.73075, -0.1495361, 5.73075, 2.2061069, 5.73075, 0.9389313, 5.73075, -2.6641221
0.675, -0.0196384, 5.7375, 0.0830688, 5.7375, -0.9987183, 5.7375, -0.1484375, 5.7375, 2.3358779, 5.7375, 0.8854962, 5.7375, -2.7099237
0.6757941, -0.0226596, 5.74425, 0.0876465, 5.74425, -0.9979858, 5.74425, -0.1491089, 5.74425, 2.4427481, 5.74425, 0.6412213, 5.74425, -2.7709923
0.6765882, -0.021149, 5.751, 0.0847168, 5.751, -0.9985962, 5.751, -0.1526489, 5.751, 2.4427481, 5.751, 0.7557252, 5.751, -2.7022901
0.6773824, -0.0213169, 5.75775, 0.0889893, 5.75775, -0.9995117, 5.75775, -0.1514282, 5.75775, 2.480916, 5.75775, 0.8473282, 5.75775, -2.5343511
0.6781765, -0.0216526, 5.7645, 0.0879517, 5.7645, -0.9992065, 5.7645, -0.151062, 5.7645, 2.3816793, 5.7645, 1.0687023, 5.7645, -2.5419848
