Application:, Trigno Discover (1.7.0)
Date/Time:, 2026/9/9 上午 10:46:46
Collection Length (seconds):, 41.4315
Avanti Sensor 11 (69574)
sensor mode: 50
EMG 1 Time Series (s), EMG 1 (mV), ACC X Time Series (s), ACC X (G), ACC Y Time Series (s), ACC Y (G), ACC Z Time Series (s), ACC Z (G), GYRO X Time Series (s), GYRO X (deg/s), GYRO Y Time Series (s), GYRO Y (deg/s), GYRO Z Time Series (s), GYRO Z (deg/s)
, 1259.2593 Hz, , 148.1481 Hz, , 148.1481 Hz, , 148.1481 Hz, , 148.1481 Hz, , 148.1481 Hz, , 148.1481 Hz
0, -0.0161135, 0, -0.0389404, 0, -1.0020752, 0, -0.1186523, 0, -0.5572519, 0, 2.3816793, 0, -3.1908398
0.0007941, -0.014435, 0.00675, -0.0426025, 0.00675, -0.9989624, 0.00675, -0.1316528, 0.00675, -0.5343512, 0.00675, 2.3129771, 0.00675, -3.1832061
0.0015882, -0.0142672, 0.0135, -0.0471802, 0.0135, -0.9976196, 0.0135, -0.1357422, 0.0135, -0.8549618, 0.0135, 2, 0.0135, -2.961832
0.0023824, -0.0114137, 0.02025, -0.0488892, 0.02025, -0.9983521, 0.02025, -0.1281738, 0.02025, -0.8396947, 0.02025, 1.6870229, 0.02025, -3.0076337
0.0031765, -0.0119173, 0.027, -0.0401001, 0.027, -0.9996948, 0.027, -0.1196289, 0.027, -0.8244275, 0.027, 1.480916, 0.027, -2.8625953
0.0039706, -0.0115816, 0.03375, -0.0425415, 0.03375, -0.9960938, 0.03375, -0.1209106, 0.03375, -0.6870229, 0.03375, 1.091603, 0.03375, -3.1526718
0.0047647, -0.0129244, 0.0405, -0.0502319, 0.0405, -0.9973755, 0.0405, -0.1221313, 0.0405, -0.8091603, 0.0405, 1.9923664, 0.0405, -2.5038168
0.0055588, -0.0159457, 0.04725, -0.0435181, 0.04725, -0.9974976, 0.04725, -0.1155396, 0.04725, -0.2519084, 0.04725, 2.7862597, 0.04725, -2.5114503
0.0063529, -0.0224918, 0.054, -0.0389404, 0.054, -0.9953003, 0.054, -0.1204224, 0.054, 0.6259542, 0.054, 2.0152671, 0.054, -3.3969467
0.0071471, -0.023331, 0.06075, -0.0449829, 0.06075, -0.9988403, 0.06075, -0.1224976, 0.06075, 0.3969466, 0.06075, 1.870229, 0.06075, -3.6793892
0.0079412, -0.0182956, 0.0675, -0.0476074, 0.0675, -1.0020752, 0.0675, -0.1230469, 0.0675, -0.1832061, 0.0675, 2.0839694, 0.0675, -3.4503818
0.0087353, -0.0171206, 0.07425, -0.0474243, 0.07425, -1.0081787, 0.07425, -0.1182251, 0.07425, -0.4503817, 0.07425, 1.2442749, 0.07425, -3.4122138
0.0095294, -0.0139315, 0.081, -0.0456543, 0.081, -1.0106201, 0.081, -0.1098633, 0.081, -0.5954198, 0.081, 1.1679389, 0.081, -3.389313
0.0103235, -0.0129244, 0.08775, -0.0379639, 0.08775, -1.0100098, 0.08775, -0.1099854, 0.08775, -0.389313, 0.08775, 1.5572519, 0.08775, -3.4274809
0.0111176, -0.0105745, 0.0945, -0.0376587, 0.0945, -1.0115967, 0.0945, -0.1096191, 0.0945, -0.5877863, 0.0945, 1.0152671, 0.0945, -3.6946564
0.0119118, -0.0102388, 0.10125, -0.0379639, 0.10125, -1.0110474, 0.10125, -0.1171875, 0.10125, -0.3129771, 0.10125, 0.5877863, 0.10125, -3.9923663
0.0127059, -0.012253, 0.108, -0.0322266, 0.108, -1.012085, 0.108, -0.1271973, 0.108, -0.2671756, 0.108, 1.2137405, 0.108, -4.2671757
0.0135, -0.0085603, 0.11475, -0.0213013, 0.11475, -1.0154419, 0.11475, -0.1225586, 0.11475, -0.648855, 0.11475, 1.7938931, 0.11475, -4.1145039
0.0142941, -0.0102388, 0.1215, -0.0193481, 0.1215, -1.0150757, 0.1215, -0.1206055, 0.1215, -0.6946565, 0.1215, 1.5877863, 0.1215, -4.0305343
0.0150882, -0.0092317, 0.12825, -0.0249023, 0.12825, -1.0183716, 0.12825, -0.1244507, 0.12825, -0.7480916, 0.12825, 1.9160305, 0.12825, -4.0687022
0.0158824, -0.0082246, 0.135, -0.0255127, 0.135, -1.0131836, 0.135, -0.1226807, 0.135, -1.1450381, 0.135, 2.8167939, 0.135, -3.870229
0.0166765, -0.012253, 0.14175, -0.0245361, 0.14175, -1.0056152, 0.14175, -0.1242065, 0.14175, -1.5343511, 0.14175, 3.6564887, 0.14175, -3.4656489
0.0174706, -0.0179599, 0.1485, -0.0330811, 0.1485, -1.006958, 0.1485, -0.1366577, 0.1485, -1.5954199, 0.1485, 3.9465649, 0.1485, -3.3358779
0.0182647, -0.023331, 0.15525, -0.0390015, 0.15525, -1.0079346, 0.15525, -0.1351929, 0.15525, -1.6335878, 0.15525, 4.2366414, 0.15525, -3.3129771
0.0190588, -0.0209812, 0.162, -0.046814, 0.162, -1.0099487, 0.162, -0.1304321, 0.162, -1.648855, 0.162, 3.9923663, 0.162, -3.389313
0.0198529, -0.011078, 0.16875, -0.0498047, 0.16875, -1.0061646, 0.16875, -0.1279297, 0.16875, -1.4732825, 0.16875, 3.9007633, 0.16875, -3.259542
0.0206471, -0.0099031, 0.1755, -0.050293, 0.1755, -1.0022583, 0.1755, -0.1329346, 0.1755, -1.2290076, 0.1755, 4.4045801, 0.1755, -2.8854961
0.0214412, -0.0169528, 0.18225, -0.0484009, 0.18225, -0.998291, 0.18225, -0.1453857, 0.18225, -0.9007633, 0.18225, 4.1450381, 0.18225, -2.9465649
0.0222353, -0.018967, 0.189, -0.0477905, 0.189, -0.996521, 0.189, -0.1501465, 0.189, -0.8091603, 0.189, 3.648855, 0.189, -2.8549619
0.0230294, -0.0219883, 0.19575, -0.0448608, 0.19575, -0.9953003, 0.19575, -0.1526489, 0.19575, -0.4427481, 0.19575, 3.5648854, 0.19575, -2.7251909
0.0238235, -0.0191348, 0.2025, -0.0345459, 0.2025, -1.0003662, 0.2025, -0.151001, 0.2025, -0.0916031, 0.2025, 3.8473282, 0.2025, -2.5343511
0.0246176, -0.0176242, 0.20925, -0.0239868, 0.20925, -1.00354, 0.20925, -0.1500244, 0.20925, 0.3282443, 0.20925, 4.1832061, 0.20925, -2.5114503
0.0254118, -0.0179599, 0.216, -0.0292358, 0.216, -1.0061035, 0.216, -0.1522217, 0.216, 0.7709923, 0.216, 4.4122138, 0.216, -2.5572519
0.0262059, -0.0203098, 0.22275, -0.0350952, 0.22275, -1.0119629, 0.22275, -0.1526489, 0.22275, 0.6335878, 0.22275, 4.6106873, 0.22275, -2.7328243
0.027, -0.0229953, 0.2295, -0.0356445, 0.2295, -1.0108032, 0.2295, -0.1477051, 0.2295, 1.0076336, 0.2295, 4.5801525, 0.2295, -2.610687
0.0277941, -0.0216526, 0.23625, -0.0352173, 0.23625, -1.0098267, 0.23625, -0.1453247, 0.23625, 1.2519084, 0.23625, 4.5343513, 0.23625, -2.5954199
0.0285882, -0.0204776, 0.243, -0.0407104, 0.243, -1.0122681, 0.243, -0.140564, 0.243, 1.4656489, 0.243, 4.4122138, 0.243, -2.6946564
0.0293824, -0.0167849, 0.24975, -0.0372314, 0.24975, -1.0133057, 0.24975, -0.1466064, 0.24975, 0.8244275, 0.24975, 4.5877862, 0.24975, -2.4198472
0.0301765, -0.012253, 0.2565, -0.0361328, 0.2565, -1.0118408, 0.2565, -0.1445312, 0.2565, -0.2977099, 0.2565, 4.5114503, 0.2565, -2.2900763
0.0309706, -0.008896, 0.26325, -0.0327148, 0.26325, -1.0131226, 0.26325, -0.1333008, 0.26325, -0.2824427, 0.26325, 3.9465649, 0.26325, -2.3358779
0.0317647, -0.0102388, 0.27, -0.0327759, 0.27, -1.0116577, 0.27, -0.1347046, 0.27, -0.3740458, 0.27, 4.0763359, 0.27, -2.3969467
0.0325588, -0.0109102, 0.27675, -0.032959, 0.27675, -1.0120239, 0.27675, -0.1318359, 0.27675, -0.6183206, 0.27675, 4.6259542, 0.27675, -2.351145
0.0333529, -0.0095674, 0.2835, -0.0338745, 0.2835, -1.0079346, 0.2835, -0.133606, 0.2835, -1.2137405, 0.2835, 4.8396945, 0.2835, -2.1221373
0.0341471, -0.0058747, 0.29025, -0.0424805, 0.29025, -1.0065308, 0.29025, -0.1321411, 0.29025, -1.351145, 0.29025, 4.4732823, 0.29025, -1.9923664
0.0349412, -0.0046998, 0.297, -0.0472412, 0.297, -1.0049438, 0.297, -0.1368408, 0.297, -1.4122137, 0.297, 4.3816795, 0.297, -2.0763359
0.0357353, -0.008896, 0.30375, -0.0515747, 0.30375, -1.0106201, 0.30375, -0.1379395, 0.30375, -1.5343511, 0.30375, 4.4580154, 0.30375, -2.2671757
0.0365294, -0.0149386, 0.3105, -0.0529175, 0.3105, -1.0134277, 0.3105, -0.131958, 0.3105, -1.5954199, 0.3105, 4.2900763, 0.3105, -2.1526718
0.0373235, -0.0196384, 0.31725, -0.0533447, 0.31725, -1.0126953, 0.31725, -0.1311035, 0.31725, -1.7099236, 0.31725, 4.2824426, 0.31725, -2.2671757
0.0381176, -0.018967, 0.324, -0.0476074, 0.324, -1.0098267, 0.324, -0.1308594, 0.324, -2.389313, 0.324, 4.7328243, 0.324, -1.9236641
0.0389118, -0.0135958, 0.33075, -0.0466309, 0.33075, -1.007019, 0.33075, -0.1325073, 0.33075, -2.221374, 0.33075, 4.4503818, 0.33075, -2.2442749
0.0397059, -0.0090639, 0.3375, -0.0453491, 0.3375, -1.0076904, 0.3375, -0.1243896, 0.3375, -2.1221373, 0.3375, 4.1755724, 0.3375, -2.1679389
0.0405, -0.0109102, 0.34425, -0.0380249, 0.34425, -1.0105591, 0.34425, -0.1223755, 0.34425, -1.9007634, 0.34425, 3.8778627, 0.34425, -2.6183207
0.0412941, -0.0157778, 0.351, -0.0367432, 0.351, -1.0062866, 0.351, -0.1224365, 0.351, -1.8549619, 0.351, 4.0763359, 0.351, -2.8244274
0.0420882, -0.0099031, 0.35775, -0.0350342, 0.35775, -1.0108032, 0.35775, -0.1256104, 0.35775, -2.1374047, 0.35775, 4.1145039, 0.35775, -2.9160306
0.0428824, -0.0018463, 0.3645, -0.0337524, 0.3645, -1.0117188, 0.3645, -0.1235352, 0.3645, -2.091603, 0.3645, 4.6488547, 0.3645, -2.7480917
0.0436765, -0.0082246, 0.37125, -0.0334473, 0.37125, -1.0027466, 0.37125, -0.1278076, 0.37125, -2.0763359, 0.37125, 4.9236641, 0.37125, -2.7099237
0.0444706, -0.0159457, 0.378, -0.0435791, 0.378, -1.0037842, 0.378, -0.1335449, 0.378, -2, 0.378, 4.9007635, 0.378, -2.9312978
0.0452647, -0.0243381, 0.38475, -0.0488281, 0.38475, -1.0042725, 0.38475, -0.1259766, 0.38475, -2.1068702, 0.38475, 4.480916, 0.38475, -3.1679389
0.0460588, -0.0280308, 0.3915, -0.0576782, 0.3915, -1.0025635, 0.3915, -0.1369019, 0.3915, -2.2977099, 0.3915, 4.4045801, 0.3915, -3.091603
0.0468529, -0.030045, 0.39825, -0.059021, 0.39825, -0.9993896, 0.39825, -0.1386108, 0.39825, -2.4274809, 0.39825, 4.221374, 0.39825, -3.0152671
0.0476471, -0.0261845, 0.405, -0.0580444, 0.405, -0.9951172, 0.405, -0.1376953, 0.405, -2.480916, 0.405, 4.4274807, 0.405, -2.9465649
0.0484412, -0.018967, 0.41175, -0.0593872, 0.41175, -0.994873, 0.41175, -0.1384888, 0.41175, -3.2290077, 0.41175, 5.0992365, 0.41175, -2.8625953
0.0492353, -0.0149386, 0.4185, -0.0570068, 0.4185, -0.9985352, 0.4185, -0.1339111, 0.4185, -3.5496182, 0.4185, 5.0305343, 0.4185, -3.1145039
0.0500294, -0.0125887, 0.42525, -0.0518799, 0.42525, -1.0056152, 0.42525, -0.1322021, 0.42525, -3.3587787, 0.42525, 4.4732823, 0.42525, -3.1145039
0.0508235, -0.0065461, 0.432, -0.0522461, 0.432, -1.0066528, 0.432, -0.1322021, 0.432, -3.0687022, 0.432, 4.3206105, 0.432, -3.1526718
0.0516176, -0.0023499, 0.43875, -0.0543823, 0.43875, -1.0062256, 0.43875, -0.1365356, 0.43875, -3.1374047, 0.43875, 3.9694657, 0.43875, -3.3206108
0.0524118, -0.0041962, 0.4455, -0.0545654, 0.4455, -1.0023804, 0.4455, -0.1379395, 0.4455, -2.9312978, 0.4455, 3.6793892, 0.4455, -3.5572519
0.0532059, -0.0068818, 0.45225, -0.0513306, 0.45225, -1.001709, 0.45225, -0.1410522, 0.45225, -2.6641221, 0.45225, 3.6641221, 0.45225, -3.6870229
0.054, -0.0112459, 0.459, -0.0500488, 0.459, -1.001709, 0.459, -0.1435547, 0.459, -2.740458, 0.459, 2.9923663, 0.459, -3.7480917
0.0547941, -0.0135958, 0.46575, -0.0472412, 0.46575, -1.0014648, 0.46575, -0.1473389, 0.46575, -2.3664122, 0.46575, 2.2977099, 0.46575, -3.9847329
0.0555882, -0.0149386, 0.4725, -0.0533447, 0.4725, -1.0004272, 0.4725, -0.1489868, 0.4725, -2.2366412, 0.4725, 2.2900763, 0.4725, -4.0992365
0.0563824, -0.0157778, 0.47925, -0.0531006, 0.47925, -0.9998779, 0.47925, -0.1495972, 0.47925, -2.4045801, 0.47925, 2.4732823, 0.47925, -4.2977099
0.0571765, -0.018967, 0.486, -0.0552368, 0.486, -1.00354, 0.486, -0.1471558, 0.486, -2.2061069, 0.486, 2.3282442, 0.486, -4.4580154
0.0579706, -0.0208133, 0.49275, -0.0582886, 0.49275, -1.0045776, 0.49275, -0.1452026, 0.49275, -2.1374047, 0.49275, 1.9160305, 0.49275, -4.3358779
0.0587647, -0.0169528, 0.4995, -0.0606689, 0.4995, -1.0010376, 0.4995, -0.1467285, 0.4995, -1.648855, 0.4995, 1.5801526, 0.4995, -4.7557254
0.0595588, -0.0162814, 0.50625, -0.057312, 0.50625, -1.0009155, 0.50625, -0.1514282, 0.50625, -1.5572519, 0.50625, 1.2366412, 0.50625, -4.6793895
0.0603529, -0.0117494, 0.513, -0.0549927, 0.513, -1.003479, 0.513, -0.1486816, 0.513, -1.3740458, 0.513, 1.2290076, 0.513, -4.7175574
0.0611471, -0.0119173, 0.51975, -0.0460205, 0.51975, -1.0028687, 0.51975, -0.1550293, 0.51975, -1.2900764, 0.51975, 1.0687023, 0.51975, -4.7633586
0.0619412, -0.0129244, 0.5265, -0.0411377, 0.5265, -1.0029907, 0.5265, -0.1591797, 0.5265, -2.1068702, 0.5265, 1.5114504, 0.5265, -4.6412215
0.0627353, -0.0072175, 0.53325, -0.0360718, 0.53325, -1.0039062, 0.53325, -0.1546021, 0.53325, -1.9541985, 0.53325, 1.0458015, 0.53325, -4.5954199
0.0635294, -0.0082246, 0.54, -0.0352173, 0.54, -1.0014648, 0.54, -0.1575928, 0.54, -2.0687022, 0.54, 1.1145039, 0.54, -4.8244276
0.0643235, -0.0112459, 0.54675, -0.0300903, 0.54675, -1.0050659, 0.54675, -0.1586914, 0.54675, -2.0458016, 0.54675, 1.0763359, 0.54675, -4.961832
0.0651176, -0.0115816, 0.5535, -0.0297241, 0.5535, -1.0067139, 0.5535, -0.1600952, 0.5535, -1.4427481, 0.5535, 1.3358779, 0.5535, -5.0610685
0.0659118, -0.0117494, 0.56025, -0.0296021, 0.56025, -1.0089111, 0.56025, -0.1599731, 0.56025, -1.0763359, 0.56025, 1.6030535, 0.56025, -5.0076337
0.0667059, -0.0095674, 0.567, -0.0402222, 0.567, -1.0076904, 0.567, -0.1635742, 0.567, -0.6564885, 0.567, 2.0763359, 0.567, -4.9160304
0.0675, -0.008896, 0.57375, -0.0458374, 0.57375, -1.0078735, 0.57375, -0.1674805, 0.57375, -0.5572519, 0.57375, 2.1603053, 0.57375, -4.8778625
0.0682941, -0.0102388, 0.5805, -0.0491333, 0.5805, -1.0072632, 0.5805, -0.1629639, 0.5805, -0.0076336, 0.5805, 1.8549619, 0.5805, -4.9389315
0.0690882, -0.0166171, 0.58725, -0.0513916, 0.58725, -1.0084229, 0.58725, -0.1669312, 0.58725, 0.2519084, 0.58725, 1.480916, 0.58725, -4.9312978
0.0698824, -0.0176242, 0.594, -0.0496216, 0.594, -1.0125122, 0.594, -0.1654053, 0.594, 0.2442748, 0.594, 0.5801527, 0.594, -4.9389315
0.0706765, -0.0179599, 0.60075, -0.0400391, 0.60075, -1.0106812, 0.60075, -0.1584473, 0.60075, 0.4885496, 0.60075, 0.0229008, 0.60075, -5.0229006
0.0714706, -0.0142672, 0.6075, -0.0270386, 0.6075, -1.0111694, 0.6075, -0.1602783, 0.6075, 0.7557252, 0.6075, 0.2137405, 0.6075, -5.0229006
0.0722647, -0.0166171, 0.61425, -0.0200806, 0.61425, -1.0084229, 0.61425, -0.1585693, 0.61425, 1.221374, 0.61425, 0.0534351, 0.61425, -5.0305343
0.0730588, -0.0186313, 0.621, -0.0197754, 0.621, -1.0135498, 0.621, -0.1567993, 0.621, 1.4885496, 0.621, 0.5572519, 0.621, -5.1603055
0.0738529, -0.0226596, 0.62775, -0.0221558, 0.62775, -1.0123901, 0.62775, -0.1537476, 0.62775, 1.6412214, 0.62775, 0.8854962, 0.62775, -5.2137403
0.0746471, -0.0276951, 0.6345, -0.0284424, 0.6345, -1.0140381, 0.6345, -0.1558838, 0.6345, 1.9847329, 0.6345, 1.4351145, 0.6345, -5.1984735
0.0754412, -0.0229953, 0.64125, -0.0335083, 0.64125, -1.0097046, 0.64125, -0.1543579, 0.64125, 1.9312977, 0.64125, 1.2519084, 0.64125, -5.1832061
0.0762353, -0.0218204, 0.648, -0.041626, 0.648, -1.0058594, 0.648, -0.1546631, 0.648, 1.9770992, 0.648, 0.9389313, 0.648, -5.2519083
0.0770294, -0.0223239, 0.65475, -0.0501709, 0.65475, -1.0077515, 0.65475, -0.1583252, 0.65475, 1.9389313, 0.65475, 1.0992366, 0.65475, -5.1526718
0.0778235, -0.0193027, 0.6615, -0.0534058, 0.6615, -1.0036011, 0.6615, -0.1582031, 0.6615, 2.0458016, 0.6615, 0.8396947, 0.6615, -5.0839696
0.0786176, -0.0169528, 0.66825, -0.0516968, 0.66825, -0.998291, 0.66825, -0.1581421, 0.66825, 1.8778626, 0.66825, 0.4274809, 0.66825, -5.1679387
0.0794118, -0.01561, 0.675, -0.052124, 0.675, -1.0007324, 0.675, -0.1561279, 0.675, 2.0076337, 0.675, -0.2748092, 0.675, -5.3511453
0.0802059, -0.0129244, 0.68175, -0.0492554, 0.68175, -1.0010986, 0.68175, -0.1538696, 0.68175, 2.1984732, 0.68175, -0.389313, 0.68175, -5.6717558
0.081, -0.0075532, 0.6885, -0.0390625, 0.6885, -1.0039062, 0.6885, -0.1480103, 0.6885, 2.5648854, 0.6885, -0.3129771, 0.6885, -5.6106873
0.0817941, -0.008896, 0.69525, -0.0337524, 0.69525, -1.0047607, 0.69525, -0.1500854, 0.69525, 2.480916, 0.69525, -0.1526718, 0.69525, -5.519084
0.0825882, -0.014435, 0.702, -0.0319824, 0.702, -1.0001221, 0.702, -0.1526489, 0.702, 2.7022901, 0.702, -0.1374046, 0.702, -5.4503818
0.0833824, -0.0124208, 0.70875, -0.0332642, 0.70875, -0.9976196, 0.70875, -0.1521606, 0.70875, 2.648855, 0.70875, -0.0458015, 0.70875, -5.5419846
0.0841765, -0.008896, 0.7155, -0.0333862, 0.7155, -1.0007935, 0.7155, -0.1464844, 0.7155, 2.7938931, 0.7155, -0.0916031, 0.7155, -5.8625956
0.0849706, -0.0068818, 0.72225, -0.0328369, 0.72225, -1.0040894, 0.72225, -0.1430664, 0.72225, 2.9847329, 0.72225, 0.1221374, 0.72225, -5.740458
0.0857647, -0.0078889, 0.729, -0.0354614, 0.729, -1.0050659, 0.729, -0.1505127, 0.729, 2.6946564, 0.729, 0.2290076, 0.729, -5.5648856
0.0865588, -0.0052033, 0.73575, -0.0336914, 0.73575, -1.0025024, 0.73575, -0.1546631, 0.73575, 2.5267177, 0.73575, -0.129771, 0.73575, -5.4885497
0.0873529, -0.0038605, 0.7425, -0.0351562, 0.7425, -1.0040283, 0.7425, -0.1501465, 0.7425, 2.5343511, 0.7425, -0.259542, 0.7425, -5.6183205
0.0881471, -0.0119173, 0.74925, -0.0324707, 0.74925, -1.0059814, 0.74925, -0.1491089, 0.74925, 2.6259542, 0.74925, -0.3282443, 0.74925, -5.7328243
0.0889412, -0.0169528, 0.756, -0.0321655, 0.756, -1.0084229, 0.756, -0.1489868, 0.756, 2.9312978, 0.756, -0.0687023, 0.756, -5.4122138
0.0897353, -0.0162814, 0.76275, -0.0296631, 0.76275, -1.0089111, 0.76275, -0.1530762, 0.76275, 2.5954199, 0.76275, 0.3206107, 0.76275, -5.3969464
0.0905294, -0.0206455, 0.7695, -0.0299683, 0.7695, -1.008728, 0.7695, -0.1483154, 0.7695, 2.4351146, 0.7695, 0.6641222, 0.7695, -5.1221375
0.0913235, -0.0293736, 0.77625, -0.0281372, 0.77625, -1.010376, 0.77625, -0.1480713, 0.77625, 2.0687022, 0.77625, 0.8320611, 0.77625, -5.0610685
0.0921176, -0.0337377, 0.783, -0.0262451, 0.783, -1.0092163, 0.783, -0.1481934, 0.783, 2.3740458, 0.783, 0.8625954, 0.783, -5.1526718
0.0929118, -0.0323949, 0.78975, -0.0238037, 0.78975, -1.007019, 0.78975, -0.1487427, 0.78975, 2.389313, 0.78975, 1.1603054, 0.78975, -5.1755724
0.0937059, -0.0283665, 0.7965, -0.0275269, 0.7965, -1.0078735, 0.7965, -0.1425171, 0.7965, 2.4885497, 0.7965, 1.2137405, 0.7965, -5.1145039
0.0945, -0.0213169, 0.80325, -0.0310669, 0.80325, -1.0059814, 0.80325, -0.1435547, 0.80325, 2.7480917, 0.80325, 1.1221374, 0.80325, -5.1603055
0.0952941, -0.0162814, 0.81, -0.0332031, 0.81, -1.0039062, 0.81, -0.1435547, 0.81, 2.8396947, 0.81, 0.7862595, 0.81, -5.2671757
0.0960882, -0.0172885, 0.81675, -0.034729, 0.81675, -1.0010376, 0.81675, -0.142334, 0.81675, 2.740458, 0.81675, 0.6259542, 0.81675, -5.3664122
0.0968824, -0.0203098, 0.8235, -0.0377808, 0.8235, -1.0009766, 0.8235, -0.1414795, 0.8235, 2.2748091, 0.8235, 0.351145, 0.8235, -5.1679387
0.0976765, -0.0203098, 0.83025, -0.0360107, 0.83025, -1.0015259, 0.83025, -0.1348877, 0.83025, 2.2977099, 0.83025, -0.351145, 0.83025, -5.1984735
0.0984706, -0.0236667, 0.837, -0.0366211, 0.837, -1.0012207, 0.837, -0.1331787, 0.837, 2.4274809, 0.837, -0.351145, 0.837, -5.4198475
0.0992647, -0.0203098, 0.84375, -0.0337524, 0.84375, -1.0038452, 0.84375, -0.1333008, 0.84375, 2.1603053, 0.84375, -0.4732825, 0.84375, -5.3053436
0.1000588, -0.012253, 0.8505, -0.0281372, 0.8505, -1.0041504, 0.8505, -0.1353149, 0.8505, 2.4427481, 0.8505, -0.3053435, 0.8505, -5.3664122
0.1008529, -0.0052033, 0.85725, -0.0230103, 0.85725, -1.003418, 0.85725, -0.1408081, 0.85725, 2.4503818, 0.85725, -0.0610687, 0.85725, -5.4198475
0.1016471, 0.0018463, 0.864, -0.0197144, 0.864, -1.0059204, 0.864, -0.1463623, 0.864, 2.6183207, 0.864, 0.2137405, 0.864, -5.3435116
0.1024412, -0.0008392, 0.87075, -0.0198975, 0.87075, -1.0042114, 0.87075, -0.1461792, 0.87075, 2.351145, 0.87075, 0.4427481, 0.87075, -5.3740458
0.1032353, -0.0072175, 0.8775, -0.0164185, 0.8775, -1.0038452, 0.8775, -0.1467896, 0.8775, 1.5725191, 0.8775, 0.4045801, 0.8775, -5.0992365
0.1040294, -0.0109102, 0.88425, -0.0181885, 0.88425, -1.0031128, 0.88425, -0.1485596, 0.88425, 1.2366412, 0.88425, -0.648855, 0.88425, -5.1145039
0.1048235, -0.0119173, 0.891, -0.0228271, 0.891, -1.0060425, 0.891, -0.1455078, 0.891, 1.0076336, 0.891, -0.610687, 0.891, -5.0839696
0.1056176, -0.014435, 0.89775, -0.0214233, 0.89775, -1.0093994, 0.89775, -0.1376343, 0.89775, 0.8015267, 0.89775, -0.5725191, 0.89775, -4.9160304
0.1064118, -0.0139315, 0.9045, -0.0197754, 0.9045, -1.0084229, 0.9045, -0.1383057, 0.9045, 1.0839695, 0.9045, -0.4274809, 0.9045, -5.0839696
0.1072059, -0.0109102, 0.91125, -0.0189819, 0.91125, -1.0076904, 0.91125, -0.1383667, 0.91125, 0.6946565, 0.91125, -0.5114504, 0.91125, -4.8244276
0.108, -0.0092317, 0.918, -0.0178833, 0.918, -1.0039673, 0.918, -0.1353149, 0.918, 0.6412213, 0.918, -0.8396947, 0.918, -4.9236641
0.1087941, -0.0072175, 0.92475, -0.0241089, 0.92475, -1.0026855, 0.92475, -0.1382446, 0.92475, 0.9389313, 0.92475, -0.8473282, 0.92475, -5.1450381
0.1095882, -0.0082246, 0.9315, -0.0220947, 0.9315, -1.0053101, 0.9315, -0.135498, 0.9315, 0.3282443, 0.9315, -0.259542, 0.9315, -4.8015265
0.1103824, -0.0125887, 0.93825, -0.0159912, 0.93825, -1.0031128, 0.93825, -0.1360474, 0.93825, 0.2977099, 0.93825, -0.4503817, 0.93825, -4.6641221
0.1111765, -0.0132601, 0.945, -0.024231, 0.945, -1.0007324, 0.945, -0.1416626, 0.945, 0.0992366, 0.945, -0.9770992, 0.945, -4.5648856
0.1119706, -0.0109102, 0.95175, -0.0236206, 0.95175, -1.0020752, 0.95175, -0.1479492, 0.95175, 0.4656489, 0.95175, -1.3969465, 0.95175, -4.7938933
0.1127647, -0.0095674, 0.9585, -0.0231934, 0.9585, -1.0042725, 0.9585, -0.1460571, 0.9585, 0.519084, 0.9585, -1.259542, 0.9585, -4.6030536
0.1135588, -0.0068818, 0.96525, -0.0186768, 0.96525, -1.00354, 0.96525, -0.1474609, 0.96525, -0.0076336, 0.96525, -1.351145, 0.96525, -4.4580154
0.1143529, -0.008896, 0.972, -0.0192261, 0.972, -1.0046997, 0.972, -0.142395, 0.972, -0.0992366, 0.972, -1.2442749, 0.972, -4.4351144
0.1151471, -0.011078, 0.97875, -0.0231323, 0.97875, -1.0026245, 0.97875, -0.1482544, 0.97875, -0.4274809, 0.97875, -1.6412214, 0.97875, -4.5267177
0.1159412, -0.0104067, 0.9855, -0.0258789, 0.9855, -1.0065308, 0.9855, -0.1462402, 0.9855, -0.4885496, 0.9855, -1.7328244, 0.9855, -4.3282442
0.1167353, -0.0068818, 0.99225, -0.0202637, 0.99225, -1.0103149, 0.99225, -0.145752, 0.99225, -0.1603053, 0.99225, -1.5038168, 0.99225, -4.2442746
0.1175294, -0.005539, 0.999, -0.017395, 0.999, -1.0055542, 0.999, -0.1450195, 0.999, 0.3664122, 0.999, -1.5419847, 0.999, -4.2061067
0.1183235, -0.0077211, 1.00575, -0.0180664, 1.00575, -1.0059204, 1.00575, -0.1414795, 1.00575, 0.1679389, 1.00575, -1.2900764, 1.00575, -4.2290077
0.1191176, -0.0104067, 1.0125, -0.0194092, 1.0125, -1.0074463, 1.0125, -0.1389771, 1.0125, 0.1603053, 1.0125, -1.1755725, 1.0125, -4.2442746
0.1199118, -0.0130922, 1.01925, -0.0227051, 1.01925, -1.0064697, 1.01925, -0.1416016, 1.01925, 0.0839695, 1.01925, -0.8549618, 1.01925, -4
0.1207059, -0.0132601, 1.026, -0.0223389, 1.026, -1.0067749, 1.026, -0.142334, 1.026, 0.3129771, 1.026, -0.6564885, 1.026, -3.9541984
0.1215, -0.0152743, 1.03275, -0.0195312, 1.03275, -1.0026245, 1.03275, -0.1474609, 1.03275, 0.4885496, 1.03275, -0.4732825, 1.03275, -3.9770992
0.1222941, -0.0172885, 1.0395, -0.0185547, 1.0395, -1.0059814, 1.0395, -0.1459961, 1.0395, 0.4961832, 1.0395, -0.3206107, 1.0395, -3.9007633
0.1230882, -0.0243381, 1.04625, -0.0196533, 1.04625, -1.0028687, 1.04625, -0.1451416, 1.04625, 0.3587786, 1.04625, -0.3816794, 1.04625, -3.7709923
0.1238824, -0.0287022, 1.053, -0.0220947, 1.053, -1.0082397, 1.053, -0.1455688, 1.053, 0.2366412, 1.053, -0.4274809, 1.053, -3.7938931
0.1246765, -0.0250095, 1.05975, -0.0221558, 1.05975, -1.0060425, 1.05975, -0.1466064, 1.05975, 0.6717557, 1.05975, -0.1221374, 1.05975, -3.7480917
0.1254706, -0.021149, 1.0665, -0.0203247, 1.0665, -1.0071411, 1.0665, -0.1456299, 1.0665, 0.9007633, 1.0665, 0.2824427, 1.0665, -3.7251909
0.1262647, -0.018967, 1.07325, -0.013916, 1.07325, -1.0054321, 1.07325, -0.1472778, 1.07325, 1.0305344, 1.07325, 0.3969466, 1.07325, -3.6717558
0.1270588, -0.0193027, 1.08, -0.0150757, 1.08, -1.0031128, 1.08, -0.1494751, 1.08, 1.1221374, 1.08, 0.0381679, 1.08, -3.6717558
0.1278529, -0.0216526, 1.08675, -0.0192871, 1.08675, -0.9996338, 1.08675, -0.1530151, 1.08675, 1.2748091, 1.08675, -0.1068702, 1.08675, -3.7175572
0.1286471, -0.0182956, 1.0935, -0.020813, 1.0935, -1.0025024, 1.0935, -0.1514893, 1.0935, 1.129771, 1.0935, -0.0763359, 1.0935, -3.5648854
0.1294412, -0.0135958, 1.10025, -0.0202637, 1.10025, -1.0036621, 1.10025, -0.1524048, 1.10025, 1.0992366, 1.10025, 0.2290076, 1.10025, -3.5267177
0.1302353, -0.012253, 1.107, -0.0181885, 1.107, -1.0039673, 1.107, -0.1535034, 1.107, 0.7251908, 1.107, 0.8244275, 1.107, -3.259542
0.1310294, -0.0130922, 1.11375, -0.0150146, 1.11375, -1.0042114, 1.11375, -0.1506348, 1.11375, 0.4274809, 1.11375, 0.519084, 1.11375, -3.5801528
0.1318235, -0.0129244, 1.1205, -0.0183105, 1.1205, -1.0023804, 1.1205, -0.1495361, 1.1205, 0.3129771, 1.1205, 0.259542, 1.1205, -3.5038168
0.1326176, -0.0112459, 1.12725, -0.0230103, 1.12725, -1.0070801, 1.12725, -0.1470947, 1.12725, 0.2137405, 1.12725, 0.5877863, 1.12725, -3.6030533
0.1334118, -0.0109102, 1.134, -0.0193481, 1.134, -1.0090332, 1.134, -0.1453247, 1.134, 0.1908397, 1.134, 0.9770992, 1.134, -3.3053436
0.1342059, -0.0114137, 1.14075, -0.0186768, 1.14075, -1.0089722, 1.14075, -0.142395, 1.14075, 0.1374046, 1.14075, 0.8015267, 1.14075, -3.221374
0.135, -0.0068818, 1.1475, -0.017334, 1.1475, -1.0093994, 1.1475, -0.1430054, 1.1475, -0.0839695, 1.1475, 0.9923664, 1.1475, -2.8625953
0.1357941, -0.0075532, 1.15425, -0.0172119, 1.15425, -1.0077515, 1.15425, -0.1445312, 1.15425, 0.0916031, 1.15425, 1.4122137, 1.15425, -2.7480917
0.1365882, -0.0077211, 1.161, -0.0109863, 1.161, -1.0081177, 1.161, -0.1417236, 1.161, -0.0076336, 1.161, 1.5038168, 1.161, -2.8015268
0.1373824, -0.0102388, 1.16775, -0.0092163, 1.16775, -1.0087891, 1.16775, -0.1425781, 1.16775, -0.1908397, 1.16775, 1.5801526, 1.16775, -2.6641221
0.1381765, -0.0149386, 1.1745, -0.0133057, 1.1745, -1.0040283, 1.1745, -0.1533813, 1.1745, 0.221374, 1.1745, 1.6259542, 1.1745, -2.610687
0.1389706, -0.012253, 1.18125, -0.0128784, 1.18125, -1.0004883, 1.18125, -0.1547241, 1.18125, 0.221374, 1.18125, 1.4198474, 1.18125, -2.7328243
0.1397647, -0.0149386, 1.188, -0.0168457, 1.188, -1.006897, 1.188, -0.1543579, 1.188, -0.0763359, 1.188, 1.5267175, 1.188, -2.6793892
0.1405588, -0.0159457, 1.19475, -0.0203857, 1.19475, -1.0108643, 1.19475, -0.1503296, 1.19475, -0.0992366, 1.19475, 1.7175573, 1.19475, -2.3664122
0.1413529, -0.018967, 1.2015, -0.0193481, 1.2015, -1.0089111, 1.2015, -0.1463013, 1.2015, 0.2366412, 1.2015, 1.5419847, 1.2015, -2.480916
0.1421471, -0.0213169, 1.20825, -0.0228882, 1.20825, -1.0093994, 1.20825, -0.1450806, 1.20825, 0.4122137, 1.20825, 1.3435115, 1.20825, -2.7175572
0.1429412, -0.0206455, 1.215, -0.0263062, 1.215, -1.0064697, 1.215, -0.1486816, 1.215, 0.3664122, 1.215, 1.129771, 1.215, -2.480916
0.1437353, -0.0193027, 1.22175, -0.0286255, 1.22175, -1.0075684, 1.22175, -0.1481934, 1.22175, 0.2900763, 1.22175, 1.129771, 1.22175, -2.648855
0.1445294, -0.0193027, 1.2285, -0.0251465, 1.2285, -1.0070801, 1.2285, -0.1445312, 1.2285, 0.259542, 1.2285, 1.351145, 1.2285, -2.5038168
0.1453235, -0.0193027, 1.23525, -0.0219727, 1.23525, -1.0048828, 1.23525, -0.1444092, 1.23525, 0.3358779, 1.23525, 1.2061069, 1.23525, -2.7175572
0.1461176, -0.0171206, 1.242, -0.0233154, 1.242, -1.0045166, 1.242, -0.1439819, 1.242, 0.2748092, 1.242, 0.7175573, 1.242, -2.8625953
0.1469118, -0.01561, 1.24875, -0.024231, 1.24875, -1.0037231, 1.24875, -0.147583, 1.24875, 0.2748092, 1.24875, 0.9007633, 1.24875, -2.961832
0.1477059, -0.0162814, 1.2555, -0.0258789, 1.2555, -1.0018921, 1.2555, -0.1479492, 1.2555, -0.0992366, 1.2555, 1.0687023, 1.2555, -2.778626
0.1485, -0.0169528, 1.26225, -0.0282593, 1.26225, -1.0033569, 1.26225, -0.1506348, 1.26225, -0.0305344, 1.26225, 1.3053435, 1.26225, -2.6717558
0.1492941, -0.0179599, 1.269, -0.026001, 1.269, -1.0043945, 1.269, -0.1539307, 1.269, 0.0534351, 1.269, 0.9770992, 1.269, -2.8167939
0.1500882, -0.0135958, 1.27575, -0.0274658, 1.27575, -1.0010986, 1.27575, -0.1536255, 1.27575, -0.2900763, 1.27575, 1.0229008, 1.27575, -2.648855
0.1508824, -0.0114137, 1.2825, -0.0275879, 1.2825, -1.00177, 1.2825, -0.1488647, 1.2825, -0.3664122, 1.2825, 1.0687023, 1.2825, -2.7099237
0.1516765, -0.008896, 1.28925, -0.0280151, 1.28925, -1.0074463, 1.28925, -0.1481934, 1.28925, -0.0610687, 1.28925, 0.7022901, 1.28925, -2.6717558
0.1524706, -0.0070497, 1.296, -0.0297241, 1.296, -1.0043335, 1.296, -0.1502686, 1.296, -0.1374046, 1.296, 0.5954198, 1.296, -2.6412213
0.1532647, -0.0057069, 1.30275, -0.0210571, 1.30275, -1.0018921, 1.30275, -0.1499023, 1.30275, -0.2290076, 1.30275, 0.778626, 1.30275, -2.6183207
0.1540588, -0.0041962, 1.3095, -0.0187378, 1.3095, -1.0039062, 1.3095, -0.1520386, 1.3095, -0.3053435, 1.3095, 1.038168, 1.3095, -2.6641221
0.1548529, -0.0031891, 1.31625, -0.0202637, 1.31625, -1.0065918, 1.31625, -0.15271, 1.31625, -0.1755725, 1.31625, 0.9541985, 1.31625, -2.5954199
0.1556471, -0.0072175, 1.323, -0.0200806, 1.323, -1.0078125, 1.323, -0.1474609, 1.323, 0.1221374, 1.323, 1.0229008, 1.323, -2.6641221
0.1564412, -0.0124208, 1.32975, -0.0236206, 1.32975, -1.0062866, 1.32975, -0.1463013, 1.32975, 0.0992366, 1.32975, 1.2366412, 1.32975, -2.5648854
0.1572353, -0.0162814, 1.3365, -0.0211792, 1.3365, -1.0089111, 1.3365, -0.1468506, 1.3365, 0.4198473, 1.3365, 1.4503816, 1.3365, -2.610687
0.1580294, -0.0176242, 1.34325, -0.0212402, 1.34325, -1.0074463, 1.34325, -0.1516724, 1.34325, 0.778626, 1.34325, 1.610687, 1.34325, -2.4351146
0.1588235, -0.0142672, 1.35, -0.0275269, 1.35, -1.0037231, 1.35, -0.1547241, 1.35, 0.9770992, 1.35, 1.3206106, 1.35, -2.480916
0.1596176, -0.0162814, 1.35675, -0.0303345, 1.35675, -1.0046387, 1.35675, -0.1520386, 1.35675, 0.778626, 1.35675, 1.0763359, 1.35675, -2.6259542
0.1604118, -0.0198062, 1.3635, -0.0328369, 1.3635, -1.0043945, 1.3635, -0.1532593, 1.3635, 0.3664122, 1.3635, 1.0992366, 1.3635, -2.5877862
0.1612059, -0.0182956, 1.37025, -0.0314331, 1.37025, -1.0068359, 1.37025, -0.1543579, 1.37025, 0.3816794, 1.37025, 0.7862595, 1.37025, -2.5038168
0.162, -0.0166171, 1.377, -0.0280762, 1.377, -1.0083618, 1.377, -0.1518555, 1.377, 0.1145038, 1.377, 0.7862595, 1.377, -2.2366412
0.1627941, -0.0162814, 1.38375, -0.0259399, 1.38375, -1.0062256, 1.38375, -0.1528931, 1.38375, 0.0992366, 1.38375, 0.9541985, 1.38375, -2.259542
0.1635882, -0.0166171, 1.3905, -0.0241089, 1.3905, -1.0039673, 1.3905, -0.1550903, 1.3905, -0.2519084, 1.3905, 1.1832061, 1.3905, -2.1832061
0.1643824, -0.0162814, 1.39725, -0.0236816, 1.39725, -1.0021362, 1.39725, -0.1514282, 1.39725, -0.8091603, 1.39725, 1.3435115, 1.39725, -2.3664122
0.1651765, -0.014435, 1.404, -0.024292, 1.404, -1.0009766, 1.404, -0.1505127, 1.404, -0.8091603, 1.404, 1.091603, 1.404, -2.3664122
0.1659706, -0.0164492, 1.41075, -0.0258179, 1.41075, -1.0054932, 1.41075, -0.1503906, 1.41075, -0.9389313, 1.41075, 1.0992366, 1.41075, -2.5648854
0.1667647, -0.0176242, 1.4175, -0.0263672, 1.4175, -1.0073242, 1.4175, -0.1517944, 1.4175, -1.1374046, 1.4175, 1.5496184, 1.4175, -2.3435113
0.1675588, -0.0149386, 1.42425, -0.0253906, 1.42425, -1.0090942, 1.42425, -0.1450806, 1.42425, -1.2442749, 1.42425, 1.480916, 1.42425, -2.1526718
0.1683529, -0.0186313, 1.431, -0.0274658, 1.431, -1.0083008, 1.431, -0.1438599, 1.431, -1.1068702, 1.431, 1.5801526, 1.431, -2.2748091
0.1691471, -0.0182956, 1.43775, -0.0275879, 1.43775, -1.0054932, 1.43775, -0.1508179, 1.43775, -1.129771, 1.43775, 1.7022901, 1.43775, -2.3969467
0.1699412, -0.0176242, 1.4445, -0.0270996, 1.4445, -1.005188, 1.4445, -0.1529541, 1.4445, -1.1145039, 1.4445, 1.6183206, 1.4445, -2.4580152
0.1707353, -0.0186313, 1.45125, -0.0293579, 1.45125, -1.0059814, 1.45125, -0.1533813, 1.45125, -0.9770992, 1.45125, 1.8167939, 1.45125, -2.5114503
0.1715294, -0.0119173, 1.458, -0.0290527, 1.458, -1.0020142, 1.458, -0.1511841, 1.458, -0.9389313, 1.458, 1.9160305, 1.458, -2.3129771
0.1723235, -0.0070497, 1.46475, -0.026123, 1.46475, -1.0028076, 1.46475, -0.1566162, 1.46475, -0.8167939, 1.46475, 1.6412214, 1.46475, -2.4122138
0.1731176, -0.0085603, 1.4715, -0.0280151, 1.4715, -1.0029297, 1.4715, -0.1573486, 1.4715, -0.6259542, 1.4715, 1.3435115, 1.4715, -2.2824428
0.1739118, -0.011078, 1.47825, -0.0281982, 1.47825, -1.0054321, 1.47825, -0.1521606, 1.47825, -0.3129771, 1.47825, 1.5267175, 1.47825, -2.480916
0.1747059, -0.0105745, 1.485, -0.0214233, 1.485, -1.0050049, 1.485, -0.1533203, 1.485, -0.1068702, 1.485, 1.5572519, 1.485, -2.4427481
0.1755, -0.0152743, 1.49175, -0.0250854, 1.49175, -1.0050659, 1.49175, -0.1528931, 1.49175, -0.0381679, 1.49175, 1.3740458, 1.49175, -2.6564887
0.1762941, -0.0171206, 1.4985, -0.0234375, 1.4985, -1.0058594, 1.4985, -0.1563721, 1.4985, 0.1679389, 1.4985, 1.3282443, 1.4985, -2.6412213
0.1770882, -0.0186313, 1.50525, -0.0265503, 1.50525, -1.0023193, 1.50525, -0.1585083, 1.50525, 0.2824427, 1.50525, 1.2519084, 1.50525, -2.7557251
0.1778824, -0.0206455, 1.512, -0.0239868, 1.512, -1.0080566, 1.512, -0.1548462, 1.512, 0.3053435, 1.512, 1.3435115, 1.512, -2.6030533
0.1786765, -0.0218204, 1.51875, -0.0241089, 1.51875, -1.0124512, 1.51875, -0.1552124, 1.51875, 0.3664122, 1.51875, 1.5267175, 1.51875, -2.6183207
0.1794706, -0.0250095, 1.5255, -0.0264893, 1.5255, -1.0106812, 1.5255, -0.1576538, 1.5255, 0.6793893, 1.5255, 1.4580153, 1.5255, -2.7328243
0.1802647, -0.026688, 1.53225, -0.0325928, 1.53225, -1.0026245, 1.53225, -0.1624146, 1.53225, 0.6335878, 1.53225, 1.3587786, 1.53225, -2.778626
0.1810588, -0.0236667, 1.539, -0.036499, 1.539, -1.0013428, 1.539, -0.1639404, 1.539, 0.3969466, 1.539, 1.5877863, 1.539, -2.7022901
0.1818529, -0.0196384, 1.54575, -0.0374756, 1.54575, -1.0062866, 1.54575, -0.1595459, 1.54575, 0.1984733, 1.54575, 1.6335878, 1.54575, -2.7557251
0.1826471, -0.014435, 1.5525, -0.038269, 1.5525, -1.0082397, 1.5525, -0.1594238, 1.5525, 0.5343512, 1.5525, 1.2824427, 1.5525, -2.7862597
0.1834412, -0.0129244, 1.55925, -0.0354614, 1.55925, -1.0073242, 1.55925, -0.1570435, 1.55925, 0.5267175, 1.55925, 1.091603, 1.55925, -2.8167939
0.1842353, -0.0117494, 1.566, -0.0340576, 1.566, -1.0018311, 1.566, -0.1599731, 1.566, 0.4503817, 1.566, 1.3358779, 1.566, -2.8167939
0.1850294, -0.011078, 1.57275, -0.0303345, 1.57275, -1.0025024, 1.57275, -0.1547241, 1.57275, 0.4732825, 1.57275, 1.5038168, 1.57275, -2.7938931
0.1858235, -0.0135958, 1.5795, -0.0275879, 1.5795, -1.0036621, 1.5795, -0.1506348, 1.5795, 0.4351145, 1.5795, 1.2442749, 1.5795, -2.8167939
0.1866176, -0.0152743, 1.58625, -0.0304565, 1.58625, -1.0056763, 1.58625, -0.1572876, 1.58625, 0.0763359, 1.58625, 1.1832061, 1.58625, -3.038168
0.1874118, -0.0162814, 1.593, -0.0324707, 1.593, -1.0043335, 1.593, -0.1596069, 1.593, -0.7251908, 1.593, 1.4885496, 1.593, -2.961832
0.1882059, -0.0149386, 1.59975, -0.0282593, 1.59975, -1.0032349, 1.59975, -0.1574097, 1.59975, -1.1755725, 1.59975, 1.0229008, 1.59975, -2.9236641
0.189, -0.0095674, 1.6065, -0.0285645, 1.6065, -0.9994507, 1.6065, -0.1595459, 1.6065, -1.4656489, 1.6065, 1.3129771, 1.6065, -2.9694657
0.1897941, -0.0095674, 1.61325, -0.0256958, 1.61325, -1.0020142, 1.61325, -0.1523438, 1.61325, -1.6335878, 1.61325, 0.9389313, 1.61325, -3
0.1905882, -0.0115816, 1.62, -0.0281982, 1.62, -1.0054321, 1.62, -0.1537476, 1.62, -1.6030535, 1.62, 0.8549618, 1.62, -2.9923663
0.1913824, -0.0149386, 1.62675, -0.0326538, 1.62675, -1.0043335, 1.62675, -0.1550293, 1.62675, -1.6564885, 1.62675, 1.0610687, 1.62675, -2.9694657
0.1921765, -0.0112459, 1.6335, -0.0333252, 1.6335, -1.0042114, 1.6335, -0.1549683, 1.6335, -1.0763359, 1.6335, 0.7938932, 1.6335, -3.038168
0.1929706, -0.0109102, 1.64025, -0.0321045, 1.64025, -1.0028076, 1.64025, -0.1600342, 1.64025, -0.8167939, 1.64025, 0.6946565, 1.64025, -3.1984732
0.1937647, -0.0112459, 1.647, -0.0336304, 1.647, -1.0056763, 1.647, -0.1613159, 1.647, -1.0305344, 1.647, 0.9541985, 1.647, -3.2442749
0.1945588, -0.012253, 1.65375, -0.0318604, 1.65375, -1.0090332, 1.65375, -0.1605225, 1.65375, -0.8854962, 1.65375, 0.7251908, 1.65375, -3.038168
0.1953529, -0.0115816, 1.6605, -0.0339966, 1.6605, -1.0046997, 1.6605, -0.1637573, 1.6605, -0.5267175, 1.6605, 0.6259542, 1.6605, -3.0839694
0.1961471, -0.0105745, 1.66725, -0.0336304, 1.66725, -1.0105591, 1.66725, -0.168335, 1.66725, -0.0534351, 1.66725, 0.6412213, 1.66725, -3.1145039
0.1969412, -0.008896, 1.674, -0.0298462, 1.674, -1.0081787, 1.674, -0.1668091, 1.674, -0.0458015, 1.674, 0.6946565, 1.674, -3.1908398
0.1977353, -0.0068818, 1.68075, -0.0279541, 1.68075, -1.0094604, 1.68075, -0.1661987, 1.68075, 0.3053435, 1.68075, 0.6030535, 1.68075, -3.1068702
0.1985294, -0.0063783, 1.6875, -0.0258789, 1.6875, -1.0084839, 1.6875, -0.1671143, 1.6875, 0.5038168, 1.6875, 0.4732825, 1.6875, -3.2290077
0.1993235, -0.0075532, 1.69425, -0.0255127, 1.69425, -1.0050659, 1.69425, -0.163269, 1.69425, 0.4961832, 1.69425, 0.2900763, 1.69425, -3.4580152
0.2001176, -0.002182, 1.701, -0.0292969, 1.701, -1.00354, 1.701, -0.1663208, 1.701, 0.5419847, 1.701, -0.0381679, 1.701, -3.3740458
0.2009118, -0.0041962, 1.70775, -0.0282593, 1.70775, -1.0062256, 1.70775, -0.1596069, 1.70775, 0.351145, 1.70775, 0.221374, 1.70775, -3.3816793
0.2017059, -0.0072175, 1.7145, -0.0298462, 1.7145, -1.0022583, 1.7145, -0.1572266, 1.7145, 0.5648855, 1.7145, 0.129771, 1.7145, -3.2900763
0.2025, -0.0085603, 1.72125, -0.0340576, 1.72125, -0.9993896, 1.72125, -0.1542969, 1.72125, 0.6717557, 1.72125, -0.0992366, 1.72125, -3.4732823
0.2032941, -0.0092317, 1.728, -0.0368652, 1.728, -0.9979858, 1.728, -0.1560059, 1.728, 0.4732825, 1.728, -0.4656489, 1.728, -3.5343511
0.2040882, -0.0109102, 1.73475, -0.0357056, 1.73475, -0.9985352, 1.73475, -0.1585083, 1.73475, 0.3435115, 1.73475, -0.6030535, 1.73475, -3.4045801
0.2048824, -0.0152743, 1.7415, -0.0375977, 1.7415, -1.0021973, 1.7415, -0.1531982, 1.7415, 0.4580153, 1.7415, -0.9923664, 1.7415, -3.5496182
0.2056765, -0.0179599, 1.74825, -0.0358276, 1.74825, -1.0004272, 1.74825, -0.1571045, 1.74825, 0.4503817, 1.74825, -1.1755725, 1.74825, -3.6564887
0.2064706, -0.0223239, 1.755, -0.0341187, 1.755, -1.0021973, 1.755, -0.1575317, 1.755, 0.3664122, 1.755, -1.1145039, 1.755, -3.7022901
0.2072647, -0.0193027, 1.76175, -0.0310059, 1.76175, -1.0053711, 1.76175, -0.1629028, 1.76175, 0.5419847, 1.76175, -1.3435115, 1.76175, -3.870229
0.2080588, -0.01561, 1.7685, -0.0302734, 1.7685, -1.0074463, 1.7685, -0.1661987, 1.7685, 0.610687, 1.7685, -1.5114504, 1.7685, -3.870229
0.2088529, -0.0176242, 1.77525, -0.02771, 1.77525, -1.0062256, 1.77525, -0.1712646, 1.77525, 0.6946565, 1.77525, -1.351145, 1.77525, -3.961832
0.2096471, -0.0203098, 1.782, -0.027832, 1.782, -1.0042725, 1.782, -0.1704712, 1.782, 1.0839695, 1.782, -1.5114504, 1.782, -3.9541984
0.2104412, -0.0184634, 1.78875, -0.0265503, 1.78875, -1.007019, 1.78875, -0.1692505, 1.78875, 1.4732825, 1.78875, -1.3969465, 1.78875, -4.0458016
0.2112353, -0.0176242, 1.7955, -0.0233154, 1.7955, -1.0122681, 1.7955, -0.1709595, 1.7955, 1.4580153, 1.7955, -1.3358779, 1.7955, -3.9541984
0.2120294, -0.0172885, 1.80225, -0.0231934, 1.80225, -1.0114136, 1.80225, -0.1738281, 1.80225, 1.7480916, 1.80225, -1.2900764, 1.80225, -3.8854961
0.2128235, -0.01561, 1.809, -0.0273438, 1.809, -1.0081177, 1.809, -0.1759033, 1.809, 1.9770992, 1.809, -0.7709923, 1.809, -3.8625953
0.2136176, -0.0135958, 1.81575, -0.0276489, 1.81575, -1.0073853, 1.81575, -0.1799316, 1.81575, 1.8091604, 1.81575, -0.7099237, 1.81575, -3.7328243
0.2144118, -0.012253, 1.8225, -0.024353, 1.8225, -1.0089722, 1.8225, -0.1730347, 1.8225, 1.4503816, 1.8225, -0.6564885, 1.8225, -3.6870229
0.2152059, -0.0130922, 1.82925, -0.0239258, 1.82925, -1.0113525, 1.82925, -0.1738892, 1.82925, 1.519084, 1.82925, -0.4885496, 1.82925, -3.5343511
0.216, -0.0172885, 1.836, -0.0196533, 1.836, -1.0072021, 1.836, -0.166748, 1.836, 1.9236641, 1.836, -0.1832061, 1.836, -3.5419848
0.2167941, -0.0169528, 1.84275, -0.0222168, 1.84275, -1.0078125, 1.84275, -0.1687622, 1.84275, 2.2442749, 1.84275, 0.2290076, 1.84275, -3.6564887
0.2175882, -0.0115816, 1.8495, -0.0179443, 1.8495, -1.0094604, 1.8495, -0.1740723, 1.8495, 2.3435113, 1.8495, 0.8167939, 1.8495, -3.4503818
0.2183824, -0.0099031, 1.85625, -0.0184937, 1.85625, -1.0064087, 1.85625, -0.1697998, 1.85625, 2.3435113, 1.85625, 0.9847328, 1.85625, -3.5496182
0.2191765, -0.0085603, 1.863, -0.0206909, 1.863, -1.0090942, 1.863, -0.1644287, 1.863, 2.259542, 1.863, 1.1374046, 1.863, -3.480916
0.2199706, -0.008896, 1.86975, -0.0227661, 1.86975, -1.0095825, 1.86975, -0.1665649, 1.86975, 2.3358779, 1.86975, 1.0763359, 1.86975, -3.5725191
0.2207647, -0.0105745, 1.8765, -0.0213623, 1.8765, -1.0102539, 1.8765, -0.1676636, 1.8765, 2.6259542, 1.8765, 1.1755725, 1.8765, -3.389313
0.2215588, -0.0135958, 1.88325, -0.0240479, 1.88325, -1.008728, 1.88325, -0.1660156, 1.88325, 2.8167939, 1.88325, 1.519084, 1.88325, -3.4198472
0.2223529, -0.0130922, 1.89, -0.0199585, 1.89, -1.0067749, 1.89, -0.1675415, 1.89, 3.0229008, 1.89, 1.9160305, 1.89, -3.3206108
0.2231471, -0.0085603, 1.89675, -0.0244141, 1.89675, -1.0089111, 1.89675, -0.1720581, 1.89675, 3.1755726, 1.89675, 1.8320611, 1.89675, -3.2977099
0.2239412, -0.0109102, 1.9035, -0.0237427, 1.9035, -1.0091553, 1.9035, -0.1686401, 1.9035, 3.2824428, 1.9035, 2.0076337, 1.9035, -3.351145
0.2247353, -0.0142672, 1.91025, -0.022583, 1.91025, -1.0045776, 1.91025, -0.1702271, 1.91025, 3.3129771, 1.91025, 2.1679389, 1.91025, -3.1450381
0.2255294, -0.0119173, 1.917, -0.0230713, 1.917, -1.0090942, 1.917, -0.1660156, 1.917, 3.3206108, 1.917, 2.1145039, 1.917, -3.1832061
0.2263235, -0.0125887, 1.92375, -0.024231, 1.92375, -1.0064697, 1.92375, -0.1637573, 1.92375, 3.351145, 1.92375, 1.9236641, 1.92375, -3.4427481
0.2271176, -0.0135958, 1.9305, -0.0232544, 1.9305, -1.0070801, 1.9305, -0.159668, 1.9305, 3.2671757, 1.9305, 2.129771, 1.9305, -3.1679389
0.2279118, -0.0132601, 1.93725, -0.0228882, 1.93725, -1.0076294, 1.93725, -0.1574707, 1.93725, 3.480916, 1.93725, 2.1450381, 1.93725, -3.2900763
0.2287059, -0.0099031, 1.944, -0.0265503, 1.944, -1.0039673, 1.944, -0.1581421, 1.944, 3.6870229, 1.944, 2.3129771, 1.944, -3.1450381
0.2295, -0.0095674, 1.95075, -0.0266724, 1.95075, -1.0025635, 1.95075, -0.157959, 1.95075, 3.5801528, 1.95075, 2.5038168, 1.95075, -3.1679389
0.2302941, -0.0095674, 1.9575, -0.0266113, 1.9575, -1.0053101, 1.9575, -0.1566162, 1.9575, 3.389313, 1.9575, 2.3816793, 1.9575, -3.1755726
0.2310882, -0.0068818, 1.96425, -0.0278931, 1.96425, -1.0054932, 1.96425, -0.1516724, 1.96425, 3.4351146, 1.96425, 2.3969467, 1.96425, -3.129771
0.2318824, -0.0075532, 1.971, -0.0302734, 1.971, -1.0061646, 1.971, -0.1525269, 1.971, 3.610687, 1.971, 2.1374047, 1.971, -3.2977099
0.2326765, -0.0083925, 1.97775, -0.0284424, 1.97775, -1.0037842, 1.97775, -0.1499023, 1.97775, 3.7328243, 1.97775, 2.2900763, 1.97775, -3.3740458
0.2334706, -0.0082246, 1.9845, -0.0303955, 1.9845, -1.0050049, 1.9845, -0.1521606, 1.9845, 3.6183207, 1.9845, 2.3282442, 1.9845, -3.2671757
0.2342647, -0.0077211, 1.99125, -0.0263062, 1.99125, -1.0042114, 1.99125, -0.1523438, 1.99125, 3.5114503, 1.99125, 2.0610688, 1.99125, -3.3358779
0.2350588, -0.0129244, 1.998, -0.0267334, 1.998, -1.0048828, 1.998, -0.1524048, 1.998, 3.4961832, 1.998, 1.4045801, 1.998, -3.2671757
0.2358529, -0.0166171, 2.00475, -0.0302734, 2.00475, -1.008728, 2.00475, -0.1503906, 2.00475, 3.5038168, 2.00475, 1.6641221, 2.00475, -3.1450381
0.2366471, -0.0176242, 2.0115, -0.0292358, 2.0115, -1.0060425, 2.0115, -0.1526489, 2.0115, 3.5114503, 2.0115, 1.7862595, 2.0115, -3.2290077
0.2374412, -0.0229953, 2.01825, -0.026001, 2.01825, -1.0036621, 2.01825, -0.151062, 2.01825, 3.7938931, 2.01825, 1.8473282, 2.01825, -3.2137403
0.2382353, -0.0218204, 2.025, -0.0241699, 2.025, -1.0059204, 2.025, -0.1547241, 2.025, 3.6335878, 2.025, 1.6335878, 2.025, -3.2366412
0.2390294, -0.0159457, 2.03175, -0.0300293, 2.03175, -1.0050049, 2.03175, -0.1570435, 2.03175, 3.5725191, 2.03175, 1.4732825, 2.03175, -3.2442749
0.2398235, -0.0082246, 2.0385, -0.0275879, 2.0385, -1.0074463, 2.0385, -0.1559448, 2.0385, 3.4351146, 2.0385, 1.6030535, 2.0385, -3.0763359
0.2406176, -0.0015106, 2.04525, -0.0197754, 2.04525, -1.0075073, 2.04525, -0.1577759, 2.04525, 3.3664122, 2.04525, 1.2824427, 2.04525, -2.9694657
0.2414118, -0.0062104, 2.052, -0.0188599, 2.052, -1.0061646, 2.052, -0.1549683, 2.052, 3.1374047, 2.052, 1.221374, 2.052, -2.8854961
0.2422059, -0.0082246, 2.05875, -0.0214844, 2.05875, -1.0058594, 2.05875, -0.1575317, 2.05875, 3.2366412, 2.05875, 1.8244275, 2.05875, -2.7251909
0.243, -0.0102388, 2.0655, -0.0214844, 2.0655, -1.0031128, 2.0655, -0.1557617, 2.0655, 2.870229, 2.0655, 1.7022901, 2.0655, -2.7709923
0.2437941, -0.0229953, 2.07225, -0.0232544, 2.07225, -1.0054932, 2.07225, -0.1524048, 2.07225, 3.038168, 2.07225, 1.7709924, 2.07225, -2.8931298
0.2445882, -0.0250095, 2.079, -0.0286865, 2.079, -1.0065308, 2.079, -0.1499023, 2.079, 3.4045801, 2.079, 1.7633588, 2.079, -2.8091602
0.2453824, -0.0216526, 2.08575, -0.0316162, 2.08575, -1.0062866, 2.08575, -0.1447144, 2.08575, 3.5267177, 2.08575, 2.0076337, 2.08575, -2.7480917
0.2461765, -0.0203098, 2.0925, -0.0344849, 2.0925, -1.0014038, 2.0925, -0.147522, 2.0925, 3.4885497, 2.0925, 1.4961832, 2.0925, -2.8244274
0.2469706, -0.021149, 2.09925, -0.0349731, 2.09925, -1.0062866, 2.09925, -0.1489868, 2.09925, 3.3587787, 2.09925, 1.038168, 2.09925, -2.8396947
0.2477647, -0.0231632, 2.106, -0.0320435, 2.106, -1.0048218, 2.106, -0.1503906, 2.106, 3.3587787, 2.106, 1.0839695, 2.106, -2.8244274
0.2485588, -0.0229953, 2.11275, -0.0310669, 2.11275, -1.0019531, 2.11275, -0.149231, 2.11275, 3.5725191, 2.11275, 1, 2.11275, -2.7862597
0.2493529, -0.0243381, 2.1195, -0.0297852, 2.1195, -1.0044556, 2.1195, -0.1495361, 2.1195, 3.5572519, 2.1195, 0.4961832, 2.1195, -3.0076337
0.2501471, -0.0206455, 2.12625, -0.0297852, 2.12625, -1.0020752, 2.12625, -0.1463013, 2.12625, 3.6183207, 2.12625, 0.2290076, 2.12625, -2.9847329
0.2509412, -0.0218204, 2.133, -0.0270996, 2.133, -1.0077515, 2.133, -0.1455688, 2.133, 3.6183207, 2.133, 0.3740458, 2.133, -2.961832
0.2517353, -0.0216526, 2.13975, -0.0275879, 2.13975, -1.0068359, 2.13975, -0.1422729, 2.13975, 3.7938931, 2.13975, 0.0992366, 2.13975, -2.9465649
0.2525294, -0.0182956, 2.1465, -0.0279541, 2.1465, -1.0063477, 2.1465, -0.1473999, 2.1465, 3.6335878, 2.1465, -0.2061069, 2.1465, -2.9312978
0.2533235, -0.0196384, 2.15325, -0.0302734, 2.15325, -1.0049438, 2.15325, -0.1437988, 2.15325, 3.5801528, 2.15325, -0.2290076, 2.15325, -2.8320611
0.2541176, -0.0216526, 2.16, -0.0261841, 2.16, -1.0021362, 2.16, -0.1414185, 2.16, 3.8396947, 2.16, -0.2290076, 2.16, -2.8625953
0.2549118, -0.0251774, 2.16675, -0.0281982, 2.16675, -1.0015869, 2.16675, -0.1456299, 2.16675, 3.7938931, 2.16675, -0.1603053, 2.16675, -2.7709923
0.2557059, -0.0238346, 2.1735, -0.0294189, 2.1735, -0.999939, 2.1735, -0.1435547, 2.1735, 3.4885497, 2.1735, -0.6641222, 2.1735, -2.7328243
0.2565, -0.0240024, 2.18025, -0.0297241, 2.18025, -1.0050659, 2.18025, -0.1378784, 2.18025, 3.351145, 2.18025, -0.870229, 2.18025, -2.740458
0.2572941, -0.0290379, 2.187, -0.0278931, 2.187, -1.0058594, 2.187, -0.1364746, 2.187, 3.4656489, 2.187, -1.129771, 2.187, -2.8931298
0.2580882, -0.027863, 2.19375, -0.0274658, 2.19375, -1.0060425, 2.19375, -0.1381836, 2.19375, 3.3435113, 2.19375, -1.0687023, 2.19375, -2.908397
0.2588824, -0.026688, 2.2005, -0.0256958, 2.2005, -1.0078125, 2.2005, -0.140686, 2.2005, 2.908397, 2.2005, -0.8320611, 2.2005, -2.8931298
0.2596765, -0.0270237, 2.20725, -0.0270386, 2.20725, -1.0085449, 2.20725, -0.1412964, 2.20725, 2.8320611, 2.20725, -0.5038168, 2.20725, -2.6717558
0.2604706, -0.0218204, 2.214, -0.0310059, 2.214, -1.0025635, 2.214, -0.1436768, 2.214, 2.6717558, 2.214, -0.7328244, 2.214, -2.8244274
0.2612647, -0.0206455, 2.22075, -0.0355835, 2.22075, -1.0050659, 2.22075, -0.140625, 2.22075, 2.3587787, 2.22075, -1.2977099, 2.22075, -2.870229
0.2620588, -0.0193027, 2.2275, -0.0352783, 2.2275, -1.0066528, 2.2275, -0.1370239, 2.2275, 2.3587787, 2.2275, -1.2137405, 2.2275, -2.778626
0.2628529, -0.0159457, 2.23425, -0.0322266, 2.23425, -1.0048828, 2.23425, -0.1400757, 2.23425, 2.1679389, 2.23425, -1.3206106, 2.23425, -2.6030533
0.2636471, -0.0130922, 2.241, -0.0291748, 2.241, -1.0032349, 2.241, -0.1484985, 2.241, 2.0992367, 2.241, -1.7328244, 2.241, -2.7480917
0.2644412, -0.0119173, 2.24775, -0.0258179, 2.24775, -1.0001221, 2.24775, -0.1429443, 2.24775, 2.2519083, 2.24775, -1.6183206, 2.24775, -2.6183207
0.2652353, -0.0109102, 2.2545, -0.0194702, 2.2545, -0.9992676, 2.2545, -0.145813, 2.2545, 2.1526718, 2.2545, -1.3129771, 2.2545, -2.5038168
0.2660294, -0.0129244, 2.26125, -0.0236206, 2.26125, -1.00177, 2.26125, -0.1470947, 2.26125, 2.1832061, 2.26125, -1.4045801, 2.26125, -2.5267177
0.2668235, -0.010071, 2.268, -0.0239258, 2.268, -1.00354, 2.268, -0.1470947, 2.268, 2.1526718, 2.268, -1.6641221, 2.268, -2.5572519
0.2676176, -0.0035248, 2.27475, -0.0261841, 2.27475, -1.0045166, 2.27475, -0.1460571, 2.27475, 2.1679389, 2.27475, -1.519084, 2.27475, -2.6030533
0.2684118, -0.0050355, 2.2815, -0.024292, 2.2815, -1.0078735, 2.2815, -0.1469727, 2.2815, 2.2061069, 2.2815, -1.4732825, 2.2815, -2.3816793
0.2692059, -0.0072175, 2.28825, -0.0256958, 2.28825, -1.0098877, 2.28825, -0.1442261, 2.28825, 2.610687, 2.28825, -1.1908396, 2.28825, -2.3358779
0.27, -0.0099031, 2.295, -0.0264282, 2.295, -1.0097046, 2.295, -0.144104, 2.295, 2.4961832, 2.295, -1.351145, 2.295, -2.5038168
0.2707941, -0.0092317, 2.30175, -0.0258179, 2.30175, -1.0076904, 2.30175, -0.1442871, 2.30175, 2.5648854, 2.30175, -1.9312977, 2.30175, -2.6564887
0.2715882, -0.011078, 2.3085, -0.0279541, 2.3085, -1.0068359, 2.3085, -0.1443481, 2.3085, 2.5114503, 2.3085, -1.9236641, 2.3085, -2.740458
0.2723824, -0.0152743, 2.31525, -0.0269165, 2.31525, -1.0063477, 2.31525, -0.1426392, 2.31525, 2.5343511, 2.31525, -1.8473282, 2.31525, -2.8244274
0.2731765, -0.0162814, 2.322, -0.0257568, 2.322, -1.0079346, 2.322, -0.1381836, 2.322, 2.4427481, 2.322, -1.4961832, 2.322, -2.7099237
0.2739706, -0.0137636, 2.32875, -0.0263672, 2.32875, -1.0040894, 2.32875, -0.135437, 2.32875, 2.5572519, 2.32875, -1.4885496, 2.32875, -2.6793892
0.2747647, -0.008896, 2.3355, -0.0308838, 2.3355, -1.0019531, 2.3355, -0.1390991, 2.3355, 2.4351146, 2.3355, -1.2900764, 2.3355, -2.7099237
0.2755588, -0.0041962, 2.34225, -0.0339355, 2.34225, -1.0027466, 2.34225, -0.1405029, 2.34225, 2.2671757, 2.34225, -1.2137405, 2.34225, -2.4580152
0.2763529, -0.005539, 2.349, -0.0342407, 2.349, -1.0011597, 2.349, -0.1409302, 2.349, 2.3740458, 2.349, -1.129771, 2.349, -2.3664122
0.2771471, -0.0082246, 2.35575, -0.0310669, 2.35575, -0.9996338, 2.35575, -0.1403198, 2.35575, 2.4885497, 2.35575, -1.7480916, 2.35575, -2.5267177
0.2779412, -0.0109102, 2.3625, -0.0284424, 2.3625, -1.0004272, 2.3625, -0.1380615, 2.3625, 2.480916, 2.3625, -1.8320611, 2.3625, -2.4961832
0.2787353, -0.0095674, 2.36925, -0.026123, 2.36925, -1.0010986, 2.36925, -0.138855, 2.36925, 2.5496182, 2.36925, -1.4351145, 2.36925, -2.4656489
0.2795294, -0.0078889, 2.376, -0.0249023, 2.376, -1.0037231, 2.376, -0.1408691, 2.376, 2.6564887, 2.376, -1.389313, 2.376, -2.519084
0.2803235, -0.0109102, 2.38275, -0.0263062, 2.38275, -1.00177, 2.38275, -0.1396484, 2.38275, 2.6717558, 2.38275, -1.3282443, 2.38275, -2.4045801
0.2811176, -0.0092317, 2.3895, -0.026123, 2.3895, -1.0060425, 2.3895, -0.1420288, 2.3895, 2.4351146, 2.3895, -1.1068702, 2.3895, -2.5954199
0.2819118, -0.0135958, 2.39625, -0.024353, 2.39625, -1.0065308, 2.39625, -0.1399536, 2.39625, 2.2519083, 2.39625, -0.8473282, 2.39625, -2.4274809
0.2827059, -0.0184634, 2.403, -0.0292358, 2.403, -1.0045166, 2.403, -0.1386719, 2.403, 2.2977099, 2.403, -0.7328244, 2.403, -2.480916
0.2835, -0.0169528, 2.40975, -0.0299683, 2.40975, -1.0053101, 2.40975, -0.1412964, 2.40975, 2.2900763, 2.40975, -0.3358779, 2.40975, -2.3664122
0.2842941, -0.01561, 2.4165, -0.0308228, 2.4165, -1.005249, 2.4165, -0.1430054, 2.4165, 2.1908398, 2.4165, -0.4732825, 2.4165, -2.2977099
0.2850882, -0.0129244, 2.42325, -0.0316772, 2.42325, -1.0015869, 2.42325, -0.1401978, 2.42325, 2.0687022, 2.42325, -0.519084, 2.42325, -2.4427481
0.2858824, -0.0102388, 2.43, -0.0303345, 2.43, -1.0018311, 2.43, -0.1365356, 2.43, 2.1603053, 2.43, -1.0534351, 2.43, -2.4351146
0.2866765, -0.0075532, 2.43675, -0.0385132, 2.43675, -1.0032349, 2.43675, -0.1349487, 2.43675, 2.1755726, 2.43675, -1.2290076, 2.43675, -2.6335878
0.2874706, -0.0030213, 2.4435, -0.0354614, 2.4435, -1.0021362, 2.4435, -0.1321411, 2.4435, 2.3664122, 2.4435, -1.2519084, 2.4435, -2.5877862
0.2882647, -0.0008392, 2.45025, -0.0322266, 2.45025, -1.0027466, 2.45025, -0.1339722, 2.45025, 2.2366412, 2.45025, -1.2824427, 2.45025, -2.6717558
0.2890588, -0.0031891, 2.457, -0.0339966, 2.457, -1.00354, 2.457, -0.1340942, 2.457, 2.1984732, 2.457, -1.221374, 2.457, -2.6641221
0.2898529, -0.0048676, 2.46375, -0.0346069, 2.46375, -1.0058594, 2.46375, -0.1314087, 2.46375, 2.2061069, 2.46375, -1.1679389, 2.46375, -2.8091602
0.2906471, -0.0092317, 2.4705, -0.038208, 2.4705, -1.0072021, 2.4705, -0.1293335, 2.4705, 2.1145039, 2.4705, -1.4198474, 2.4705, -3.0076337
0.2914412, -0.0132601, 2.47725, -0.0445557, 2.47725, -1.0045776, 2.47725, -0.1352539, 2.47725, 2.1145039, 2.47725, -1.6641221, 2.47725, -3
0.2922353, -0.0179599, 2.484, -0.0465698, 2.484, -1.0040283, 2.484, -0.1427612, 2.484, 1.8396946, 2.484, -1.9694656, 2.484, -3.1374047
0.2930294, -0.0241703, 2.49075, -0.0450439, 2.49075, -1.0001831, 2.49075, -0.1377563, 2.49075, 1.8320611, 2.49075, -2.1984732, 2.49075, -3.091603
0.2938235, -0.0246738, 2.4975, -0.0457153, 2.4975, -1.0021362, 2.4975, -0.138916, 2.4975, 1.5954199, 2.4975, -2.5496182, 2.4975, -3.1374047
0.2946176, -0.0213169, 2.50425, -0.0450439, 2.50425, -1.0047607, 2.50425, -0.1347656, 2.50425, 1.5343511, 2.50425, -2.6870229, 2.50425, -3.1984732
0.2954118, -0.0164492, 2.511, -0.0336914, 2.511, -1.0031128, 2.511, -0.1381226, 2.511, 1.610687, 2.511, -2.9770992, 2.511, -3.259542
0.2962059, -0.0146029, 2.51775, -0.0284424, 2.51775, -1.0006104, 2.51775, -0.1403809, 2.51775, 1.7862595, 2.51775, -2.961832, 2.51775, -3.3053436
0.297, -0.0152743, 2.5245, -0.0263062, 2.5245, -1.0012817, 2.5245, -0.144043, 2.5245, 1.870229, 2.5245, -2.8778627, 2.5245, -3.1603053
0.2977941, -0.0142672, 2.53125, -0.0261841, 2.53125, -1.0031128, 2.53125, -0.1445923, 2.53125, 1.7328244, 2.53125, -2.5801528, 2.53125, -3.3053436
0.2985882, -0.0132601, 2.538, -0.0296631, 2.538, -1.0062256, 2.538, -0.1425781, 2.538, 1.4503816, 2.538, -2.3206108, 2.538, -3.1679389
0.2993824, -0.0115816, 2.54475, -0.0302734, 2.54475, -1.0129395, 2.54475, -0.1446533, 2.54475, 1.6564885, 2.54475, -1.9847329, 2.54475, -3.221374
0.3001765, -0.0048676, 2.5515, -0.02948, 2.5515, -1.0119629, 2.5515, -0.1442261, 2.5515, 1.7709924, 2.5515, -1.9007634, 2.5515, -3.0839694
0.3009706, -0.0016785, 2.55825, -0.0289917, 2.55825, -1.0067139, 2.55825, -0.144043, 2.55825, 1.8244275, 2.55825, -1.6030535, 2.55825, -3.0458016
0.3017647, -0.0048676, 2.565, -0.0253296, 2.565, -1.0119629, 2.565, -0.1418457, 2.565, 2.1221373, 2.565, -1.7099236, 2.565, -3.0305343
0.3025588, -0.0146029, 2.57175, -0.0174561, 2.57175, -1.0112915, 2.57175, -0.1504517, 2.57175, 2.091603, 2.57175, -1.5114504, 2.57175, -2.9847329
0.3033529, -0.0213169, 2.5785, -0.0158081, 2.5785, -1.0112915, 2.5785, -0.1538696, 2.5785, 2.3282442, 2.5785, -1.3587786, 2.5785, -2.9389312
0.3041471, -0.0236667, 2.58525, -0.013855, 2.58525, -1.0109863, 2.58525, -0.1517944, 2.58525, 2.5648854, 2.58525, -0.5877863, 2.58525, -2.7709923
0.3049412, -0.0196384, 2.592, -0.0112305, 2.592, -1.0099487, 2.592, -0.1524658, 2.592, 2.9541984, 2.592, 0.0534351, 2.592, -2.6259542
0.3057353, -0.0213169, 2.59875, -0.0109863, 2.59875, -1.0074463, 2.59875, -0.1541748, 2.59875, 3.2900763, 2.59875, 0.7022901, 2.59875, -2.5419848
0.3065294, -0.0213169, 2.6055, -0.0150757, 2.6055, -1.0100708, 2.6055, -0.1543579, 2.6055, 3.7022901, 2.6055, 1.0763359, 2.6055, -2.610687
0.3073235, -0.0216526, 2.61225, -0.0166626, 2.61225, -1.0099487, 2.61225, -0.1573486, 2.61225, 3.9770992, 2.61225, 1.8320611, 2.61225, -2.5572519
0.3081176, -0.0226596, 2.619, -0.0204468, 2.619, -1.0098267, 2.619, -0.1558838, 2.619, 4.3435116, 2.619, 2.2137403, 2.619, -2.4427481
0.3089118, -0.0236667, 2.62575, -0.0269165, 2.62575, -1.008728, 2.62575, -0.1570435, 2.62575, 4.4351144, 2.62575, 2.5572519, 2.62575, -2.3282442
0.3097059, -0.0243381, 2.6325, -0.0322266, 2.6325, -1.008667, 2.6325, -0.1549683, 2.6325, 3.961832, 2.6325, 2.9923663, 2.6325, -2.1984732
0.3105, -0.0256809, 2.63925, -0.0332031, 2.63925, -1.0081787, 2.63925, -0.1470337, 2.63925, 4.0839696, 2.63925, 2.8015268, 2.63925, -2.0687022
0.3112941, -0.0238346, 2.646, -0.0269775, 2.646, -1.0125732, 2.646, -0.140686, 2.646, 3.9236641, 2.646, 2.7938931, 2.646, -1.9541985
0.3120882, -0.0191348, 2.65275, -0.0200806, 2.65275, -1.0122681, 2.65275, -0.1404419, 2.65275, 4.0992365, 2.65275, 3.4351146, 2.65275, -1.5954199
0.3128824, -0.0159457, 2.6595, -0.013916, 2.6595, -1.0126953, 2.6595, -0.1375122, 2.6595, 4.0305343, 2.6595, 3.9847329, 2.6595, -1.6412214
0.3136765, -0.0140993, 2.66625, -0.0123291, 2.66625, -1.0109863, 2.66625, -0.1357422, 2.66625, 4.2061067, 2.66625, 4.3206105, 2.66625, -1.5038168
0.3144706, -0.0130922, 2.673, -0.0088501, 2.673, -1.0089722, 2.673, -0.1317749, 2.673, 4.2824426, 2.673, 4.7633586, 2.673, -1.519084
0.3152647, -0.0109102, 2.67975, -0.010437, 2.67975, -1.0078735, 2.67975, -0.1340942, 2.67975, 4.1450381, 2.67975, 5.5725193, 2.67975, -1.3129771
0.3160588, -0.0115816, 2.6865, -0.0155029, 2.6865, -1.0042725, 2.6865, -0.1306152, 2.6865, 4.259542, 2.6865, 6.3664122, 2.6865, -1.129771
0.3168529, -0.0119173, 2.69325, -0.0200195, 2.69325, -1.0062256, 2.69325, -0.1283569, 2.69325, 4.2748094, 2.69325, 6.5114503, 2.69325, -1.1526718
0.3176471, -0.0078889, 2.7, -0.0297241, 2.7, -1.0057373, 2.7, -0.1253662, 2.7, 4.1068702, 2.7, 6.3816795, 2.7, -0.9694657
0.3184412, -0.0075532, 2.70675, -0.0325928, 2.70675, -1.0045776, 2.70675, -0.1237793, 2.70675, 4.1297708, 2.70675, 6.4732823, 2.70675, -1.2671756
0.3192353, -0.011078, 2.7135, -0.0372314, 2.7135, -1.0071411, 2.7135, -0.1256714, 2.7135, 3.8778627, 2.7135, 6.7557254, 2.7135, -0.8625954
0.3200294, -0.0130922, 2.72025, -0.0405273, 2.72025, -1.0083618, 2.72025, -0.1242676, 2.72025, 4.1221375, 2.72025, 6.4580154, 2.72025, -0.7938932
0.3208235, -0.0135958, 2.727, -0.0455322, 2.727, -1.0064087, 2.727, -0.1203613, 2.727, 4.0534353, 2.727, 6.2824426, 2.727, -0.961832
0.3216176, -0.0142672, 2.73375, -0.0452271, 2.73375, -1.0048828, 2.73375, -0.1190186, 2.73375, 3.9923663, 2.73375, 6.0076337, 2.73375, -0.9007633
0.3224118, -0.0164492, 2.7405, -0.0458984, 2.7405, -1.0037842, 2.7405, -0.1183472, 2.7405, 4.0305343, 2.7405, 5.4885497, 2.7405, -0.8931298
0.3232059, -0.0142672, 2.74725, -0.0467529, 2.74725, -1.003479, 2.74725, -0.1203003, 2.74725, 3.8473282, 2.74725, 5.4122138, 2.74725, -1.1832061
0.324, -0.0176242, 2.754, -0.0442505, 2.754, -1.0058594, 2.754, -0.1268921, 2.754, 3.9160306, 2.754, 5.221374, 2.754, -1.1908396
0.3247941, -0.0246738, 2.76075, -0.0436401, 2.76075, -1.0037231, 2.76075, -0.1273193, 2.76075, 4, 2.76075, 5.1450381, 2.76075, -1.1832061
0.3255882, -0.0310521, 2.7675, -0.0440063, 2.7675, -1.0060425, 2.7675, -0.1237793, 2.7675, 3.8549619, 2.7675, 5.0916033, 2.7675, -1.0992366
0.3263824, -0.0253452, 2.77425, -0.0439453, 2.77425, -1.0038452, 2.77425, -0.1208496, 2.77425, 3.7099237, 2.77425, 5.0229006, 2.77425, -1.0610687
0.3271765, -0.0191348, 2.781, -0.0453491, 2.781, -1.0025024, 2.781, -0.1229248, 2.781, 3.8931298, 2.781, 5.0687022, 2.781, -1.221374
0.3279706, -0.0196384, 2.78775, -0.0438843, 2.78775, -1.0031738, 2.78775, -0.1242065, 2.78775, 3.6870229, 2.78775, 4.9312978, 2.78775, -1.0076336
0.3287647, -0.0219883, 2.7945, -0.0432129, 2.7945, -1.003418, 2.7945, -0.1216431, 2.7945, 3.961832, 2.7945, 4.5343513, 2.7945, -1.3053435
0.3295588, -0.0216526, 2.80125, -0.039856, 2.80125, -1.0036621, 2.80125, -0.1254272, 2.80125, 3.9770992, 2.80125, 4.4732823, 2.80125, -1
0.3303529, -0.018967, 2.808, -0.0377808, 2.808, -1.0054932, 2.808, -0.1226807, 2.808, 3.9847329, 2.808, 4.4732823, 2.808, -1.1908396
0.3311471, -0.0162814, 2.81475, -0.0384521, 2.81475, -1.0071411, 2.81475, -0.1224976, 2.81475, 4.0763359, 2.81475, 4.5114503, 2.81475, -1.0763359
0.3319412, -0.0182956, 2.8215, -0.0403442, 2.8215, -1.0095215, 2.8215, -0.1303101, 2.8215, 4.3893127, 2.8215, 4.7022901, 2.8215, -0.9770992
0.3327353, -0.0176242, 2.82825, -0.0337524, 2.82825, -1.0061646, 2.82825, -0.1272583, 2.82825, 4.6717558, 2.82825, 3.961832, 2.82825, -1.0763359
0.3335294, -0.0157778, 2.835, -0.0404053, 2.835, -1.0072021, 2.835, -0.130188, 2.835, 4.740458, 2.835, 3.5419848, 2.835, -1.4503816
0.3343235, -0.01561, 2.84175, -0.0475464, 2.84175, -1.0097656, 2.84175, -0.1242676, 2.84175, 4.5267177, 2.84175, 3.1221373, 2.84175, -1.4656489
0.3351176, -0.0162814, 2.8485, -0.0470581, 2.8485, -1.010376, 2.8485, -0.121582, 2.8485, 4.7328243, 2.8485, 2.7099237, 2.8485, -1.1984733
0.3359118, -0.0112459, 2.85525, -0.0499268, 2.85525, -1.0082397, 2.85525, -0.1256714, 2.85525, 5.1450381, 2.85525, 2.7099237, 2.85525, -1.4885496
0.3367059, -0.0062104, 2.862, -0.0467529, 2.862, -1.0060425, 2.862, -0.1235962, 2.862, 5.3511453, 2.862, 2.1603053, 2.862, -1.6412214
0.3375, -0.0082246, 2.86875, -0.048645, 2.86875, -1.0064087, 2.86875, -0.1237183, 2.86875, 5.2824426, 2.86875, 1.6564885, 2.86875, -1.6412214
0.3382941, -0.0109102, 2.8755, -0.0494385, 2.8755, -1.0020142, 2.8755, -0.1233521, 2.8755, 5.2366414, 2.8755, 1.7862595, 2.8755, -1.8396946
0.3390882, -0.0151064, 2.88225, -0.0549316, 2.88225, -1.0002441, 2.88225, -0.1244507, 2.88225, 4.9541984, 2.88225, 1.870229, 2.88225, -1.778626
0.3398824, -0.0204776, 2.889, -0.055542, 2.889, -1.0030518, 2.889, -0.1220093, 2.889, 4.5877862, 2.889, 1.7557251, 2.889, -1.7557251
0.3406765, -0.0179599, 2.89575, -0.0549316, 2.89575, -1.0018921, 2.89575, -0.119812, 2.89575, 4.5648856, 2.89575, 1.7862595, 2.89575, -1.5954199
0.3414706, -0.0182956, 2.9025, -0.0568848, 2.9025, -1.0010376, 2.9025, -0.1238403, 2.9025, 4.0076337, 2.9025, 1.4122137, 2.9025, -1.5343511
0.3422647, -0.0166171, 2.90925, -0.0544434, 2.90925, -1.0009766, 2.90925, -0.1201172, 2.90925, 3.8396947, 2.90925, 0.908397, 2.90925, -1.6030535
0.3430588, -0.01561, 2.916, -0.0576172, 2.916, -1.0037842, 2.916, -0.1143188, 2.916, 3.6793892, 2.916, 0.8473282, 2.916, -1.3587786
0.3438529, -0.0117494, 2.92275, -0.050354, 2.92275, -1.0092163, 2.92275, -0.1121826, 2.92275, 3.3664122, 2.92275, 0.1450382, 2.92275, -1.3740458
0.3446471, -0.0115816, 2.9295, -0.0435791, 2.9295, -1.0079956, 2.9295, -0.1137695, 2.9295, 3.0076337, 2.9295, -0.9312977, 2.9295, -1.4427481
0.3454412, -0.0099031, 2.93625, -0.0385742, 2.93625, -1.0096436, 2.93625, -0.1138306, 2.93625, 2.480916, 2.93625, -1.2824427, 2.93625, -1.4580153
0.3462353, -0.0085603, 2.943, -0.0327148, 2.943, -1.0062256, 2.943, -0.1155396, 2.943, 1.9923664, 2.943, -1.2977099, 2.943, -1.2137405
0.3470294, -0.0099031, 2.94975, -0.0263672, 2.94975, -1.012207, 2.94975, -0.1092529, 2.94975, 2.2061069, 2.94975, -0.8549618, 2.94975, -1.4351145
0.3478235, -0.0125887, 2.9565, -0.0239258, 2.9565, -1.0162354, 2.9565, -0.1083984, 2.9565, 2.4351146, 2.9565, -0.9312977, 2.9565, -1.4885496
0.3486176, -0.0132601, 2.96325, -0.0304565, 2.96325, -1.0072632, 2.96325, -0.1144409, 2.96325, 2.1145039, 2.96325, -1.2748091, 2.96325, -1.5496184
0.3494118, -0.014435, 2.97, -0.0379639, 2.97, -1.0020752, 2.97, -0.1204224, 2.97, 1.5877863, 2.97, -1.6259542, 2.97, -1.6259542
0.3502059, -0.0159457, 2.97675, -0.0510864, 2.97675, -1.0011597, 2.97675, -0.1217041, 2.97675, 1.6564885, 2.97675, -1.6030535, 2.97675, -1.3816794
0.351, -0.0149386, 2.9835, -0.0545654, 2.9835, -1.0019531, 2.9835, -0.1174316, 2.9835, 1.908397, 2.9835, -2.0687022, 2.9835, -1.5267175
0.3517941, -0.0142672, 2.99025, -0.0618286, 2.99025, -1.0048218, 2.99025, -0.1122437, 2.99025, 2.0152671, 2.99025, -2.6870229, 2.99025, -1.8015267
0.3525882, -0.0115816, 2.997, -0.0648804, 2.997, -1.0037231, 2.997, -0.1130981, 2.997, 1.7862595, 2.997, -3.259542, 2.997, -2.038168
0.3533824, -0.0129244, 3.00375, -0.0649414, 3.00375, -1.0042114, 3.00375, -0.1147461, 3.00375, 1.8244275, 3.00375, -3.9541984, 3.00375, -2.0839694
0.3541765, -0.0152743, 3.0105, -0.0657349, 3.0105, -1.0045776, 3.0105, -0.1124878, 3.0105, 1.5343511, 3.0105, -4.519084, 3.0105, -2.2900763
0.3549706, -0.0102388, 3.01725, -0.0535889, 3.01725, -1.0008545, 3.01725, -0.1118164, 3.01725, 1.480916, 3.01725, -4.8625956, 3.01725, -2.3435113
0.3557647, -0.0075532, 3.024, -0.046875, 3.024, -1.0007324, 3.024, -0.1115723, 3.024, 1.4351145, 3.024, -4.8167939, 3.024, -2.5038168
0.3565588, -0.0073854, 3.03075, -0.0432129, 3.03075, -1.0039673, 3.03075, -0.1105957, 3.03075, 1.2977099, 3.03075, -4.3129773, 3.03075, -2.4656489
0.3573529, -0.0068818, 3.0375, -0.0455322, 3.0375, -1.003479, 3.0375, -0.1105957, 3.0375, 1.1603054, 3.0375, -4.2442746, 3.0375, -2.5572519
0.3581471, -0.0095674, 3.04425, -0.0466919, 3.04425, -1.0021973, 3.04425, -0.1112671, 3.04425, 1.3969465, 3.04425, -3.9465649, 3.04425, -2.5496182
0.3589412, -0.0119173, 3.051, -0.0452271, 3.051, -1.0063477, 3.051, -0.1143188, 3.051, 1.4961832, 3.051, -3.6259542, 3.051, -2.7557251
0.3597353, -0.012253, 3.05775, -0.0488281, 3.05775, -1.0021973, 3.05775, -0.1207886, 3.05775, 1.5419847, 3.05775, -3.610687, 3.05775, -2.9770992
0.3605294, -0.0127565, 3.0645, -0.0494385, 3.0645, -1.0014038, 3.0645, -0.1270142, 3.0645, 1.6183206, 3.0645, -3.4427481, 3.0645, -2.6335878
0.3613235, -0.0095674, 3.07125, -0.0502319, 3.07125, -1.0027466, 3.07125, -0.1304932, 3.07125, 1.648855, 3.07125, -3.1832061, 3.07125, -2.7175572
0.3621176, -0.0068818, 3.078, -0.0457764, 3.078, -1.00177, 3.078, -0.1343384, 3.078, 1.4961832, 3.078, -2.9236641, 3.078, -2.9465649
0.3629118, -0.0038605, 3.08475, -0.0452271, 3.08475, -1.0059814, 3.08475, -0.1328125, 3.08475, 1.7022901, 3.08475, -3.2137403, 3.08475, -3
0.3637059, -0.0008392, 3.0915, -0.0457764, 3.0915, -1.0078735, 3.0915, -0.1337891, 3.0915, 1.8091604, 3.0915, -2.7938931, 3.0915, -2.908397
0.3645, -0.0038605, 3.09825, -0.0408325, 3.09825, -1.0106201, 3.09825, -0.1323853, 3.09825, 2.0839694, 3.09825, -2.1832061, 3.09825, -2.8625953
0.3652941, -0.0030213, 3.105, -0.0396729, 3.105, -1.0120239, 3.105, -0.1313477, 3.105, 2.5038168, 3.105, -1.8091604, 3.105, -2.8778627
0.3660882, -0.002182, 3.11175, -0.0379639, 3.11175, -1.0071411, 3.11175, -0.1332397, 3.11175, 2.7022901, 3.11175, -1.7557251, 3.11175, -3.0687022
0.3668824, -0.0043641, 3.1185, -0.0411377, 3.1185, -1.0071411, 3.1185, -0.1313477, 3.1185, 2.6946564, 3.1185, -1.129771, 3.1185, -3.1374047
0.3676765, -0.0095674, 3.12525, -0.0444336, 3.12525, -1.0091553, 3.12525, -0.1315308, 3.12525, 2.9312978, 3.12525, -1.129771, 3.12525, -3.0229008
0.3684706, -0.0169528, 3.132, -0.0471802, 3.132, -1.0113525, 3.132, -0.1265869, 3.132, 3.1984732, 3.132, -1.038168, 3.132, -3.1068702
0.3692647, -0.0169528, 3.13875, -0.0458984, 3.13875, -1.0140381, 3.13875, -0.1228027, 3.13875, 3.8778627, 3.13875, -0.8854962, 3.13875, -3.3587787
0.3700588, -0.0176242, 3.1455, -0.0430298, 3.1455, -1.0092773, 3.1455, -0.1224976, 3.1455, 4.3206105, 3.1455, -0.6793893, 3.1455, -3.3206108
0.3708529, -0.0152743, 3.15225, -0.0458374, 3.15225, -1.0072632, 3.15225, -0.1252441, 3.15225, 4.4427481, 3.15225, -0.2977099, 3.15225, -3.5496182
0.3716471, -0.008896, 3.159, -0.0414429, 3.159, -1.0066528, 3.159, -0.1224365, 3.159, 4.5877862, 3.159, 0.0305344, 3.159, -3.3969467
0.3724412, -0.0092317, 3.16575, -0.0424805, 3.16575, -1.0067749, 3.16575, -0.1162109, 3.16575, 5.0687022, 3.16575, 0.1221374, 3.16575, -3.4885497
0.3732353, -0.0142672, 3.1725, -0.043396, 3.1725, -1.0081787, 3.1725, -0.1106567, 3.1725, 5.1603055, 3.1725, 0.5954198, 3.1725, -3.610687
0.3740294, -0.0157778, 3.17925, -0.0365601, 3.17925, -1.005188, 3.17925, -0.1123047, 3.17925, 5.4732823, 3.17925, 0.4427481, 3.17925, -3.610687
0.3748235, -0.01561, 3.186, -0.0354614, 3.186, -1.0033569, 3.186, -0.1109619, 3.186, 5.8549619, 3.186, 0.5343512, 3.186, -3.5648854
0.3756176, -0.0193027, 3.19275, -0.0408325, 3.19275, -1.0019531, 3.19275, -0.1149292, 3.19275, 5.7251906, 3.19275, 0.778626, 3.19275, -3.6335878
0.3764118, -0.0216526, 3.1995, -0.0418701, 3.1995, -1.00354, 3.1995, -0.1134033, 3.1995, 5.5038166, 3.1995, 1.3206106, 3.1995, -3.5801528
0.3772059, -0.018967, 3.20625, -0.0444336, 3.20625, -1.0042114, 3.20625, -0.1105347, 3.20625, 5.6259542, 3.20625, 1.7480916, 3.20625, -3.6564887
0.378, -0.014435, 3.213, -0.0479126, 3.213, -1.0047607, 3.213, -0.1087036, 3.213, 5.9389315, 3.213, 2.091603, 3.213, -3.5572519
0.3787941, -0.0105745, 3.21975, -0.0527954, 3.21975, -1.0044556, 3.21975, -0.1096802, 3.21975, 5.9923663, 3.21975, 1.870229, 3.21975, -3.6641221
0.3795882, -0.012253, 3.2265, -0.0588379, 3.2265, -1.0027466, 3.2265, -0.1089478, 3.2265, 5.9541984, 3.2265, 1.8320611, 3.2265, -3.5419848
0.3803824, -0.0142672, 3.23325, -0.0575562, 3.23325, -1.0029907, 3.23325, -0.1110229, 3.23325, 5.9007635, 3.23325, 1.8244275, 3.23325, -3.7328243
0.3811765, -0.0159457, 3.24, -0.052063, 3.24, -1.0021362, 3.24, -0.1037598, 3.24, 5.9389315, 3.24, 1.351145, 3.24, -3.7251909
0.3819706, -0.0162814, 3.24675, -0.0446777, 3.24675, -1.0061646, 3.24675, -0.100769, 3.24675, 5.8015265, 3.24675, 1.2519084, 3.24675, -3.7862597
0.3827647, -0.012253, 3.2535, -0.0405273, 3.2535, -1.0084839, 3.2535, -0.0956421, 3.2535, 5.6183205, 3.2535, 1.4351145, 3.2535, -3.7175572
0.3835588, -0.0102388, 3.26025, -0.0393677, 3.26025, -1.0072021, 3.26025, -0.0968628, 3.26025, 5.0534353, 3.26025, 1.9770992, 3.26025, -3.610687
0.3843529, -0.014435, 3.267, -0.0341187, 3.267, -1.0079346, 3.267, -0.0950928, 3.267, 4.9312978, 3.267, 1.778626, 3.267, -3.7633588
0.3851471, -0.0151064, 3.27375, -0.0324707, 3.27375, -1.0096436, 3.27375, -0.09552, 3.27375, 4.6870227, 3.27375, 1.5267175, 3.27375, -3.8015268
0.3859412, -0.0146029, 3.2805, -0.0330811, 3.2805, -1.0095215, 3.2805, -0.09729, 3.2805, 4.4427481, 3.2805, 1.6259542, 3.2805, -3.8320611
0.3867353, -0.0167849, 3.28725, -0.0361328, 3.28725, -1.0092163, 3.28725, -0.093811, 3.28725, 4.0992365, 3.28725, 1.9160305, 3.28725, -3.6870229
0.3875294, -0.0182956, 3.294, -0.0432739, 3.294, -1.0066528, 3.294, -0.098938, 3.294, 4.2061067, 3.294, 2.5572519, 3.294, -3.5725191
0.3883235, -0.0219883, 3.30075, -0.0460815, 3.30075, -1.0064087, 3.30075, -0.1029053, 3.30075, 3.8396947, 3.30075, 2.6183207, 3.30075, -3.3358779
0.3891176, -0.0250095, 3.3075, -0.0467529, 3.3075, -1.0044556, 3.3075, -0.1036377, 3.3075, 3.6564887, 3.3075, 2.5725191, 3.3075, -3.5496182
0.3899118, -0.0250095, 3.31425, -0.0512085, 3.31425, -1.0036621, 3.31425, -0.1017456, 3.31425, 3.3740458, 3.31425, 2.1984732, 3.31425, -3.5877862
0.3907059, -0.0231632, 3.321, -0.0559082, 3.321, -1.0046387, 3.321, -0.1044312, 3.321, 3.1832061, 3.321, 1.9770992, 3.321, -3.6412213
0.3915, -0.0209812, 3.32775, -0.0563965, 3.32775, -1.0020142, 3.32775, -0.1049194, 3.32775, 3.3282442, 3.32775, 1.9847329, 3.32775, -3.5496182
0.3922941, -0.0196384, 3.3345, -0.0525513, 3.3345, -1.0089111, 3.3345, -0.0953979, 3.3345, 3.2671757, 3.3345, 1.4580153, 3.3345, -3.4427481
0.3930882, -0.0142672, 3.34125, -0.0509644, 3.34125, -1.0029297, 3.34125, -0.098999, 3.34125, 3.1755726, 3.34125, 1.3358779, 3.34125, -3.4961832
0.3938824, -0.0140993, 3.348, -0.0497437, 3.348, -1.0022583, 3.348, -0.0983887, 3.348, 3, 3.348, 1.1679389, 3.348, -3.5954199
0.3946765, -0.0206455, 3.35475, -0.0466919, 3.35475, -1.0032959, 3.35475, -0.100769, 3.35475, 2.9160306, 3.35475, 0.9694657, 3.35475, -3.519084
0.3954706, -0.0186313, 3.3615, -0.043457, 3.3615, -1.0059204, 3.3615, -0.0994263, 3.3615, 2.8778627, 3.3615, 0.6412213, 3.3615, -3.4122138
0.3962647, -0.0115816, 3.36825, -0.039917, 3.36825, -1.0059204, 3.36825, -0.0964355, 3.36825, 2.7251909, 3.36825, 0.6793893, 3.36825, -3.2748091
0.3970588, -0.0068818, 3.375, -0.0388794, 3.375, -1.0073242, 3.375, -0.0997925, 3.375, 2.6870229, 3.375, 0.7862595, 3.375, -3.5496182
0.3978529, -0.005539, 3.38175, -0.0391235, 3.38175, -1.0044556, 3.38175, -0.1009521, 3.38175, 2.8473282, 3.38175, 0.8015267, 3.38175, -3.389313
0.3986471, -0.0078889, 3.3885, -0.0424805, 3.3885, -1.0050049, 3.3885, -0.102417, 3.3885, 2.8778627, 3.3885, 0.9541985, 3.3885, -3.221374
0.3994412, -0.0078889, 3.39525, -0.0437622, 3.39525, -1.0057983, 3.39525, -0.102478, 3.39525, 3, 3.39525, 0.7938932, 3.39525, -3.1679389
0.4002353, -0.0058747, 3.402, -0.0410767, 3.402, -1.005127, 3.402, -0.0974121, 3.402, 3.0763359, 3.402, 0.0763359, 3.402, -3.5419848
0.4010294, 0.0011749, 3.40875, -0.0403442, 3.40875, -1.0038452, 3.40875, -0.0968018, 3.40875, 3.1526718, 3.40875, -0.3969466, 3.40875, -3.6259542
0.4018235, -0.0015106, 3.4155, -0.0465088, 3.4155, -1.0022583, 3.4155, -0.0984497, 3.4155, 3.091603, 3.4155, -0.4122137, 3.4155, -3.5954199
0.4026176, -0.0016785, 3.42225, -0.0458984, 3.42225, -1.0061646, 3.42225, -0.0987549, 3.42225, 3.038168, 3.42225, -0.4045801, 3.42225, -3.7557251
0.4034118, -0.0052033, 3.429, -0.0453491, 3.429, -1.0067749, 3.429, -0.0970459, 3.429, 3.0458016, 3.429, -0.8320611, 3.429, -3.6412213
0.4042059, -0.0105745, 3.43575, -0.0461426, 3.43575, -1.0079346, 3.43575, -0.0936279, 3.43575, 3.1374047, 3.43575, -1.3435115, 3.43575, -3.9465649
0.405, -0.0129244, 3.4425, -0.0450439, 3.4425, -1.0057373, 3.4425, -0.0916138, 3.4425, 2.8167939, 3.4425, -1.259542, 3.4425, -3.9160306
0.4057941, -0.0169528, 3.44925, -0.0471802, 3.44925, -1.0043945, 3.44925, -0.0892334, 3.44925, 2.870229, 3.44925, -1.3282443, 3.44925, -3.8778627
0.4065882, -0.0164492, 3.456, -0.0437622, 3.456, -1.0037231, 3.456, -0.0939941, 3.456, 2.9694657, 3.456, -1.1374046, 3.456, -3.6946564
0.4073824, -0.0135958, 3.46275, -0.0420532, 3.46275, -1.0064087, 3.46275, -0.0931396, 3.46275, 2.5343511, 3.46275, -0.908397, 3.46275, -3.7099237
0.4081765, -0.0105745, 3.4695, -0.0400391, 3.4695, -1.0027466, 3.4695, -0.0913696, 3.4695, 2.4656489, 3.4695, -0.870229, 3.4695, -3.9389312
0.4089706, -0.011078, 3.47625, -0.0403442, 3.47625, -1.0042114, 3.47625, -0.0915527, 3.47625, 2.038168, 3.47625, -0.6564885, 3.47625, -3.8396947
0.4097647, -0.0112459, 3.483, -0.0391846, 3.483, -1.0048828, 3.483, -0.0946655, 3.483, 1.4122137, 3.483, 0.1832061, 3.483, -3.3435113
0.4105588, -0.0112459, 3.48975, -0.0383911, 3.48975, -1.0049438, 3.48975, -0.1016846, 3.48975, 1.1145039, 3.48975, 0.6030535, 3.48975, -3.2061069
0.4113529, -0.0135958, 3.4965, -0.0346069, 3.4965, -1.0040894, 3.4965, -0.1038208, 3.4965, 1.0305344, 3.4965, 0.5877863, 3.4965, -3.1374047
0.4121471, -0.0146029, 3.50325, -0.0361328, 3.50325, -1.0070801, 3.50325, -0.104126, 3.50325, 1.1221374, 3.50325, 0.4580153, 3.50325, -3.2900763
0.4129412, -0.0193027, 3.51, -0.0355835, 3.51, -1.0057983, 3.51, -0.1044922, 3.51, 0.9770992, 3.51, 0.8473282, 3.51, -3.2366412
0.4137353, -0.0182956, 3.51675, -0.036377, 3.51675, -1.0089111, 3.51675, -0.0973511, 3.51675, 0.9236641, 3.51675, 1.4885496, 3.51675, -3.1450381
0.4145294, -0.0229953, 3.5235, -0.0411377, 3.5235, -1.008667, 3.5235, -0.0974731, 3.5235, 1.0992366, 3.5235, 1.480916, 3.5235, -2.9541984
0.4153235, -0.0216526, 3.53025, -0.0412598, 3.53025, -1.0062866, 3.53025, -0.1040649, 3.53025, 1.1908396, 3.53025, 0.9160305, 3.53025, -3.0839694
0.4161176, -0.0176242, 3.537, -0.0438843, 3.537, -1.0097656, 3.537, -0.1022339, 3.537, 1.038168, 3.537, 0.6030535, 3.537, -3.2671757
0.4169118, -0.0162814, 3.54375, -0.0438843, 3.54375, -1.0084839, 3.54375, -0.0940552, 3.54375, 0.7862595, 3.54375, 1.0610687, 3.54375, -3.2366412
0.4177059, -0.0166171, 3.5505, -0.0393677, 3.5505, -1.0090942, 3.5505, -0.0967407, 3.5505, 0.7480916, 3.5505, 1.7022901, 3.5505, -3.0305343
0.4185, -0.0186313, 3.55725, -0.039856, 3.55725, -1.0083008, 3.55725, -0.1008301, 3.55725, 0.5801527, 3.55725, 1.6641221, 3.55725, -3.038168
0.4192941, -0.0204776, 3.564, -0.0362549, 3.564, -1.0077515, 3.564, -0.1036377, 3.564, 0.7709923, 3.564, 1.4961832, 3.564, -3.0992367
0.4200882, -0.0194705, 3.57075, -0.0401001, 3.57075, -1.0100098, 3.57075, -0.098999, 3.57075, 1.0763359, 3.57075, 1.3816794, 3.57075, -3.4885497
0.4208824, -0.0219883, 3.5775, -0.0438843, 3.5775, -1.0078735, 3.5775, -0.0900269, 3.5775, 1.259542, 3.5775, 1.2748091, 3.5775, -3.3053436
0.4216765, -0.0236667, 3.58425, -0.0477905, 3.58425, -1.0028687, 3.58425, -0.0922852, 3.58425, 1.0152671, 3.58425, 1.4961832, 3.58425, -3.5038168
0.4224706, -0.0246738, 3.591, -0.0505981, 3.591, -1.0009155, 3.591, -0.0960693, 3.591, 0.778626, 3.591, 2.1679389, 3.591, -3.221374
0.4232647, -0.024506, 3.59775, -0.0548706, 3.59775, -1.0057983, 3.59775, -0.104187, 3.59775, 0.7862595, 3.59775, 1.3816794, 3.59775, -3.2442749
0.4240588, -0.0196384, 3.6045, -0.050293, 3.6045, -1.0063477, 3.6045, -0.1025391, 3.6045, 0.870229, 3.6045, 1.0458015, 3.6045, -3.2366412
0.4248529, -0.0186313, 3.61125, -0.046875, 3.61125, -1.0071411, 3.61125, -0.0939331, 3.61125, 1.0534351, 3.61125, 0.5801527, 3.61125, -3.3435113
0.4256471, -0.0176242, 3.618, -0.0422363, 3.618, -1.0061646, 3.618, -0.098999, 3.618, 0.908397, 3.618, 0.2442748, 3.618, -3.3358779
0.4264412, -0.0130922, 3.62475, -0.045166, 3.62475, -1.0065918, 3.62475, -0.1049805, 3.62475, 0.4885496, 3.62475, 0.2671756, 3.62475, -3.1755726
0.4272353, -0.0129244, 3.6315, -0.0437012, 3.6315, -1.0094604, 3.6315, -0.1034546, 3.6315, 0.8015267, 3.6315, -0.1221374, 3.6315, -3.3435113
0.4280294, -0.0162814, 3.63825, -0.0424805, 3.63825, -1.0114746, 3.63825, -0.1016846, 3.63825, 1.1603054, 3.63825, -0.0229008, 3.63825, -3.3435113
0.4288235, -0.0162814, 3.645, -0.0353394, 3.645, -1.0088501, 3.645, -0.1004028, 3.645, 1.2061069, 3.645, 0.5648855, 3.645, -3.4122138
0.4296176, -0.0139315, 3.65175, -0.0369263, 3.65175, -1.0084839, 3.65175, -0.0960083, 3.65175, 1.3206106, 3.65175, 0.908397, 3.65175, -3.5801528
0.4304118, -0.012253, 3.6585, -0.0411377, 3.6585, -1.0075073, 3.6585, -0.0994873, 3.6585, 1.4656489, 3.6585, 0.908397, 3.6585, -3.3435113
0.4312059, -0.011078, 3.66525, -0.0412598, 3.66525, -1.0056152, 3.66525, -0.1012573, 3.66525, 1.3435115, 3.66525, 0.9923664, 3.66525, -3.3587787
0.432, -0.005539, 3.672, -0.0455322, 3.672, -1.0054321, 3.672, -0.100769, 3.672, 1.259542, 3.672, 1.1679389, 3.672, -3.4961832
0.4327941, -0.0031891, 3.67875, -0.0462646, 3.67875, -1.0076294, 3.67875, -0.0985718, 3.67875, 1.3740458, 3.67875, 1.1755725, 3.67875, -3.4503818
0.4335882, -0.0082246, 3.6855, -0.0502319, 3.6855, -1.0057983, 3.6855, -0.0964355, 3.6855, 1.221374, 3.6855, 1.0687023, 3.6855, -3.4580152
0.4343824, -0.0090639, 3.69225, -0.0484619, 3.69225, -1.0045776, 3.69225, -0.0971069, 3.69225, 1.3053435, 3.69225, 1.129771, 3.69225, -3.519084
0.4351765, -0.0149386, 3.699, -0.0477905, 3.699, -1.0037231, 3.699, -0.0969849, 3.699, 1.3053435, 3.699, 0.961832, 3.699, -3.3587787
0.4359706, -0.0226596, 3.70575, -0.0482788, 3.70575, -1.0033569, 3.70575, -0.0983276, 3.70575, 0.8549618, 3.70575, 1.0992366, 3.70575, -3.2519083
0.4367647, -0.0223239, 3.7125, -0.0462036, 3.7125, -1.0064697, 3.7125, -0.0969849, 3.7125, 0.7328244, 3.7125, 1.2137405, 3.7125, -3.259542
0.4375588, -0.0229953, 3.71925, -0.0454712, 3.71925, -1.0039673, 3.71925, -0.0928345, 3.71925, 0.9389313, 3.71925, 0.9160305, 3.71925, -3.1984732
0.4383529, -0.0238346, 3.726, -0.0435791, 3.726, -1.0029297, 3.726, -0.09198, 3.726, 0.9694657, 3.726, 1.0610687, 3.726, -3.3129771
0.4391471, -0.0283665, 3.73275, -0.038147, 3.73275, -1.0061035, 3.73275, -0.093689, 3.73275, 0.8244275, 3.73275, 1.2137405, 3.73275, -3.389313
0.4399412, -0.0258488, 3.7395, -0.0394287, 3.7395, -1.0061646, 3.7395, -0.0929565, 3.7395, 0.8167939, 3.7395, 1.3206106, 3.7395, -3.3816793
0.4407353, -0.0203098, 3.74625, -0.0379028, 3.74625, -1.005127, 3.74625, -0.0908203, 3.74625, 0.8778626, 3.74625, 1.1984733, 3.74625, -3.2748091
0.4415294, -0.0203098, 3.753, -0.0396118, 3.753, -1.0061646, 3.753, -0.0986938, 3.753, 0.9465649, 3.753, 1.3206106, 3.753, -3.1984732
0.4423235, -0.0182956, 3.75975, -0.0348511, 3.75975, -1.0101929, 3.75975, -0.100708, 3.75975, 0.6183206, 3.75975, 1.4198474, 3.75975, -3.1450381
0.4431176, -0.0172885, 3.7665, -0.0405273, 3.7665, -1.0112915, 3.7665, -0.0949097, 3.7665, 0.8320611, 3.7665, 1.2366412, 3.7665, -3.3587787
0.4439118, -0.01561, 3.77325, -0.0445557, 3.77325, -1.010498, 3.77325, -0.0960693, 3.77325, 1.0229008, 3.77325, 1.0992366, 3.77325, -3.4961832
0.4447059, -0.0130922, 3.78, -0.0461426, 3.78, -1.0093384, 3.78, -0.1012573, 3.78, 0.9770992, 3.78, 0.9541985, 3.78, -3.5496182
0.4455, -0.0095674, 3.78675, -0.0464478, 3.78675, -1.0089722, 3.78675, -0.1036377, 3.78675, 1.1679389, 3.78675, 0.8778626, 3.78675, -3.3587787
0.4462941, -0.0129244, 3.7935, -0.045105, 3.7935, -1.0080566, 3.7935, -0.1018677, 3.7935, 1.1679389, 3.7935, 0.7175573, 3.7935, -3.2671757
0.4470882, -0.0164492, 3.80025, -0.0437622, 3.80025, -1.006958, 3.80025, -0.1008301, 3.80025, 1.2519084, 3.80025, 0.9312977, 3.80025, -3.2442749
0.4478824, -0.01561, 3.807, -0.043396, 3.807, -1.0066528, 3.807, -0.1010132, 3.807, 1.0229008, 3.807, 1.0229008, 3.807, -3.2824428
0.4486765, -0.0149386, 3.81375, -0.0426025, 3.81375, -1.0085449, 3.81375, -0.0996094, 3.81375, 1.0305344, 3.81375, 0.6717557, 3.81375, -3.389313
0.4494706, -0.012253, 3.8205, -0.043396, 3.8205, -1.0088501, 3.8205, -0.0978394, 3.8205, 0.9312977, 3.8205, 0.6946565, 3.8205, -3.3282442
0.4502647, -0.0105745, 3.82725, -0.0454102, 3.82725, -1.0075684, 3.82725, -0.1005859, 3.82725, 0.9236641, 3.82725, 1.0458015, 3.82725, -3.259542
0.4510588, -0.0073854, 3.834, -0.0423584, 3.834, -1.0038452, 3.834, -0.0995483, 3.834, 1.2519084, 3.834, 0.8931298, 3.834, -3.3053436
0.4518529, -0.0052033, 3.84075, -0.0436401, 3.84075, -1.0046997, 3.84075, -0.0991211, 3.84075, 1.0534351, 3.84075, 0.7099237, 3.84075, -3.3816793
0.4526471, -0.0065461, 3.8475, -0.043396, 3.8475, -1.0032959, 3.8475, -0.0993042, 3.8475, 1.0763359, 3.8475, 0.8549618, 3.8475, -3.4122138
0.4534412, -0.0099031, 3.85425, -0.0405884, 3.85425, -1.0065918, 3.85425, -0.1044922, 3.85425, 0.7709923, 3.85425, 1.3358779, 3.85425, -3.2366412
0.4542353, -0.0077211, 3.861, -0.0407104, 3.861, -1.0039062, 3.861, -0.1084595, 3.861, 0.6870229, 3.861, 1.1755725, 3.861, -3.1755726
0.4550294, -0.005539, 3.86775, -0.0440063, 3.86775, -1.0068359, 3.86775, -0.1061401, 3.86775, 0.8778626, 3.86775, 1.1832061, 3.86775, -3.2824428
0.4558235, -0.0062104, 3.8745, -0.0411377, 3.8745, -1.0047607, 3.8745, -0.1051636, 3.8745, 0.7175573, 3.8745, 1.2748091, 3.8745, -3.2061069
0.4566176, -0.0109102, 3.88125, -0.0411377, 3.88125, -1.0054321, 3.88125, -0.1072388, 3.88125, 0.6641222, 3.88125, 0.7862595, 3.88125, -3.1374047
0.4574118, -0.018967, 3.888, -0.0389404, 3.888, -1.0058594, 3.888, -0.1032715, 3.888, 0.8244275, 3.888, 0.9389313, 3.888, -3.1755726
0.4582059, -0.0240024, 3.89475, -0.0403442, 3.89475, -1.0108643, 3.89475, -0.1016846, 3.89475, 1, 3.89475, 0.8931298, 3.89475, -3.221374
0.459, -0.0213169, 3.9015, -0.0413818, 3.9015, -1.0141602, 3.9015, -0.1026611, 3.9015, 1.1374046, 3.9015, 1.0076336, 3.9015, -3.3053436
0.4597941, -0.0179599, 3.90825, -0.0415039, 3.90825, -1.0125122, 3.90825, -0.1026611, 3.90825, 1.1679389, 3.90825, 0.9923664, 3.90825, -3.3053436
0.4605882, -0.0204776, 3.915, -0.0426025, 3.915, -1.0097656, 3.915, -0.0983887, 3.915, 1.3740458, 3.915, 1.0687023, 3.915, -3.3435113
0.4613824, -0.0182956, 3.92175, -0.0440063, 3.92175, -1.0076294, 3.92175, -0.1005249, 3.92175, 1.5648855, 3.92175, 1.0839695, 3.92175, -3.3816793
0.4621765, -0.01561, 3.9285, -0.0447388, 3.9285, -1.0067749, 3.9285, -0.1008911, 3.9285, 1.7328244, 3.9285, 1.0534351, 3.9285, -3.2977099
0.4629706, -0.0162814, 3.93525, -0.0491333, 3.93525, -1.0067139, 3.93525, -0.1000977, 3.93525, 1.6946565, 3.93525, 0.8778626, 3.93525, -3.3435113
0.4637647, -0.0151064, 3.942, -0.0495605, 3.942, -1.0053711, 3.942, -0.1019897, 3.942, 1.5419847, 3.942, 0.6564885, 3.942, -3.519084
0.4645588, -0.0129244, 3.94875, -0.0448608, 3.94875, -1.0065918, 3.94875, -0.0966187, 3.94875, 1.6412214, 3.94875, 0.5496183, 3.94875, -3.5801528
0.4653529, -0.010071, 3.9555, -0.0437622, 3.9555, -1.0070801, 3.9555, -0.0975952, 3.9555, 1.6183206, 3.9555, 0.4198473, 3.9555, -3.3664122
0.4661471, -0.0085603, 3.96225, -0.0415649, 3.96225, -1.0049438, 3.96225, -0.0994263, 3.96225, 1.6870229, 3.96225, 0.351145, 3.96225, -3.4351146
0.4669412, -0.0082246, 3.969, -0.0388184, 3.969, -1.0050049, 3.969, -0.0991211, 3.969, 1.6564885, 3.969, 0.3358779, 3.969, -3.4503818
0.4677353, -0.008896, 3.97575, -0.0386963, 3.97575, -1.0036011, 3.97575, -0.0986328, 3.97575, 1.3282443, 3.97575, 0.4885496, 3.97575, -3.3664122
0.4685294, -0.0077211, 3.9825, -0.0379639, 3.9825, -1.0031128, 3.9825, -0.0980225, 3.9825, 1.3664122, 3.9825, 0.6259542, 3.9825, -3.389313
0.4693235, -0.0065461, 3.98925, -0.0377197, 3.98925, -1.0088501, 3.98925, -0.0947876, 3.98925, 1.129771, 3.98925, 0.519084, 3.98925, -3.3587787
0.4701176, -0.008896, 3.996, -0.0411987, 3.996, -1.0114746, 3.996, -0.0947876, 3.996, 0.9007633, 3.996, 0.8015267, 3.996, -3.3435113
0.4709118, -0.0070497, 4.00275, -0.0392456, 4.00275, -1.0060425, 4.00275, -0.0910034, 4.00275, 0.4198473, 4.00275, 1.2748091, 4.00275, -3.2366412
0.4717059, -0.0082246, 4.0095, -0.0377197, 4.0095, -1.0065918, 4.0095, -0.0986938, 4.0095, 0.4274809, 4.0095, 1.4732825, 4.0095, -3.0687022
0.4725, -0.0092317, 4.01625, -0.0401001, 4.01625, -1.003479, 4.01625, -0.102417, 4.01625, 0.5954198, 4.01625, 1.091603, 4.01625, -3.091603
0.4732941, -0.0112459, 4.023, -0.0408325, 4.023, -1.0029907, 4.023, -0.102417, 4.023, 0.8320611, 4.023, 1.0305344, 4.023, -3.3053436
0.4740882, -0.0132601, 4.02975, -0.0439453, 4.02975, -1.010498, 4.02975, -0.1018677, 4.02975, 0.8167939, 4.02975, 1.4198474, 4.02975, -3.0534351
0.4748824, -0.0135958, 4.0365, -0.0422974, 4.0365, -1.0062256, 4.0365, -0.0974731, 4.0365, 0.8854962, 4.0365, 1.5801526, 4.0365, -3
0.4756765, -0.0164492, 4.04325, -0.043457, 4.04325, -1.0061035, 4.04325, -0.0970459, 4.04325, 0.9389313, 4.04325, 1.3587786, 4.04325, -2.9389312
0.4764706, -0.0193027, 4.05, -0.0423584, 4.05, -1.005127, 4.05, -0.0973511, 4.05, 0.9923664, 4.05, 1.0839695, 4.05, -3.2137403
0.4772647, -0.017792, 4.05675, -0.0406494, 4.05675, -1.0049438, 4.05675, -0.0964966, 4.05675, 0.8854962, 4.05675, 0.8320611, 4.05675, -3.2137403
0.4780588, -0.0149386, 4.0635, -0.0437622, 4.0635, -1.0058594, 4.0635, -0.0975952, 4.0635, 0.5114504, 4.0635, 0.8244275, 4.0635, -3.3740458
0.4788529, -0.0159457, 4.07025, -0.0443726, 4.07025, -1.0040283, 4.07025, -0.0994873, 4.07025, 0.9007633, 4.07025, 0.870229, 4.07025, -3.1832061
0.4796471, -0.0149386, 4.077, -0.0449829, 4.077, -1.0062866, 4.077, -0.1011963, 4.077, 0.8396947, 4.077, 1, 4.077, -3.3740458
0.4804412, -0.0132601, 4.08375, -0.0447388, 4.08375, -1.0077515, 4.08375, -0.0971069, 4.08375, 0.6412213, 4.08375, 1.0076336, 4.08375, -3.1679389
0.4812353, -0.0119173, 4.0905, -0.0441895, 4.0905, -1.0053711, 4.0905, -0.0974731, 4.0905, 0.4732825, 4.0905, 0.3816794, 4.0905, -3.2977099
0.4820294, -0.008896, 4.09725, -0.0435791, 4.09725, -1.005249, 4.09725, -0.0995483, 4.09725, 0.5648855, 4.09725, 0.1221374, 4.09725, -3.4045801
0.4828235, -0.0063783, 4.104, -0.0401611, 4.104, -1.0056152, 4.104, -0.0999756, 4.104, 0.7099237, 4.104, 0.1984733, 4.104, -3.3129771
0.4836176, -0.0075532, 4.11075, -0.0357666, 4.11075, -1.0036621, 4.11075, -0.1010742, 4.11075, 0.8167939, 4.11075, 0.3053435, 4.11075, -3.5419848
0.4844118, -0.0104067, 4.1175, -0.0370483, 4.1175, -1.0076904, 4.1175, -0.1040039, 4.1175, 0.6183206, 4.1175, 0.5496183, 4.1175, -3.351145
0.4852059, -0.0115816, 4.12425, -0.0402222, 4.12425, -1.0060425, 4.12425, -0.0993042, 4.12425, 0.6793893, 4.12425, 0.2442748, 4.12425, -3.3435113
0.486, -0.0135958, 4.131, -0.0407104, 4.131, -1.0014648, 4.131, -0.0979004, 4.131, 0.7022901, 4.131, 0.4580153, 4.131, -3.3129771
0.4867941, -0.0162814, 4.13775, -0.0429077, 4.13775, -1.0042725, 4.13775, -0.0960083, 4.13775, 0.6717557, 4.13775, 0.480916, 4.13775, -3.3206108
0.4875882, -0.0139315, 4.1445, -0.0465088, 4.1445, -1.0076294, 4.1445, -0.0968018, 4.1445, 0.4961832, 4.1445, 0.7099237, 4.1445, -3.3664122
0.4883824, -0.0132601, 4.15125, -0.0466919, 4.15125, -1.0088501, 4.15125, -0.0964966, 4.15125, 0.6335878, 4.15125, 0.8091603, 4.15125, -3.3206108
0.4891765, -0.0149386, 4.158, -0.0458984, 4.158, -1.0094604, 4.158, -0.0959473, 4.158, 0.5725191, 4.158, 0.2671756, 4.158, -3.2519083
0.4899706, -0.0169528, 4.16475, -0.0427856, 4.16475, -1.0061646, 4.16475, -0.0953369, 4.16475, 0.6946565, 4.16475, 0.5038168, 4.16475, -3.2900763
0.4907647, -0.0142672, 4.1715, -0.0462036, 4.1715, -1.0062256, 4.1715, -0.098999, 4.1715, 0.8396947, 4.1715, 0.7633588, 4.1715, -3.2366412
0.4915588, -0.011078, 4.17825, -0.043335, 4.17825, -1.0062256, 4.17825, -0.1009521, 4.17825, 0.9465649, 4.17825, 0.7709923, 4.17825, -3.2900763
0.4923529, -0.0140993, 4.185, -0.0414429, 4.185, -1.0061646, 4.185, -0.1021118, 4.185, 1.0152671, 4.185, 0.8473282, 4.185, -3.2366412
0.4931471, -0.018967, 4.19175, -0.0388184, 4.19175, -1.0067749, 4.19175, -0.1010132, 4.19175, 0.9389313, 4.19175, 1.1221374, 4.19175, -3.1374047
0.4939412, -0.0203098, 4.1985, -0.0428467, 4.1985, -1.0081177, 4.1985, -0.1028442, 4.1985, 0.8320611, 4.1985, 1.1374046, 4.1985, -3.1450381
0.4947353, -0.021149, 4.20525, -0.0390625, 4.20525, -1.0042725, 4.20525, -0.1057129, 4.20525, 0.9389313, 4.20525, 1.0687023, 4.20525, -3.0534351
0.4955294, -0.0240024, 4.212, -0.0379028, 4.212, -1.0029297, 4.212, -0.1052246, 4.212, 0.8473282, 4.212, 0.8167939, 4.212, -3.2977099
0.4963235, -0.023331, 4.21875, -0.0377808, 4.21875, -1.0075684, 4.21875, -0.1049805, 4.21875, 0.5801527, 4.21875, 0.6793893, 4.21875, -3.3053436
0.4971176, -0.0219883, 4.2255, -0.0409546, 4.2255, -1.0082397, 4.2255, -0.0996094, 4.2255, 0.5954198, 4.2255, 0.778626, 4.2255, -3.3358779
0.4979118, -0.0236667, 4.23225, -0.0430298, 4.23225, -1.0073853, 4.23225, -0.1029053, 4.23225, 0.1221374, 4.23225, 0.8625954, 4.23225, -3.038168
0.4987059, -0.0246738, 4.239, -0.0366211, 4.239, -1.0072021, 4.239, -0.1012573, 4.239, 0.1603053, 4.239, 0.4656489, 4.239, -3.0305343
0.4995, -0.0223239, 4.24575, -0.0371094, 4.24575, -1.0097656, 4.24575, -0.1040039, 4.24575, 0.3435115, 4.24575, 0.1450382, 4.24575, -3.221374
0.5002941, -0.0209812, 4.2525, -0.0379639, 4.2525, -1.0089722, 4.2525, -0.1030884, 4.2525, 0.1679389, 4.2525, 0.5725191, 4.2525, -3.038168
0.5010882, -0.0193027, 4.25925, -0.0388184, 4.25925, -1.0096436, 4.25925, -0.1032715, 4.25925, 0.2442748, 4.25925, 0.6564885, 4.25925, -3.1450381
0.5018824, -0.0196384, 4.266, -0.0415649, 4.266, -1.0075684, 4.266, -0.104187, 4.266, 0.5267175, 4.266, 0.7557252, 4.266, -3.2290077
0.5026765, -0.0176242, 4.27275, -0.0424805, 4.27275, -1.0073242, 4.27275, -0.1027832, 4.27275, 0.5419847, 4.27275, 0.8473282, 4.27275, -3.1145039
0.5034706, -0.014435, 4.2795, -0.0465088, 4.2795, -1.0075684, 4.2795, -0.1029053, 4.2795, 0.6793893, 4.2795, 0.9847328, 4.2795, -3.1526718
0.5042647, -0.0149386, 4.28625, -0.0488892, 4.28625, -1.0073853, 4.28625, -0.1027222, 4.28625, 0.740458, 4.28625, 0.6641222, 4.28625, -3.0305343
0.5050588, -0.0172885, 4.293, -0.0482788, 4.293, -1.0068359, 4.293, -0.1043701, 4.293, 0.6793893, 4.293, 0.648855, 4.293, -3.1221373
0.5058529, -0.0193027, 4.29975, -0.0460815, 4.29975, -1.0042114, 4.29975, -0.1031494, 4.29975, 0.9847328, 4.29975, 0.5954198, 4.29975, -3.1450381
0.5066471, -0.01561, 4.3065, -0.0435791, 4.3065, -1.0036011, 4.3065, -0.1085205, 4.3065, 1.1832061, 4.3065, 0.1526718, 4.3065, -3.1450381
0.5074412, -0.0115816, 4.31325, -0.0418701, 4.31325, -1.0054932, 4.31325, -0.1020508, 4.31325, 0.9923664, 4.31325, 0.5343512, 4.31325, -3.2671757
0.5082353, -0.0135958, 4.32, -0.0409546, 4.32, -1.006958, 4.32, -0.0986328, 4.32, 0.7709923, 4.32, 0.610687, 4.32, -3.0152671
0.5090294, -0.0146029, 4.32675, -0.0401001, 4.32675, -1.0057373, 4.32675, -0.0977783, 4.32675, 0.7175573, 4.32675, 0.1755725, 4.32675, -2.9770992
0.5098235, -0.0162814, 4.3335, -0.0366211, 4.3335, -1.0076294, 4.3335, -0.0982666, 4.3335, 1.1374046, 4.3335, 0.0458015, 4.3335, -3.2824428
0.5106176, -0.0199741, 4.34025, -0.038208, 4.34025, -1.0097656, 4.34025, -0.0979004, 4.34025, 1.0687023, 4.34025, 0.3282443, 4.34025, -3.2366412
0.5114118, -0.0196384, 4.347, -0.0394287, 4.347, -1.0092773, 4.347, -0.0961304, 4.347, 1.221374, 4.347, 0.7557252, 4.347, -3.0687022
0.5122059, -0.0176242, 4.35375, -0.0391846, 4.35375, -1.0050659, 4.35375, -0.0971069, 4.35375, 1.1068702, 4.35375, 0.9465649, 4.35375, -3.2519083
0.513, -0.017792, 4.3605, -0.0455322, 4.3605, -1.00354, 4.3605, -0.1027832, 4.3605, 1.1755725, 4.3605, 0.7328244, 4.3605, -3.0610688
0.5137941, -0.0142672, 4.36725, -0.0466309, 4.36725, -1.0042725, 4.36725, -0.1015625, 4.36725, 1.1603054, 4.36725, 0.6183206, 4.36725, -3.3206108
0.5145882, -0.0119173, 4.374, -0.0504761, 4.374, -1.0022583, 4.374, -0.1048584, 4.374, 1.1145039, 4.374, 0.6183206, 4.374, -3.2519083
0.5153824, -0.0152743, 4.38075, -0.0484619, 4.38075, -1.0027466, 4.38075, -0.1080322, 4.38075, 1.1603054, 4.38075, 0.7633588, 4.38075, -3.1374047
0.5161765, -0.014435, 4.3875, -0.0493164, 4.3875, -1.0030518, 4.3875, -0.1072998, 4.3875, 1.0305344, 4.3875, 0.6564885, 4.3875, -3.1832061
0.5169706, -0.0132601, 4.39425, -0.0448608, 4.39425, -1.0067749, 4.39425, -0.1051025, 4.39425, 0.8167939, 4.39425, 0.5954198, 4.39425, -3.091603
0.5177647, -0.0109102, 4.401, -0.0439453, 4.401, -1.0070801, 4.401, -0.1021118, 4.401, 0.740458, 4.401, 0.6259542, 4.401, -3.1145039
0.5185588, -0.0104067, 4.40775, -0.0476074, 4.40775, -1.0054932, 4.40775, -0.098938, 4.40775, 1.0610687, 4.40775, 0.5954198, 4.40775, -3.1068702
0.5193529, -0.0115816, 4.4145, -0.0449219, 4.4145, -1.0042114, 4.4145, -0.1026611, 4.4145, 1, 4.4145, 0.7557252, 4.4145, -3.2824428
0.5201471, -0.0095674, 4.42125, -0.0408325, 4.42125, -1.0056763, 4.42125, -0.100708, 4.42125, 0.9236641, 4.42125, 0.5572519, 4.42125, -3.3282442
0.5209412, -0.0078889, 4.428, -0.0402832, 4.428, -1.0085449, 4.428, -0.0964355, 4.428, 0.8778626, 4.428, 0.7328244, 4.428, -3.1526718
0.5217353, -0.0068818, 4.43475, -0.0402222, 4.43475, -1.0037842, 4.43475, -0.0955811, 4.43475, 0.9465649, 4.43475, 0.6793893, 4.43475, -3.2977099
0.5225294, -0.0097353, 4.4415, -0.0432129, 4.4415, -1.0046387, 4.4415, -0.1000366, 4.4415, 1, 4.4415, 0.3740458, 4.4415, -3.4885497
0.5233235, -0.0112459, 4.44825, -0.0418091, 4.44825, -1.0047607, 4.44825, -0.0986328, 4.44825, 0.9770992, 4.44825, 0.2977099, 4.44825, -3.4122138
0.5241176, -0.008896, 4.455, -0.0429688, 4.455, -1.006958, 4.455, -0.1014404, 4.455, 1.0152671, 4.455, 0.4198473, 4.455, -3.3435113
0.5249118, -0.0087282, 4.46175, -0.0435791, 4.46175, -1.0081177, 4.46175, -0.1022339, 4.46175, 0.9770992, 4.46175, 0.5038168, 4.46175, -3.4122138
0.5257059, -0.0105745, 4.4685, -0.0415039, 4.4685, -1.0054932, 4.4685, -0.1020508, 4.4685, 1.2290076, 4.4685, 0.5496183, 4.4685, -3.221374
0.5265, -0.012253, 4.47525, -0.0444336, 4.47525, -1.0029297, 4.47525, -0.1057739, 4.47525, 1.0992366, 4.47525, 0.6564885, 4.47525, -3.1221373
0.5272941, -0.0137636, 4.482, -0.0419922, 4.482, -1.0012817, 4.482, -0.1057129, 4.482, 0.9312977, 4.482, 0.6030535, 4.482, -3.1450381
0.5280882, -0.0132601, 4.48875, -0.0447998, 4.48875, -1.0090942, 4.48875, -0.1004028, 4.48875, 0.9312977, 4.48875, 0.4274809, 4.48875, -3.2061069
0.5288824, -0.0119173, 4.4955, -0.0425415, 4.4955, -1.0082397, 4.4955, -0.1005859, 4.4955, 1.1374046, 4.4955, 0.1374046, 4.4955, -3.2442749
0.5296765, -0.0115816, 4.50225, -0.0446777, 4.50225, -1.0074463, 4.50225, -0.1002808, 4.50225, 1.091603, 4.50225, 0.5114504, 4.50225, -3.259542
0.5304706, -0.0115816, 4.509, -0.039917, 4.509, -1.006897, 4.509, -0.1008301, 4.509, 0.778626, 4.509, 0.5496183, 4.509, -3.2519083
0.5312647, -0.0107424, 4.51575, -0.0384521, 4.51575, -1.008606, 4.51575, -0.1000366, 4.51575, 0.9389313, 4.51575, 0.6946565, 4.51575, -3.1755726
0.5320588, -0.0092317, 4.5225, -0.0387573, 4.5225, -1.0092163, 4.5225, -0.100708, 4.5225, 1.0458015, 4.5225, 0.648855, 4.5225, -3.0076337
0.5328529, -0.0102388, 4.52925, -0.0397949, 4.52925, -1.0093384, 4.52925, -0.1035156, 4.52925, 0.9312977, 4.52925, 0.8931298, 4.52925, -3.2900763
0.5336471, -0.0115816, 4.536, -0.0435791, 4.536, -1.0082397, 4.536, -0.0999756, 4.536, 0.9465649, 4.536, 0.9541985, 4.536, -3.2519083
0.5344412, -0.0115816, 4.54275, -0.0441895, 4.54275, -1.008667, 4.54275, -0.1062012, 4.54275, 1.0610687, 4.54275, 1.0076336, 4.54275, -3.0229008
0.5352353, -0.0129244, 4.5495, -0.0449219, 4.5495, -1.006958, 4.5495, -0.104187, 4.5495, 0.8854962, 4.5495, 0.5725191, 4.5495, -3.0687022
0.5360294, -0.012253, 4.55625, -0.0480957, 4.55625, -1.0042725, 4.55625, -0.1019287, 4.55625, 1.1450381, 4.55625, 0.3053435, 4.55625, -3.3206108
0.5368235, -0.0063783, 4.563, -0.0426636, 4.563, -1.0046387, 4.563, -0.1016846, 4.563, 0.9236641, 4.563, 0.0992366, 4.563, -3.3435113
0.5376176, -0.0065461, 4.56975, -0.0409546, 4.56975, -1.0054932, 4.56975, -0.098938, 4.56975, 1.091603, 4.56975, 0.1832061, 4.56975, -3.2137403
0.5384118, -0.0075532, 4.5765, -0.0379028, 4.5765, -1.0050049, 4.5765, -0.0999756, 4.5765, 0.9389313, 4.5765, 0.519084, 4.5765, -3
0.5392059, -0.0075532, 4.58325, -0.0349731, 4.58325, -1.0050659, 4.58325, -0.1054077, 4.58325, 0.8778626, 4.58325, 0.8473282, 4.58325, -3.1145039
0.54, -0.012253, 4.59, -0.0373535, 4.59, -1.0080566, 4.59, -0.1016846, 4.59, 0.9312977, 4.59, 0.7709923, 4.59, -3.0687022
0.5407941, -0.012253, 4.59675, -0.0407104, 4.59675, -1.0065918, 4.59675, -0.1027832, 4.59675, 0.8244275, 4.59675, 0.3587786, 4.59675, -3.1908398
0.5415882, -0.0105745, 4.6035, -0.0397339, 4.6035, -1.0071411, 4.6035, -0.1026611, 4.6035, 0.9236641, 4.6035, 0.870229, 4.6035, -3.1603053
0.5423824, -0.014435, 4.61025, -0.045166, 4.61025, -1.005249, 4.61025, -0.1061401, 4.61025, 1.0534351, 4.61025, 0.8625954, 4.61025, -3.129771
0.5431765, -0.0176242, 4.617, -0.0435181, 4.617, -1.0009766, 4.617, -0.1083984, 4.617, 0.9770992, 4.617, 0.610687, 4.617, -3.1068702
0.5439706, -0.018967, 4.62375, -0.0447388, 4.62375, -1.0061035, 4.62375, -0.1071167, 4.62375, 1.0839695, 4.62375, 0.4732825, 4.62375, -3.0610688
0.5447647, -0.0176242, 4.6305, -0.0459595, 4.6305, -1.0073242, 4.6305, -0.1039429, 4.6305, 1.0839695, 4.6305, 0.5419847, 4.6305, -2.9923663
0.5455588, -0.0169528, 4.63725, -0.0443115, 4.63725, -1.0098877, 4.63725, -0.1038208, 4.63725, 1.1450381, 4.63725, 0.3816794, 4.63725, -3.3129771
0.5463529, -0.0203098, 4.644, -0.0452881, 4.644, -1.010376, 4.644, -0.1045532, 4.644, 1.0076336, 4.644, 0.610687, 4.644, -3.0534351
0.5471471, -0.0179599, 4.65075, -0.0414429, 4.65075, -1.0095825, 4.65075, -0.1026611, 4.65075, 1.1603054, 4.65075, 0.9236641, 4.65075, -3.2671757
0.5479412, -0.0149386, 4.6575, -0.0383301, 4.6575, -1.0078735, 4.6575, -0.1056519, 4.6575, 1.351145, 4.6575, 0.870229, 4.6575, -3.2824428
0.5487353, -0.0142672, 4.66425, -0.0423584, 4.66425, -1.0079956, 4.66425, -0.1046753, 4.66425, 1.1984733, 4.66425, 0.8320611, 4.66425, -3.2519083
0.5495294, -0.0135958, 4.671, -0.0408325, 4.671, -1.0106201, 4.671, -0.1004028, 4.671, 1.2290076, 4.671, 1.0305344, 4.671, -3.1603053
0.5503235, -0.0099031, 4.67775, -0.0385132, 4.67775, -1.0117798, 4.67775, -0.0982666, 4.67775, 1.5419847, 4.67775, 1.7557251, 4.67775, -2.9923663
0.5511176, -0.0109102, 4.6845, -0.0390015, 4.6845, -1.0062866, 4.6845, -0.1069946, 4.6845, 1.2137405, 4.6845, 1.1679389, 4.6845, -3.2290077
0.5519118, -0.0109102, 4.69125, -0.0432739, 4.69125, -1.0013428, 4.69125, -0.1068115, 4.69125, 1.1450381, 4.69125, 1.1374046, 4.69125, -3.221374
0.5527059, -0.0099031, 4.698, -0.0429688, 4.698, -1.0081177, 4.698, -0.1014404, 4.698, 1.3053435, 4.698, 1.3587786, 4.698, -3.389313
0.5535, -0.0075532, 4.70475, -0.0431519, 4.70475, -1.0062256, 4.70475, -0.0994873, 4.70475, 1.0992366, 4.70475, 1.3435115, 4.70475, -3.3129771
0.5542941, -0.0090639, 4.7115, -0.0426025, 4.7115, -1.0062256, 4.7115, -0.1034546, 4.7115, 1.1832061, 4.7115, 1.4580153, 4.7115, -3.091603
0.5550882, -0.0077211, 4.71825, -0.0444946, 4.71825, -1.0053711, 4.71825, -0.1046753, 4.71825, 1.3587786, 4.71825, 1.4198474, 4.71825, -3.0458016
0.5558824, -0.0119173, 4.725, -0.0458374, 4.725, -1.007019, 4.725, -0.1027222, 4.725, 1.519084, 4.725, 1.2290076, 4.725, -3.221374
0.5566765, -0.0139315, 4.73175, -0.0457153, 4.73175, -1.0075684, 4.73175, -0.1074829, 4.73175, 1.2519084, 4.73175, 1.2061069, 4.73175, -3.1755726
0.5574706, -0.0151064, 4.7385, -0.041687, 4.7385, -1.0031738, 4.7385, -0.1044922, 4.7385, 1.4045801, 4.7385, 1.3664122, 4.7385, -3.3053436
0.5582647, -0.0162814, 4.74525, -0.043335, 4.74525, -1.0089722, 4.74525, -0.1047363, 4.74525, 1.3969465, 4.74525, 1.129771, 4.74525, -3.3206108
0.5590588, -0.0176242, 4.752, -0.0446777, 4.752, -1.0077515, 4.752, -0.1061401, 4.752, 1.5496184, 4.752, 1.0458015, 4.752, -3.259542
0.5598529, -0.0216526, 4.75875, -0.0445557, 4.75875, -1.0056152, 4.75875, -0.1085815, 4.75875, 1.4961832, 4.75875, 1.0687023, 4.75875, -3.1832061
0.5606471, -0.0229953, 4.7655, -0.0466919, 4.7655, -1.010437, 4.7655, -0.0992432, 4.7655, 1.5496184, 4.7655, 0.9389313, 4.7655, -3.2977099
0.5614412, -0.0240024, 4.77225, -0.0452271, 4.77225, -1.005249, 4.77225, -0.1021118, 4.77225, 1.4122137, 4.77225, 0.6870229, 4.77225, -3.3053436
0.5622353, -0.0213169, 4.779, -0.0474854, 4.779, -1.008728, 4.779, -0.1027832, 4.779, 1.4961832, 4.779, 0.6412213, 4.779, -3.4045801
0.5630294, -0.0182956, 4.78575, -0.0443726, 4.78575, -1.0088501, 4.78575, -0.1003418, 4.78575, 1.5038168, 4.78575, 0.6030535, 4.78575, -3.2442749
0.5638235, -0.0172885, 4.7925, -0.0418091, 4.7925, -1.0043335, 4.7925, -0.1068726, 4.7925, 1.5648855, 4.7925, 0.6412213, 4.7925, -3.3435113
0.5646176, -0.0149386, 4.79925, -0.0408936, 4.79925, -1.0026855, 4.79925, -0.1026001, 4.79925, 1.3816794, 4.79925, 0.3435115, 4.79925, -3.2748091
0.5654118, -0.0090639, 4.806, -0.041748, 4.806, -1.0043945, 4.806, -0.1001587, 4.806, 1.4122137, 4.806, 0.4732825, 4.806, -3.259542
0.5662059, -0.0082246, 4.81275, -0.0370483, 4.81275, -1.005249, 4.81275, -0.098938, 4.81275, 1.4351145, 4.81275, 0.5954198, 4.81275, -3.351145
0.567, -0.008896, 4.8195, -0.0367432, 4.8195, -1.005127, 4.8195, -0.0980835, 4.8195, 1.3816794, 4.8195, 0.7480916, 4.8195, -3.3053436
0.5677941, -0.0097353, 4.82625, -0.0404053, 4.82625, -1.0054932, 4.82625, -0.0996704, 4.82625, 1.389313, 4.82625, 0.778626, 4.82625, -3.1679389
0.5685882, -0.0119173, 4.833, -0.043396, 4.833, -1.008667, 4.833, -0.0999756, 4.833, 1.1755725, 4.833, 0.8854962, 4.833, -3.4198472
0.5693824, -0.01561, 4.83975, -0.0452881, 4.83975, -1.006958, 4.83975, -0.0982666, 4.83975, 1.129771, 4.83975, 1.0152671, 4.83975, -3.1755726
0.5701765, -0.0159457, 4.8465, -0.0447998, 4.8465, -1.0059814, 4.8465, -0.1029053, 4.8465, 1.2290076, 4.8465, 1.1908396, 4.8465, -3.2519083
0.5709706, -0.018967, 4.85325, -0.0441895, 4.85325, -1.003479, 4.85325, -0.1005249, 4.85325, 1.0763359, 4.85325, 0.778626, 4.85325, -3.3587787
0.5717647, -0.0206455, 4.86, -0.0457153, 4.86, -1.0048218, 4.86, -0.1011353, 4.86, 0.8473282, 4.86, 0.9007633, 4.86, -3.1832061
0.5725588, -0.0196384, 4.86675, -0.0452271, 4.86675, -1.0075684, 4.86675, -0.1035767, 4.86675, 0.7709923, 4.86675, 0.6335878, 4.86675, -3.1145039
0.5733529, -0.0240024, 4.8735, -0.0447998, 4.8735, -1.0081177, 4.8735, -0.1013794, 4.8735, 0.8549618, 4.8735, 0.4732825, 4.8735, -3.3206108
0.5741471, -0.0226596, 4.88025, -0.0388184, 4.88025, -1.0043335, 4.88025, -0.0994873, 4.88025, 1.0839695, 4.88025, 0.648855, 4.88025, -3.3358779
0.5749412, -0.0198062, 4.887, -0.0383301, 4.887, -1.0075684, 4.887, -0.0991821, 4.887, 1.0839695, 4.887, 0.8549618, 4.887, -3.4274809
0.5757353, -0.0216526, 4.89375, -0.0415039, 4.89375, -1.0071411, 4.89375, -0.0982056, 4.89375, 1.3664122, 4.89375, 0.8396947, 4.89375, -3.221374
0.5765294, -0.018967, 4.9005, -0.0430298, 4.9005, -1.010498, 4.9005, -0.0939941, 4.9005, 1.2061069, 4.9005, 0.6717557, 4.9005, -3.389313
0.5773235, -0.0149386, 4.90725, -0.0441284, 4.90725, -1.008606, 4.90725, -0.100708, 4.90725, 1.1908396, 4.90725, 0.6793893, 4.90725, -3.4045801
0.5781176, -0.0219883, 4.914, -0.0429077, 4.914, -1.0056152, 4.914, -0.1036377, 4.914, 1, 4.914, 0.7328244, 4.914, -3.3587787
0.5789118, -0.0223239, 4.92075, -0.0457153, 4.92075, -1.003479, 4.92075, -0.1033936, 4.92075, 0.9847328, 4.92075, 0.6564885, 4.92075, -3.4274809
0.5797059, -0.0142672, 4.9275, -0.0430908, 4.9275, -1.006958, 4.9275, -0.1021729, 4.9275, 0.7099237, 4.9275, 0.610687, 4.9275, -3.2900763
0.5805, -0.0135958, 4.93425, -0.0429688, 4.93425, -1.0078125, 4.93425, -0.0993042, 4.93425, 0.8396947, 4.93425, 0.6335878, 4.93425, -3.2977099
0.5812941, -0.0137636, 4.941, -0.0438843, 4.941, -1.0085449, 4.941, -0.1019287, 4.941, 0.7938932, 4.941, 0.6412213, 4.941, -3.3358779
0.5820882, -0.0152743, 4.94775, -0.0419312, 4.94775, -1.0077515, 4.94775, -0.1068726, 4.94775, 0.8015267, 4.94775, 0.6335878, 4.94775, -3.3740458
0.5828824, -0.0149386, 4.9545, -0.0437622, 4.9545, -1.008606, 4.9545, -0.1029663, 4.9545, 0.8015267, 4.9545, 0.6030535, 4.9545, -3.3587787
0.5836765, -0.0146029, 4.96125, -0.0442505, 4.96125, -1.0066528, 4.96125, -0.1045532, 4.96125, 1.038168, 4.96125, 0.519084, 4.96125, -3.2366412
0.5844706, -0.0159457, 4.968, -0.0435181, 4.968, -1.0039062, 4.968, -0.1068115, 4.968, 0.8015267, 4.968, 0.6183206, 4.968, -3.3206108
0.5852647, -0.0109102, 4.97475, -0.0429077, 4.97475, -1.0072632, 4.97475, -0.1017456, 4.97475, 0.7633588, 4.97475, 0.3816794, 4.97475, -3.2748091
0.5860588, -0.0082246, 4.9815, -0.0405273, 4.9815, -1.0092163, 4.9815, -0.0981445, 4.9815, 0.7099237, 4.9815, 0.4885496, 4.9815, -3.351145
0.5868529, -0.0085603, 4.98825, -0.0407104, 4.98825, -1.0089722, 4.98825, -0.0995483, 4.98825, 0.8396947, 4.98825, 0.6717557, 4.98825, -3.3053436
0.5876471, -0.0075532, 4.995, -0.0405273, 4.995, -1.0079346, 4.995, -0.1022339, 4.995, 0.9694657, 4.995, 0.7862595, 4.995, -3.3053436
0.5884412, -0.010071, 5.00175, -0.0383911, 5.00175, -1.0076294, 5.00175, -0.0997925, 5.00175, 0.8473282, 5.00175, 0.9236641, 5.00175, -3.221374
0.5892353, -0.0125887, 5.0085, -0.0411987, 5.0085, -1.0083618, 5.0085, -0.0992432, 5.0085, 1.0839695, 5.0085, 1.1526718, 5.0085, -3.1603053
0.5900294, -0.0159457, 5.01525, -0.0413818, 5.01525, -1.0059204, 5.01525, -0.1034546, 5.01525, 1.0305344, 5.01525, 1.2290076, 5.01525, -3.259542
0.5908235, -0.0172885, 5.022, -0.0414429, 5.022, -1.0064087, 5.022, -0.1029053, 5.022, 1.0610687, 5.022, 1.1450381, 5.022, -3.3664122
0.5916176, -0.0203098, 5.02875, -0.0454102, 5.02875, -1.0061646, 5.02875, -0.1065063, 5.02875, 1.1145039, 5.02875, 1.0687023, 5.02875, -3.351145
0.5924118, -0.0179599, 5.0355, -0.0458374, 5.0355, -1.0064697, 5.0355, -0.1047363, 5.0355, 1.1145039, 5.0355, 0.7022901, 5.0355, -3.259542
0.5932059, -0.012253, 5.04225, -0.0457153, 5.04225, -1.0056763, 5.04225, -0.1031494, 5.04225, 1.1984733, 5.04225, 0.4885496, 5.04225, -3.3129771
0.594, -0.0130922, 5.049, -0.0453491, 5.049, -1.0068359, 5.049, -0.1037598, 5.049, 1.351145, 5.049, 0.5496183, 5.049, -3.4274809
0.5947941, -0.0164492, 5.05575, -0.0439453, 5.05575, -1.0093994, 5.05575, -0.0982666, 5.05575, 1.1679389, 5.05575, 0.5954198, 5.05575, -3.4351146
0.5955882, -0.0216526, 5.0625, -0.0371704, 5.0625, -1.0068359, 5.0625, -0.104248, 5.0625, 1.2900764, 5.0625, 0.6870229, 5.0625, -3.2977099
0.5963824, -0.0196384, 5.06925, -0.0385132, 5.06925, -1.0076904, 5.06925, -0.105957, 5.06925, 1.3587786, 5.06925, 0.5725191, 5.06925, -3.4198472
0.5971765, -0.0162814, 5.076, -0.0369263, 5.076, -1.0080566, 5.076, -0.1044922, 5.076, 1.3816794, 5.076, 0.5496183, 5.076, -3.4961832
0.5979706, -0.01561, 5.08275, -0.0389404, 5.08275, -1.0067139, 5.08275, -0.1052246, 5.08275, 1.4351145, 5.08275, 0.7328244, 5.08275, -3.4580152
0.5987647, -0.0172885, 5.0895, -0.0414429, 5.0895, -1.0091553, 5.0895, -0.1039429, 5.0895, 1.4122137, 5.0895, 1.0458015, 5.0895, -3.4045801
0.5995588, -0.0162814, 5.09625, -0.0425415, 5.09625, -1.0075684, 5.09625, -0.1027222, 5.09625, 1.5648855, 5.09625, 1.1755725, 5.09625, -3.3206108
0.6003529, -0.0109102, 5.103, -0.0426636, 5.103, -1.0096436, 5.103, -0.1055298, 5.103, 1.519084, 5.103, 1.3282443, 5.103, -3.4274809
0.6011471, -0.0099031, 5.10975, -0.0440674, 5.10975, -1.0070801, 5.10975, -0.1079712, 5.10975, 1.4045801, 5.10975, 1.0458015, 5.10975, -3.2748091
0.6019412, -0.008896, 5.1165, -0.043396, 5.1165, -1.0070801, 5.1165, -0.1045532, 5.1165, 1.740458, 5.1165, 0.9160305, 5.1165, -3.2977099
0.6027353, -0.0095674, 5.12325, -0.0409546, 5.12325, -1.0077515, 5.12325, -0.1083374, 5.12325, 1.5572519, 5.12325, 0.740458, 5.12325, -3.3282442
0.6035294, -0.0117494, 5.13, -0.0406494, 5.13, -1.0081177, 5.13, -0.1064453, 5.13, 1.5114504, 5.13, 1.0458015, 5.13, -3.221374
0.6043235, -0.0125887, 5.13675, -0.0418701, 5.13675, -1.0097656, 5.13675, -0.0980225, 5.13675, 1.1526718, 5.13675, 1, 5.13675, -3.1526718
0.6051176, -0.0124208, 5.1435, -0.0411377, 5.1435, -1.0095215, 5.1435, -0.0983887, 5.1435, 1.4503816, 5.1435, 0.9465649, 5.1435, -3.4961832
0.6059118, -0.0132601, 5.15025, -0.0441895, 5.15025, -1.0072632, 5.15025, -0.1016235, 5.15025, 1.4656489, 5.15025, 0.9160305, 5.15025, -3.221374
0.6067059, -0.0140993, 5.157, -0.0413208, 5.157, -1.0045166, 5.157, -0.1026611, 5.157, 1.3358779, 5.157, 0.9770992, 5.157, -3.1832061
0.6075, -0.0169528, 5.16375, -0.0423584, 5.16375, -1.0050659, 5.16375, -0.1018677, 5.16375, 1.2977099, 5.16375, 0.9389313, 5.16375, -3.1755726
0.6082941, -0.0169528, 5.1705, -0.0438843, 5.1705, -1.0054932, 5.1705, -0.1038818, 5.1705, 1.4427481, 5.1705, 0.6564885, 5.1705, -3.1832061
0.6090882, -0.0142672, 5.17725, -0.0453491, 5.17725, -1.0038452, 5.17725, -0.0979004, 5.17725, 1.4732825, 5.17725, 0.4045801, 5.17725, -3.4198472
0.6098824, -0.01561, 5.184, -0.0448608, 5.184, -1.0028687, 5.184, -0.1018677, 5.184, 1.5801526, 5.184, 0.3129771, 5.184, -3.4885497
0.6106765, -0.0135958, 5.19075, -0.0423584, 5.19075, -1.0063477, 5.19075, -0.1040649, 5.19075, 1.5267175, 5.19075, -0.0381679, 5.19075, -3.3664122
0.6114706, -0.0129244, 5.1975, -0.0410156, 5.1975, -1.0061646, 5.1975, -0.1001587, 5.1975, 1.3129771, 5.1975, 0.1374046, 5.1975, -3.2442749
0.6122647, -0.0129244, 5.20425, -0.0406494, 5.20425, -1.0043945, 5.20425, -0.0991211, 5.20425, 1.2977099, 5.20425, 0.259542, 5.20425, -3.2900763
0.6130588, -0.0135958, 5.211, -0.0412598, 5.211, -1.0045166, 5.211, -0.1011353, 5.211, 1.3129771, 5.211, 0.2290076, 5.211, -3.2137403
0.6138529, -0.0109102, 5.21775, -0.0420532, 5.21775, -1.0057983, 5.21775, -0.0985107, 5.21775, 1.4732825, 5.21775, 0.6183206, 5.21775, -3.3053436
0.6146471, -0.0095674, 5.2245, -0.0409546, 5.2245, -1.0073853, 5.2245, -0.0969238, 5.2245, 1.2366412, 5.2245, 0.5954198, 5.2245, -3.3129771
0.6154412, -0.0119173, 5.23125, -0.0410156, 5.23125, -1.0099487, 5.23125, -0.0958252, 5.23125, 1.4351145, 5.23125, 0.6030535, 5.23125, -3.2824428
0.6162353, -0.0129244, 5.238, -0.0427246, 5.238, -1.0095825, 5.238, -0.0983887, 5.238, 1.4045801, 5.238, 0.778626, 5.238, -3.3358779
0.6170294, -0.0105745, 5.24475, -0.0389404, 5.24475, -1.0079346, 5.24475, -0.0992432, 5.24475, 1.2671756, 5.24475, 0.7022901, 5.24475, -3.3053436
0.6178235, -0.0097353, 5.2515, -0.0391235, 5.2515, -1.0083618, 5.2515, -0.1020508, 5.2515, 1.4045801, 5.2515, 0.648855, 5.2515, -3.2900763
0.6186176, -0.012253, 5.25825, -0.0405273, 5.25825, -1.0061646, 5.25825, -0.0958252, 5.25825, 1.3129771, 5.25825, 0.8396947, 5.25825, -3.2137403
0.6194118, -0.0097353, 5.265, -0.0453491, 5.265, -1.0062256, 5.265, -0.0979004, 5.265, 1.5343511, 5.265, 0.7328244, 5.265, -3.3206108
0.6202059, -0.0092317, 5.27175, -0.045105, 5.27175, -1.0056763, 5.27175, -0.0983276, 5.27175, 1.351145, 5.27175, 0.8778626, 5.27175, -3.2519083
0.621, -0.0082246, 5.2785, -0.0450439, 5.2785, -1.0075073, 5.2785, -0.1010132, 5.2785, 1.2671756, 5.2785, 0.9160305, 5.2785, -3.3129771
0.6217941, -0.0109102, 5.28525, -0.0449219, 5.28525, -1.0074463, 5.28525, -0.0999756, 5.28525, 1.3435115, 5.28525, 0.7099237, 5.28525, -3.2824428
0.6225882, -0.0135958, 5.292, -0.0440674, 5.292, -1.0067139, 5.292, -0.1005249, 5.292, 1.5496184, 5.292, 0.7557252, 5.292, -3.1755726
0.6233824, -0.0203098, 5.29875, -0.0449219, 5.29875, -1.0072021, 5.29875, -0.1022339, 5.29875, 1.3282443, 5.29875, 0.7633588, 5.29875, -3.2519083
0.6241765, -0.0229953, 5.3055, -0.0432739, 5.3055, -1.0078735, 5.3055, -0.098999, 5.3055, 1.2290076, 5.3055, 0.4503817, 5.3055, -3.129771
0.6249706, -0.0199741, 5.31225, -0.0409546, 5.31225, -1.0057373, 5.31225, -0.0975952, 5.31225, 1.3053435, 5.31225, 0.6870229, 5.31225, -3.2442749
0.6257647, -0.0179599, 5.319, -0.039856, 5.319, -1.0050049, 5.319, -0.1001587, 5.319, 1.2366412, 5.319, 0.6030535, 5.319, -3.2290077
0.6265588, -0.0164492, 5.32575, -0.0410767, 5.32575, -1.0022583, 5.32575, -0.1026001, 5.32575, 1.1145039, 5.32575, 0.5648855, 5.32575, -3.3358779
0.6273529, -0.0137636, 5.3325, -0.0380249, 5.3325, -1.0053711, 5.3325, -0.0997925, 5.3325, 0.9694657, 5.3325, 0.778626, 5.3325, -3.129771
0.6281471, -0.0109102, 5.33925, -0.0388184, 5.33925, -1.0054932, 5.33925, -0.1014404, 5.33925, 0.7862595, 5.33925, 1.0458015, 5.33925, -3.1374047
0.6289412, -0.0078889, 5.346, -0.0371094, 5.346, -1.0065308, 5.346, -0.1022339, 5.346, 0.9007633, 5.346, 1.0458015, 5.346, -3.2442749
0.6297353, -0.0090639, 5.35275, -0.0401001, 5.35275, -1.005127, 5.35275, -0.1021118, 5.35275, 0.7251908, 5.35275, 1.1603054, 5.35275, -3.1984732
0.6305294, -0.01561, 5.3595, -0.0395508, 5.3595, -1.0085449, 5.3595, -0.0984497, 5.3595, 0.8167939, 5.3595, 0.9694657, 5.3595, -3.1068702
0.6313235, -0.0166171, 5.36625, -0.0437012, 5.36625, -1.0098877, 5.36625, -0.095459, 5.36625, 0.6717557, 5.36625, 0.9389313, 5.36625, -3.2366412
0.6321176, -0.0124208, 5.373, -0.043396, 5.373, -1.0073853, 5.373, -0.0966797, 5.373, 0.6412213, 5.373, 0.9694657, 5.373, -3.2366412
0.6329118, -0.0115816, 5.37975, -0.0429688, 5.37975, -1.006958, 5.37975, -0.0996094, 5.37975, 0.6030535, 5.37975, 0.8320611, 5.37975, -3.2061069
0.6337059, -0.011078, 5.3865, -0.0421753, 5.3865, -1.0071411, 5.3865, -0.1030884, 5.3865, 0.8625954, 5.3865, 0.8778626, 5.3865, -3.1603053
0.6345, -0.0140993, 5.39325, -0.039978, 5.39325, -1.0053711, 5.39325, -0.1050415, 5.39325, 0.9007633, 5.39325, 0.778626, 5.39325, -3.2366412
0.6352941, -0.0184634, 5.4, -0.041748, 5.4, -1.0089722, 5.4, -0.1034546, 5.4, 0.8320611, 5.4, 0.7022901, 5.4, -3.3206108
0.6360882, -0.0162814, 5.40675, -0.0408325, 5.40675, -1.0093994, 5.40675, -0.1016235, 5.40675, 1.038168, 5.40675, 0.8015267, 5.40675, -3.259542
0.6368824, -0.0162814, 5.4135, -0.0430908, 5.4135, -1.0054321, 5.4135, -0.1021729, 5.4135, 0.9847328, 5.4135, 1.0229008, 5.4135, -3.1374047
0.6376765, -0.0193027, 5.42025, -0.0441895, 5.42025, -1.0073242, 5.42025, -0.1036987, 5.42025, 1.1526718, 5.42025, 0.7938932, 5.42025, -3.1374047
0.6384706, -0.0162814, 5.427, -0.0408936, 5.427, -1.0055542, 5.427, -0.1035156, 5.427, 1.1526718, 5.427, 0.7480916, 5.427, -3.2977099
0.6392647, -0.0164492, 5.43375, -0.0402222, 5.43375, -1.0063477, 5.43375, -0.1001587, 5.43375, 1.1984733, 5.43375, 0.7251908, 5.43375, -3.2442749
0.6400588, -0.01561, 5.4405, -0.0411377, 5.4405, -1.0065308, 5.4405, -0.0980835, 5.4405, 1.1603054, 5.4405, 0.7022901, 5.4405, -3.1526718
0.6408529, -0.0149386, 5.44725, -0.0421753, 5.44725, -1.0057983, 5.44725, -0.1011963, 5.44725, 0.9007633, 5.44725, 0.8931298, 5.44725, -3.3816793
0.6416471, -0.0162814, 5.454, -0.0436401, 5.454, -1.0054321, 5.454, -0.100708, 5.454, 1.1221374, 5.454, 0.8854962, 5.454, -3.351145
0.6424412, -0.0176242, 5.46075, -0.0432129, 5.46075, -1.0023804, 5.46075, -0.0988159, 5.46075, 1.2061069, 5.46075, 0.7862595, 5.46075, -3.1984732
0.6432353, -0.0182956, 5.4675, -0.043396, 5.4675, -1.0016479, 5.4675, -0.1011963, 5.4675, 1.1068702, 5.4675, 0.961832, 5.4675, -3.3740458
0.6440294, -0.0182956, 5.47425, -0.0453491, 5.47425, -1.0064087, 5.47425, -0.0992432, 5.47425, 1.0839695, 5.47425, 0.7022901, 5.47425, -3.2671757
0.6448235, -0.0191348, 5.481, -0.0456543, 5.481, -1.0078735, 5.481, -0.1002808, 5.481, 0.9312977, 5.481, 0.7251908, 5.481, -3.1755726
0.6456176, -0.0184634, 5.48775, -0.0473022, 5.48775, -1.0068359, 5.48775, -0.1002197, 5.48775, 0.9312977, 5.48775, 0.6717557, 5.48775, -3.3053436
0.6464118, -0.0196384, 5.4945, -0.0460205, 5.4945, -1.0056763, 5.4945, -0.1011353, 5.4945, 0.778626, 5.4945, 0.6870229, 5.4945, -3.2900763
0.6472059, -0.0162814, 5.50125, -0.0422974, 5.50125, -1.0061035, 5.50125, -0.1021118, 5.50125, 0.8091603, 5.50125, 0.4198473, 5.50125, -3.2137403
0.648, -0.0159457, 5.508, -0.0475464, 5.508, -1.005127, 5.508, -0.1030273, 5.508, 1.0687023, 5.508, 0.3206107, 5.508, -3.1526718
0.6487941, -0.0164492, 5.51475, -0.0388184, 5.51475, -1.0054321, 5.51475, -0.1016846, 5.51475, 1.0763359, 5.51475, 0.3282443, 5.51475, -3.4122138
0.6495882, -0.0172885, 5.5215, -0.0388794, 5.5215, -1.0075684, 5.5215, -0.1017456, 5.5215, 1.129771, 5.5215, 0.4427481, 5.5215, -3.3969467
0.6503824, -0.0139315, 5.52825, -0.0360107, 5.52825, -1.0125122, 5.52825, -0.1071777, 5.52825, 0.9389313, 5.52825, 0.4045801, 5.52825, -3.2366412
0.6511765, -0.0129244, 5.535, -0.0358276, 5.535, -1.010498, 5.535, -0.1035767, 5.535, 1.0992366, 5.535, 0.389313, 5.535, -3.2824428
0.6519706, -0.0127565, 5.54175, -0.0333862, 5.54175, -1.0079346, 5.54175, -0.104126, 5.54175, 1.1145039, 5.54175, 0.6717557, 5.54175, -2.9694657
0.6527647, -0.0099031, 5.5485, -0.0339966, 5.5485, -1.0072632, 5.5485, -0.1043701, 5.5485, 0.9923664, 5.5485, 0.870229, 5.5485, -3.2137403
0.6535588, -0.0112459, 5.55525, -0.0380249, 5.55525, -1.0072021, 5.55525, -0.1018066, 5.55525, 1.1374046, 5.55525, 1.2748091, 5.55525, -3.1145039
0.6543529, -0.0129244, 5.562, -0.0397949, 5.562, -1.0076294, 5.562, -0.1019897, 5.562, 1.129771, 5.562, 0.9770992, 5.562, -3.129771
0.6551471, -0.0124208, 5.56875, -0.0413818, 5.56875, -1.0050049, 5.56875, -0.100769, 5.56875, 1.2366412, 5.56875, 1.0610687, 5.56875, -3.1068702
0.6559412, -0.0125887, 5.5755, -0.0446777, 5.5755, -1.0078735, 5.5755, -0.1015015, 5.5755, 1.3740458, 5.5755, 1.0229008, 5.5755, -3.0839694
0.6567353, -0.0139315, 5.58225, -0.0467529, 5.58225, -1.0054321, 5.58225, -0.1005249, 5.58225, 1.4961832, 5.58225, 0.9770992, 5.58225, -3.0687022
0.6575294, -0.0169528, 5.589, -0.0463257, 5.589, -1.005127, 5.589, -0.1057129, 5.589, 1.1755725, 5.589, 0.9465649, 5.589, -3.1526718
0.6583235, -0.0139315, 5.59575, -0.0478516, 5.59575, -1.006897, 5.59575, -0.1055298, 5.59575, 1.1374046, 5.59575, 0.9236641, 5.59575, -3.2290077
0.6591176, -0.0152743, 5.6025, -0.0425415, 5.6025, -1.0071411, 5.6025, -0.1043701, 5.6025, 1.1984733, 5.6025, 0.7862595, 5.6025, -3.1984732
0.6599118, -0.0132601, 5.60925, -0.0408325, 5.60925, -1.005188, 5.60925, -0.1020508, 5.60925, 1.2671756, 5.60925, 0.5572519, 5.60925, -3.3664122
0.6607059, -0.01561, 5.616, -0.0440063, 5.616, -1.0111694, 5.616, -0.1009521, 5.616, 1.1526718, 5.616, 0.3969466, 5.616, -3.0610688
0.6615, -0.0193027, 5.62275, -0.039978, 5.62275, -1.0095215, 5.62275, -0.0966797, 5.62275, 1.1755725, 5.62275, 0.778626, 5.62275, -3.221374
0.6622941, -0.017792, 5.6295, -0.0377197, 5.6295, -1.0078735, 5.6295, -0.1016846, 5.6295, 1.2442749, 5.6295, 0.908397, 5.6295, -3.2061069
0.6630882, -0.0209812, 5.63625, -0.0369873, 5.63625, -1.0094604, 5.63625, -0.100769, 5.63625, 1.1221374, 5.63625, 0.8320611, 5.63625, -3.2290077
0.6638824, -0.0229953, 5.643, -0.0436401, 5.643, -1.0078125, 5.643, -0.1005859, 5.643, 1.3664122, 5.643, 0.8778626, 5.643, -3.2442749
0.6646765, -0.0206455, 5.64975, -0.0484009, 5.64975, -1.0054932, 5.64975, -0.1019897, 5.64975, 1.389313, 5.64975, 0.8091603, 5.64975, -3.3206108
0.6654706, -0.018967, 5.6565, -0.0447998, 5.6565, -1.0025635, 5.6565, -0.0999146, 5.6565, 1.5496184, 5.6565, 0.8625954, 5.6565, -3.2671757
0.6662647, -0.012253, 5.66325, -0.0476685, 5.66325, -1.005127, 5.66325, -0.0996704, 5.66325, 1.3358779, 5.66325, 0.7480916, 5.66325, -3.3969467
0.6670588, -0.0085603, 5.67, -0.0477905, 5.67, -1.0025024, 5.67, -0.1030884, 5.67, 1.1450381, 5.67, 0.4580153, 5.67, -3.2671757
0.6678529, -0.0109102, 5.67675, -0.043335, 5.67675, -1.0065308, 5.67675, -0.1054077, 5.67675, 1.2290076, 5.67675, 0.4427481, 5.67675, -3.4580152
0.6686471, -0.0119173, 5.6835, -0.0435791, 5.6835, -1.0065308, 5.6835, -0.0975342, 5.6835, 1.2519084, 5.6835, 0.1374046, 5.6835, -3.3969467
0.6694412, -0.0125887, 5.69025, -0.0463257, 5.69025, -1.0056763, 5.69025, -0.0948486, 5.69025, 1.0534351, 5.69025, 0.2748092, 5.69025, -3.3282442
0.6702353, -0.0109102, 5.697, -0.0418091, 5.697, -1.0095215, 5.697, -0.09375, 5.697, 0.9312977, 5.697, 0.1984733, 5.697, -3.3816793
0.6710294, -0.012253, 5.70375, -0.0422974, 5.70375, -1.0053101, 5.70375, -0.09729, 5.70375, 1.2671756, 5.70375, 0.1145038, 5.70375, -3.5343511
0.6718235, -0.012253, 5.7105, -0.0414429, 5.7105, -1.0021362, 5.7105, -0.0991821, 5.7105, 1.0839695, 5.7105, 0.1679389, 5.7105, -3.4503818
0.6726176, -0.012253, 5.71725, -0.0393066, 5.71725, -1.0037842, 5.71725, -0.1013184, 5.71725, 1.1603054, 5.71725, 0.5114504, 5.71725, -3.4427481
0.6734118, -0.0159457, 5.724, -0.0404053, 5.724, -1.0030518, 5.724, -0.1028442, 5.724, 0.961832, 5.724, 0.4885496, 5.724, -3.4732823
0.6742059, -0.012253, 5.73075, -0.0386963, 5.73075, -1.0056763, 5.73075, -0.1036987, 5.73075, 1.0458015, 5.73075, 0.5801527, 5.73075, -3.3206108
