Application:, Trigno Discover (1.7.0)
Date/Time:, 2026/9/9 上午 09:47:56
Collection Length (seconds):, 37.8135
Avanti Sensor 11 (69574)
sensor mode: 50
EMG 1 Time Series (s), EMG 1 (mV), ACC X Time Series (s), ACC X (G), ACC Y Time Series (s), ACC Y (G), ACC Z Time Series (s), ACC Z (G), GYRO X Time Series (s), GYRO X (deg/s), GYRO Y Time Series (s), GYRO Y (deg/s), GYRO Z Time Series (s), GYRO Z (deg/s)
, 1259.2593 Hz, , 148.1481 Hz, , 148.1481 Hz, , 148.1481 Hz, , 148.1481 Hz, , 148.1481 Hz, , 148.1481 Hz
0, -0.0164492, 0, 0.0025024, 0, -1.0061646, 0, -0.0856323, 0, 0.7633588, 0, 0.8625954, 0, -3.0152671
0.0007941, -0.0162814, 0.00675, 0, 0.00675, -1.0083618, 0.00675, -0.0869751, 0.00675, 0.9923664, 0.00675, 0.908397, 0.00675, -2.9770992
0.0015882, -0.018967, 0.0135, 0.0014648, 0.0135, -1.0064087, 0.0135, -0.0896606, 0.0135, 0.870229, 0.0135, 0.9160305, 0.0135, -2.9160306
0.0023824, -0.0142672, 0.02025, 0.0016479, 0.02025, -1.005188, 0.02025, -0.0881348, 0.02025, 1, 0.02025, 1, 0.02025, -3.1450381
0.0031765, -0.0124208, 0.027, 0.0038452, 0.027, -1.0106812, 0.027, -0.0916748, 0.027, 1.1450381, 0.027, 0.9847328, 0.027, -3.0076337
0.0039706, -0.0135958, 0.03375, 0.0070801, 0.03375, -1.0096436, 0.03375, -0.0897827, 0.03375, 1.0763359, 0.03375, 0.9847328, 0.03375, -3.0610688
0.0047647, -0.0115816, 0.0405, 0.0112305, 0.0405, -1.0114746, 0.0405, -0.0878296, 0.0405, 0.9541985, 0.0405, 1.0687023, 0.0405, -2.9160306
0.0055588, -0.0102388, 0.04725, 0.006958, 0.04725, -1.0072021, 0.04725, -0.0878906, 0.04725, 1.0534351, 0.04725, 1.0763359, 0.04725, -2.8931298
0.0063529, -0.010071, 0.054, 0.0072021, 0.054, -1.0056763, 0.054, -0.0875244, 0.054, 1.1832061, 0.054, 1.0610687, 0.054, -3.0305343
0.0071471, -0.0092317, 0.06075, 0.0054321, 0.06075, -1.0032349, 0.06075, -0.0856934, 0.06075, 1.129771, 0.06075, 0.9770992, 0.06075, -3.0687022
0.0079412, -0.008896, 0.0675, 0.0037231, 0.0675, -1.0025635, 0.0675, -0.0889893, 0.0675, 1.1755725, 0.0675, 0.8015267, 0.0675, -3.1526718
0.0087353, -0.0115816, 0.07425, 0.0043945, 0.07425, -1.0064087, 0.07425, -0.0861816, 0.07425, 1.0610687, 0.07425, 0.7328244, 0.07425, -2.9847329
0.0095294, -0.010071, 0.081, 0.008606, 0.081, -1.0045776, 0.081, -0.086853, 0.081, 0.908397, 0.081, 0.6335878, 0.081, -2.9389312
0.0103235, -0.0083925, 0.08775, 0.0103149, 0.08775, -1.0020752, 0.08775, -0.0822144, 0.08775, 1.0076336, 0.08775, 0.8167939, 0.08775, -3
0.0111176, -0.0075532, 0.0945, 0.0091553, 0.0945, -1.0053101, 0.0945, -0.0859375, 0.0945, 1.0687023, 0.0945, 0.8320611, 0.0945, -3.1068702
0.0119118, -0.0082246, 0.10125, 0.0055542, 0.10125, -1.0089111, 0.10125, -0.0820923, 0.10125, 0.9923664, 0.10125, 1.129771, 0.10125, -3.1984732
0.0127059, -0.008896, 0.108, 0.0014648, 0.108, -1.0050659, 0.108, -0.0835571, 0.108, 1, 0.108, 1.1603054, 0.108, -3.221374
0.0135, -0.0109102, 0.11475, -6.1E-05, 0.11475, -1.005127, 0.11475, -0.085022, 0.11475, 1.0229008, 0.11475, 0.8854962, 0.11475, -3.1221373
0.0142941, -0.0102388, 0.1215, 0.0040283, 0.1215, -1.0089111, 0.1215, -0.0830078, 0.1215, 0.9923664, 0.1215, 0.7099237, 0.1215, -3.0610688
0.0150882, -0.0099031, 0.12825, 0.0093994, 0.12825, -1.0095215, 0.12825, -0.0843506, 0.12825, 0.9923664, 0.12825, 0.5877863, 0.12825, -3.0152671
0.0158824, -0.0115816, 0.135, 0.0072632, 0.135, -1.0072632, 0.135, -0.0836792, 0.135, 0.9236641, 0.135, 0.5038168, 0.135, -3.259542
0.0166765, -0.0132601, 0.14175, 0.0088501, 0.14175, -1.0105591, 0.14175, -0.0828857, 0.14175, 1, 0.14175, 0.7022901, 0.14175, -3.2137403
0.0174706, -0.0157778, 0.1485, 0.0100098, 0.1485, -1.0072021, 0.1485, -0.0820923, 0.1485, 1.0839695, 0.1485, 0.9847328, 0.1485, -3.1526718
0.0182647, -0.0166171, 0.15525, 0.0099487, 0.15525, -1.0057373, 0.15525, -0.0839233, 0.15525, 0.9847328, 0.15525, 1.0152671, 0.15525, -3.0610688
0.0190588, -0.0164492, 0.162, 0.0103149, 0.162, -1.0043335, 0.162, -0.0847168, 0.162, 1.0229008, 0.162, 0.7938932, 0.162, -3.0458016
0.0198529, -0.0159457, 0.16875, 0.0079346, 0.16875, -1.010376, 0.16875, -0.0853882, 0.16875, 0.8320611, 0.16875, 0.6335878, 0.16875, -3.2290077
0.0206471, -0.0171206, 0.1755, 0.0061646, 0.1755, -1.0091553, 0.1755, -0.0880737, 0.1755, 0.9007633, 0.1755, 0.648855, 0.1755, -3.1832061
0.0214412, -0.0176242, 0.18225, 0.0038452, 0.18225, -1.0083618, 0.18225, -0.0892334, 0.18225, 0.7862595, 0.18225, 0.4961832, 0.18225, -3.221374
0.0222353, -0.0162814, 0.189, 0.0045776, 0.189, -1.0078735, 0.189, -0.0861816, 0.189, 0.8625954, 0.189, 0.1526718, 0.189, -3.2519083
0.0230294, -0.0149386, 0.19575, 0.0129395, 0.19575, -1.0053711, 0.19575, -0.0860596, 0.19575, 0.8473282, 0.19575, 0.1984733, 0.19575, -3.1679389
0.0238235, -0.0166171, 0.2025, 0.0112305, 0.2025, -1.0081177, 0.2025, -0.0880127, 0.2025, 0.8549618, 0.2025, 0.2366412, 0.2025, -3.2290077
0.0246176, -0.0140993, 0.20925, 0.008728, 0.20925, -1.0062866, 0.20925, -0.0872803, 0.20925, 0.8473282, 0.20925, 0.5343512, 0.20925, -3.2977099
0.0254118, -0.0135958, 0.216, 0.0057983, 0.216, -1.0067139, 0.216, -0.0889282, 0.216, 0.9312977, 0.216, 0.648855, 0.216, -3.2366412
0.0262059, -0.0149386, 0.22275, 0.0045166, 0.22275, -1.0062256, 0.22275, -0.0896606, 0.22275, 0.8015267, 0.22275, 0.9770992, 0.22275, -3.2519083
0.027, -0.0142672, 0.2295, 0.0012207, 0.2295, -1.0091553, 0.2295, -0.086853, 0.2295, 1.0458015, 0.2295, 0.8091603, 0.2295, -3.2748091
0.0277941, -0.0146029, 0.23625, 0.0013428, 0.23625, -1.0111084, 0.23625, -0.0857544, 0.23625, 0.9541985, 0.23625, 0.6259542, 0.23625, -3.221374
0.0285882, -0.0120851, 0.243, 0.00177, 0.243, -1.0113525, 0.243, -0.086792, 0.243, 1.0610687, 0.243, 0.8244275, 0.243, -3.3358779
0.0293824, -0.0115816, 0.24975, 0.0046387, 0.24975, -1.0097656, 0.24975, -0.0864258, 0.24975, 1, 0.24975, 0.6564885, 0.24975, -3.3282442
0.0301765, -0.0149386, 0.2565, 0.0081787, 0.2565, -1.0048218, 0.2565, -0.0831909, 0.2565, 1.0687023, 0.2565, 0.8396947, 0.2565, -3.221374
0.0309706, -0.014435, 0.26325, 0.0084839, 0.26325, -1.0064697, 0.26325, -0.0845337, 0.26325, 0.908397, 0.26325, 0.8625954, 0.26325, -3.2519083
0.0317647, -0.0115816, 0.27, 0.0101318, 0.27, -1.0089722, 0.27, -0.0823364, 0.27, 0.9847328, 0.27, 1.0763359, 0.27, -3.3129771
0.0325588, -0.0146029, 0.27675, 0.0092163, 0.27675, -1.0042725, 0.27675, -0.0874634, 0.27675, 0.9694657, 0.27675, 1.0534351, 0.27675, -3.2824428
0.0333529, -0.014435, 0.2835, 0.0059204, 0.2835, -1.0043945, 0.2835, -0.085144, 0.2835, 0.870229, 0.2835, 1.0763359, 0.2835, -3.2824428
0.0341471, -0.0142672, 0.29025, 0.003479, 0.29025, -1.0067749, 0.29025, -0.0877686, 0.29025, 0.9923664, 0.29025, 0.8091603, 0.29025, -3.2366412
0.0349412, -0.0186313, 0.297, 0.0040894, 0.297, -1.0054932, 0.297, -0.0849609, 0.297, 0.8778626, 0.297, 0.6870229, 0.297, -3.2977099
0.0357353, -0.0198062, 0.30375, 0.00354, 0.30375, -1.0028687, 0.30375, -0.0853882, 0.30375, 1.0076336, 0.30375, 0.7022901, 0.30375, -3.389313
0.0365294, -0.0196384, 0.3105, 0.0047607, 0.3105, -1.0042725, 0.3105, -0.0874634, 0.3105, 1.0229008, 0.3105, 0.5419847, 0.3105, -3.2366412
0.0373235, -0.0203098, 0.31725, 0.0090942, 0.31725, -1.0072021, 0.31725, -0.0881348, 0.31725, 1.0687023, 0.31725, 0.4961832, 0.31725, -3.2519083
0.0381176, -0.0198062, 0.324, 0.0102539, 0.324, -1.0057983, 0.324, -0.0854492, 0.324, 0.9923664, 0.324, 0.6870229, 0.324, -3.389313
0.0389118, -0.0219883, 0.33075, 0.0101929, 0.33075, -1.0072021, 0.33075, -0.0889893, 0.33075, 1.0534351, 0.33075, 0.9770992, 0.33075, -3.4045801
0.0397059, -0.0223239, 0.3375, 0.0111084, 0.3375, -1.0049438, 0.3375, -0.0866089, 0.3375, 1.038168, 0.3375, 1.0610687, 0.3375, -3.4580152
0.0405, -0.0236667, 0.34425, 0.0083618, 0.34425, -1.0082397, 0.34425, -0.0863037, 0.34425, 0.8244275, 0.34425, 0.9465649, 0.34425, -3.2977099
0.0412941, -0.0223239, 0.351, 0.0054932, 0.351, -1.0073853, 0.351, -0.0828857, 0.351, 0.908397, 0.351, 0.740458, 0.351, -3.129771
0.0420882, -0.0236667, 0.35775, 0.0032959, 0.35775, -1.0107422, 0.35775, -0.0869751, 0.35775, 0.9541985, 0.35775, 0.7328244, 0.35775, -3.1908398
0.0428824, -0.0250095, 0.3645, 0.005188, 0.3645, -1.0048218, 0.3645, -0.0831909, 0.3645, 0.9236641, 0.3645, 0.5954198, 0.3645, -3.2442749
0.0436765, -0.0196384, 0.37125, 0.0040894, 0.37125, -1.0089722, 0.37125, -0.0847778, 0.37125, 0.961832, 0.37125, 0.4122137, 0.37125, -3.3587787
0.0444706, -0.0142672, 0.378, 0.0071411, 0.378, -1.0090332, 0.378, -0.0894775, 0.378, 0.9694657, 0.378, 0.2290076, 0.378, -3.2824428
0.0452647, -0.0132601, 0.38475, 0.0090942, 0.38475, -1.0092773, 0.38475, -0.0860596, 0.38475, 0.8091603, 0.38475, 0.4580153, 0.38475, -3.1908398
0.0460588, -0.0083925, 0.3915, 0.0073853, 0.3915, -1.0084229, 0.3915, -0.086853, 0.3915, 0.9389313, 0.3915, 0.4351145, 0.3915, -3.2519083
0.0468529, -0.0062104, 0.39825, 0.0079956, 0.39825, -1.008667, 0.39825, -0.0856323, 0.39825, 0.870229, 0.39825, 0.6259542, 0.39825, -3.1526718
0.0476471, -0.0062104, 0.405, 0.0053711, 0.405, -1.0099487, 0.405, -0.0853882, 0.405, 0.8091603, 0.405, 0.6641222, 0.405, -3.0992367
0.0484412, -0.0058747, 0.41175, 0.0018921, 0.41175, -1.0082397, 0.41175, -0.085144, 0.41175, 0.8549618, 0.41175, 0.6335878, 0.41175, -3.1068702
0.0492353, -0.0052033, 0.4185, 0.0040283, 0.4185, -1.0092773, 0.4185, -0.0844727, 0.4185, 0.8854962, 0.4185, 0.7709923, 0.4185, -3.2519083
0.0500294, -0.0048676, 0.42525, 0.0018921, 0.42525, -1.0096436, 0.42525, -0.0866089, 0.42525, 0.8244275, 0.42525, 0.7328244, 0.42525, -3.3129771
0.0508235, -0.0085603, 0.432, 0.0049438, 0.432, -1.0101929, 0.432, -0.0860596, 0.432, 0.961832, 0.432, 0.740458, 0.432, -3.2366412
0.0516176, -0.0104067, 0.43875, 0.0081177, 0.43875, -1.0043945, 0.43875, -0.0866089, 0.43875, 0.9465649, 0.43875, 0.6641222, 0.43875, -3.4122138
0.0524118, -0.0070497, 0.4455, 0.0062866, 0.4455, -1.005127, 0.4455, -0.0873413, 0.4455, 1, 0.4455, 0.5572519, 0.4455, -3.259542
0.0532059, -0.0112459, 0.45225, 0.0114746, 0.45225, -1.0097656, 0.45225, -0.0878906, 0.45225, 0.9160305, 0.45225, 0.6259542, 0.45225, -3.2290077
0.054, -0.0162814, 0.459, 0.0045776, 0.459, -1.0075684, 0.459, -0.0889893, 0.459, 0.9541985, 0.459, 0.8167939, 0.459, -3.4732823
0.0547941, -0.01561, 0.46575, 0.0040894, 0.46575, -1.0066528, 0.46575, -0.0894775, 0.46575, 1.0229008, 0.46575, 0.9694657, 0.46575, -3.4122138
0.0555882, -0.0176242, 0.4725, 0.0032959, 0.4725, -1.0048218, 0.4725, -0.0878906, 0.4725, 0.7328244, 0.4725, 0.7709923, 0.4725, -3.1984732
0.0563824, -0.0146029, 0.47925, 0.0015259, 0.47925, -1.0071411, 0.47925, -0.0890503, 0.47925, 1.0458015, 0.47925, 0.6641222, 0.47925, -3.3282442
0.0571765, -0.0130922, 0.486, 0.0075684, 0.486, -1.0061646, 0.486, -0.0874634, 0.486, 0.870229, 0.486, 0.5572519, 0.486, -3.5114503
0.0579706, -0.0152743, 0.49275, 0.0054321, 0.49275, -1.0072632, 0.49275, -0.0870361, 0.49275, 0.9465649, 0.49275, 0.7328244, 0.49275, -3.4198472
0.0587647, -0.0176242, 0.4995, 0.0081787, 0.4995, -1.0113525, 0.4995, -0.0884399, 0.4995, 0.9923664, 0.4995, 0.6870229, 0.4995, -3.3206108
0.0595588, -0.0166171, 0.50625, 0.0083618, 0.50625, -1.003479, 0.50625, -0.0905151, 0.50625, 1.0458015, 0.50625, 0.7099237, 0.50625, -3.2366412
0.0603529, -0.0139315, 0.513, 0.0083008, 0.513, -1.0061035, 0.513, -0.0854492, 0.513, 1.0305344, 0.513, 0.7328244, 0.513, -3.2977099
0.0611471, -0.0130922, 0.51975, 0.0092773, 0.51975, -1.0093994, 0.51975, -0.0858765, 0.51975, 0.9923664, 0.51975, 0.6564885, 0.51975, -3.1679389
0.0619412, -0.0085603, 0.5265, 0.0085449, 0.5265, -1.0102539, 0.5265, -0.0844727, 0.5265, 1.0839695, 0.5265, 0.5877863, 0.5265, -3.259542
0.0627353, -0.0065461, 0.53325, 0.0044556, 0.53325, -1.0085449, 0.53325, -0.0852661, 0.53325, 1.1603054, 0.53325, 0.7022901, 0.53325, -3.351145
0.0635294, -0.0068818, 0.54, 0.0043945, 0.54, -1.0043945, 0.54, -0.0893555, 0.54, 1.1221374, 0.54, 0.5419847, 0.54, -3.3435113
0.0643235, -0.0095674, 0.54675, 0.005249, 0.54675, -1.0083008, 0.54675, -0.0869751, 0.54675, 1.0305344, 0.54675, 0.5038168, 0.54675, -3.2366412
0.0651176, -0.0129244, 0.5535, 0.0031128, 0.5535, -1.006958, 0.5535, -0.0891724, 0.5535, 0.961832, 0.5535, 0.6183206, 0.5535, -3.3435113
0.0659118, -0.0152743, 0.56025, 0.005249, 0.56025, -1.0083618, 0.56025, -0.0877075, 0.56025, 1.1374046, 0.56025, 0.351145, 0.56025, -3.3282442
0.0667059, -0.0105745, 0.567, 0.0062256, 0.567, -1.0064697, 0.567, -0.0862427, 0.567, 1.091603, 0.567, 0.3129771, 0.567, -3.2900763
0.0675, -0.0099031, 0.57375, 0.0081787, 0.57375, -1.0061035, 0.57375, -0.0848389, 0.57375, 0.9847328, 0.57375, 0.5114504, 0.57375, -3.1450381
0.0682941, -0.0135958, 0.5805, 0.0107422, 0.5805, -1.0075073, 0.5805, -0.086792, 0.5805, 1.0229008, 0.5805, 0.4961832, 0.5805, -3.1984732
0.0690882, -0.0152743, 0.58725, 0.0112305, 0.58725, -1.0073853, 0.58725, -0.0878296, 0.58725, 0.9007633, 0.58725, 0.5038168, 0.58725, -3.1908398
0.0698824, -0.018967, 0.594, 0.0095825, 0.594, -1.0077515, 0.594, -0.0866699, 0.594, 1.129771, 0.594, 0.5954198, 0.594, -3.259542
0.0706765, -0.0218204, 0.60075, 0.0021973, 0.60075, -1.0050659, 0.60075, -0.0869751, 0.60075, 1.0992366, 0.60075, 0.6717557, 0.60075, -3.1221373
0.0714706, -0.0243381, 0.6075, 0.0023193, 0.6075, -1.0049438, 0.6075, -0.0848999, 0.6075, 0.9923664, 0.6075, 0.6183206, 0.6075, -3.2977099
0.0722647, -0.0219883, 0.61425, 0.0080566, 0.61425, -1.0065308, 0.61425, -0.0866089, 0.61425, 0.9160305, 0.61425, 0.3816794, 0.61425, -3.3053436
0.0730588, -0.0206455, 0.621, 0.0065308, 0.621, -1.0070801, 0.621, -0.0869141, 0.621, 0.9465649, 0.621, 0.3206107, 0.621, -3.3435113
0.0738529, -0.0203098, 0.62775, 0.0084839, 0.62775, -1.0055542, 0.62775, -0.0889893, 0.62775, 1.0305344, 0.62775, 0.2977099, 0.62775, -3.351145
0.0746471, -0.0203098, 0.6345, 0.007019, 0.6345, -1.0057373, 0.6345, -0.0844727, 0.6345, 1.0305344, 0.6345, 0.3435115, 0.6345, -3.5114503
0.0754412, -0.0176242, 0.64125, 0.0067139, 0.64125, -1.0077515, 0.64125, -0.0858765, 0.64125, 1.0687023, 0.64125, 0.4198473, 0.64125, -3.3664122
0.0762353, -0.0142672, 0.648, 0.0075073, 0.648, -1.010376, 0.648, -0.0893555, 0.648, 1.0534351, 0.648, 0.6183206, 0.648, -3.2061069
0.0770294, -0.0152743, 0.65475, 0.0042725, 0.65475, -1.0083618, 0.65475, -0.0874634, 0.65475, 1.1679389, 0.65475, 0.5954198, 0.65475, -3.3969467
0.0778235, -0.0157778, 0.6615, 0.0073242, 0.6615, -1.0063477, 0.6615, -0.083252, 0.6615, 1.1603054, 0.6615, 0.4732825, 0.6615, -3.2900763
0.0786176, -0.0169528, 0.66825, 0.0059204, 0.66825, -1.0076904, 0.66825, -0.0861206, 0.66825, 1.1221374, 0.66825, 0.5419847, 0.66825, -3.2366412
0.0794118, -0.0166171, 0.675, 0.0068359, 0.675, -1.0079956, 0.675, -0.0811768, 0.675, 1.038168, 0.675, 0.480916, 0.675, -3.3435113
0.0802059, -0.0146029, 0.68175, 0.012085, 0.68175, -1.0058594, 0.68175, -0.0834961, 0.68175, 1.1068702, 0.68175, 0.8625954, 0.68175, -3.2748091
0.081, -0.0135958, 0.6885, 0.0107422, 0.6885, -1.006958, 0.6885, -0.0844727, 0.6885, 1.2061069, 0.6885, 1.0687023, 0.6885, -3.2290077
0.0817941, -0.0135958, 0.69525, 0.0089722, 0.69525, -1.010376, 0.69525, -0.0827637, 0.69525, 1.0763359, 0.69525, 0.8625954, 0.69525, -3.2061069
0.0825882, -0.0130922, 0.702, 0.0093994, 0.702, -1.0080566, 0.702, -0.0838013, 0.702, 0.8854962, 0.702, 1.0458015, 0.702, -3.0763359
0.0833824, -0.0171206, 0.70875, 0.0101318, 0.70875, -1.0073853, 0.70875, -0.0819092, 0.70875, 0.8396947, 0.70875, 1.1068702, 0.70875, -3.2977099
0.0841765, -0.018967, 0.7155, 0.0127563, 0.7155, -1.0097656, 0.7155, -0.0848389, 0.7155, 0.7938932, 0.7155, 1.1526718, 0.7155, -3.1526718
0.0849706, -0.0176242, 0.72225, 0.0116577, 0.72225, -1.0078125, 0.72225, -0.0861816, 0.72225, 0.8396947, 0.72225, 1.1755725, 0.72225, -3.1603053
0.0857647, -0.0135958, 0.729, 0.0108032, 0.729, -1.0076294, 0.729, -0.0812988, 0.729, 0.8320611, 0.729, 0.8396947, 0.729, -3.0229008
0.0865588, -0.0109102, 0.73575, 0.0085449, 0.73575, -1.0065308, 0.73575, -0.0846558, 0.73575, 0.7251908, 0.73575, 0.9007633, 0.73575, -2.9541984
0.0873529, -0.0109102, 0.7425, 0.008667, 0.7425, -1.0071411, 0.7425, -0.0903931, 0.7425, 0.778626, 0.7425, 0.908397, 0.7425, -2.961832
0.0881471, -0.0115816, 0.74925, 0.0059204, 0.74925, -1.0071411, 0.74925, -0.0878296, 0.74925, 0.6717557, 0.74925, 0.8854962, 0.74925, -3.091603
0.0889412, -0.0115816, 0.756, 0.0110474, 0.756, -1.0095825, 0.756, -0.0839844, 0.756, 0.6183206, 0.756, 0.7557252, 0.756, -3.0839694
0.0897353, -0.014435, 0.76275, 0.0091553, 0.76275, -1.0109253, 0.76275, -0.0835571, 0.76275, 0.6641222, 0.76275, 0.6564885, 0.76275, -3.0076337
0.0905294, -0.0149386, 0.7695, 0.0046997, 0.7695, -1.0089722, 0.7695, -0.0822144, 0.7695, 0.5648855, 0.7695, 0.7557252, 0.7695, -3.0763359
0.0913235, -0.0139315, 0.77625, 0.0020752, 0.77625, -1.0084839, 0.77625, -0.0878296, 0.77625, 0.5954198, 0.77625, 1.038168, 0.77625, -2.8473282
0.0921176, -0.0097353, 0.783, 0.0026855, 0.783, -1.0080566, 0.783, -0.0855103, 0.783, 0.6870229, 0.783, 0.9007633, 0.783, -2.961832
0.0929118, -0.0115816, 0.78975, 0.0044556, 0.78975, -1.0078125, 0.78975, -0.0843506, 0.78975, 0.6793893, 0.78975, 0.740458, 0.78975, -2.9465649
0.0937059, -0.0095674, 0.7965, 0.0039062, 0.7965, -1.0064087, 0.7965, -0.0872192, 0.7965, 0.6412213, 0.7965, 0.7175573, 0.7965, -2.9465649
0.0945, -0.0085603, 0.80325, 0.0075684, 0.80325, -1.0077515, 0.80325, -0.0895996, 0.80325, 0.6412213, 0.80325, 0.6793893, 0.80325, -3.0610688
0.0952941, -0.0125887, 0.81, 0.0112305, 0.81, -1.0040283, 0.81, -0.0883789, 0.81, 0.740458, 0.81, 0.961832, 0.81, -2.8473282
0.0960882, -0.0186313, 0.81675, 0.0113525, 0.81675, -1.0020142, 0.81675, -0.0904541, 0.81675, 0.8931298, 0.81675, 1.2061069, 0.81675, -2.9236641
0.0968824, -0.0193027, 0.8235, 0.0103149, 0.8235, -1.0032349, 0.8235, -0.0898438, 0.8235, 0.908397, 0.8235, 1.2519084, 0.8235, -2.961832
0.0976765, -0.018967, 0.83025, 0.0075684, 0.83025, -1.0078735, 0.83025, -0.0899658, 0.83025, 0.778626, 0.83025, 1.3435115, 0.83025, -3.0305343
0.0984706, -0.0179599, 0.837, 0.007019, 0.837, -1.0050049, 0.837, -0.0881348, 0.837, 0.8625954, 0.837, 1.1755725, 0.837, -2.9465649
0.0992647, -0.018967, 0.84375, 0.005249, 0.84375, -1.0066528, 0.84375, -0.086792, 0.84375, 0.6870229, 0.84375, 0.961832, 0.84375, -2.8778627
0.1000588, -0.0193027, 0.8505, 0.0079956, 0.8505, -1.0071411, 0.8505, -0.0878906, 0.8505, 0.7022901, 0.8505, 0.5954198, 0.8505, -3.0839694
0.1008529, -0.0169528, 0.85725, 0.0092773, 0.85725, -1.0064087, 0.85725, -0.083252, 0.85725, 0.519084, 0.85725, 0.5267175, 0.85725, -2.9923663
0.1016471, -0.0146029, 0.864, 0.0076904, 0.864, -1.0047607, 0.864, -0.081665, 0.864, 0.6717557, 0.864, 0.5572519, 0.864, -3.0839694
0.1024412, -0.0139315, 0.87075, 0.0079956, 0.87075, -1.0094604, 0.87075, -0.0853271, 0.87075, 0.6641222, 0.87075, 0.610687, 0.87075, -3.0458016
0.1032353, -0.0130922, 0.8775, 0.0105591, 0.8775, -1.015625, 0.8775, -0.081543, 0.8775, 0.7633588, 0.8775, 0.6412213, 0.8775, -3.0305343
0.1040294, -0.011078, 0.88425, 0.0064087, 0.88425, -1.0114136, 0.88425, -0.0839233, 0.88425, 0.778626, 0.88425, 0.8320611, 0.88425, -3
0.1048235, -0.0058747, 0.891, 0.0038452, 0.891, -1.0064697, 0.891, -0.0842896, 0.891, 0.6870229, 0.891, 0.9236641, 0.891, -2.9923663
0.1056176, -0.0057069, 0.89775, 0.0015259, 0.89775, -1.0072021, 0.89775, -0.0856934, 0.89775, 0.8015267, 0.89775, 0.7328244, 0.89775, -2.9236641
0.1064118, -0.0112459, 0.9045, 0.0029907, 0.9045, -1.0049438, 0.9045, -0.0889282, 0.9045, 0.6641222, 0.9045, 0.480916, 0.9045, -2.9007633
0.1072059, -0.0125887, 0.91125, 0.0059204, 0.91125, -1.0075073, 0.91125, -0.090271, 0.91125, 0.8167939, 0.91125, 0.389313, 0.91125, -2.8625953
0.108, -0.0129244, 0.918, 0.0072632, 0.918, -1.0046387, 0.918, -0.0873413, 0.918, 0.7175573, 0.918, 0.5038168, 0.918, -2.8549619
0.1087941, -0.0149386, 0.92475, 0.0081177, 0.92475, -1.0057373, 0.92475, -0.088562, 0.92475, 0.7099237, 0.92475, 0.4885496, 0.92475, -2.9541984
0.1095882, -0.0132601, 0.9315, 0.006958, 0.9315, -1.0050049, 0.9315, -0.0909424, 0.9315, 0.6030535, 0.9315, 0.4198473, 0.9315, -2.9465649
0.1103824, -0.0142672, 0.93825, 0.0078735, 0.93825, -1.0070801, 0.93825, -0.0910645, 0.93825, 0.6183206, 0.93825, 0.2442748, 0.93825, -2.961832
0.1111765, -0.012253, 0.945, 0.0080566, 0.945, -1.0098267, 0.945, -0.0878296, 0.945, 0.740458, 0.945, 0.4580153, 0.945, -2.9160306
0.1119706, -0.0125887, 0.95175, 0.0053711, 0.95175, -1.0102539, 0.95175, -0.0878296, 0.95175, 0.9236641, 0.95175, 0.4961832, 0.95175, -3.1450381
0.1127647, -0.0162814, 0.9585, 0.0028687, 0.9585, -1.0059814, 0.9585, -0.0889282, 0.9585, 0.7251908, 0.9585, 0.2671756, 0.9585, -2.7328243
0.1135588, -0.0164492, 0.96525, 0.0046387, 0.96525, -1.0054321, 0.96525, -0.0874634, 0.96525, 0.6946565, 0.96525, 0.1068702, 0.96525, -2.8778627
0.1143529, -0.012253, 0.972, 0.005188, 0.972, -1.0067139, 0.972, -0.0870972, 0.972, 0.8244275, 0.972, 0.2366412, 0.972, -2.9541984
0.1151471, -0.0129244, 0.97875, 0.0071411, 0.97875, -1.0062866, 0.97875, -0.0875244, 0.97875, 0.8473282, 0.97875, 0.2137405, 0.97875, -3.0305343
0.1159412, -0.0099031, 0.9855, 0.0102539, 0.9855, -1.0089722, 0.9855, -0.0879517, 0.9855, 0.8244275, 0.9855, 0.3358779, 0.9855, -3.0305343
0.1167353, -0.0082246, 0.99225, 0.0096436, 0.99225, -1.0057373, 0.99225, -0.0852661, 0.99225, 0.8625954, 0.99225, 0.4198473, 0.99225, -3.0229008
0.1175294, -0.0097353, 0.999, 0.0072021, 0.999, -1.0093384, 0.999, -0.083313, 0.999, 0.8854962, 0.999, 0.6259542, 0.999, -3.0687022
0.1183235, -0.0130922, 1.00575, 0.0029907, 1.00575, -1.0085449, 1.00575, -0.0878296, 1.00575, 0.778626, 1.00575, 0.7480916, 1.00575, -2.9160306
0.1191176, -0.0125887, 1.0125, 0.0043945, 1.0125, -1.010498, 1.0125, -0.0870972, 1.0125, 0.908397, 1.0125, 0.648855, 1.0125, -2.9236641
0.1199118, -0.0169528, 1.01925, 0.0041504, 1.01925, -1.006958, 1.01925, -0.0878296, 1.01925, 0.9312977, 1.01925, 0.6870229, 1.01925, -2.870229
0.1207059, -0.0203098, 1.026, 0.0029907, 1.026, -1.0064697, 1.026, -0.0891113, 1.026, 0.9007633, 1.026, 0.4351145, 1.026, -2.9236641
0.1215, -0.0236667, 1.03275, 0.0019531, 1.03275, -1.0055542, 1.03275, -0.0925903, 1.03275, 0.8549618, 1.03275, 0.4274809, 1.03275, -2.9160306
0.1222941, -0.0256809, 1.0395, 0.0048218, 1.0395, -1.0073242, 1.0395, -0.0905762, 1.0395, 0.961832, 1.0395, 0.1374046, 1.0395, -2.8396947
0.1230882, -0.0250095, 1.04625, 0.0061646, 1.04625, -1.0080566, 1.04625, -0.0899048, 1.04625, 0.8854962, 1.04625, 0.2366412, 1.04625, -2.9770992
0.1238824, -0.0236667, 1.053, 0.0090942, 1.053, -1.0100098, 1.053, -0.0914917, 1.053, 0.8931298, 1.053, 0.259542, 1.053, -2.9312978
0.1246765, -0.0229953, 1.05975, 0.0059814, 1.05975, -1.0102539, 1.05975, -0.0874023, 1.05975, 0.9160305, 1.05975, 0.4656489, 1.05975, -3.0076337
0.1254706, -0.0171206, 1.0665, 0.0040894, 1.0665, -1.0112915, 1.0665, -0.0906982, 1.0665, 0.9389313, 1.0665, 0.5801527, 1.0665, -3.1374047
0.1262647, -0.0162814, 1.07325, 0.0001831, 1.07325, -1.0083618, 1.07325, -0.0905762, 1.07325, 0.9770992, 1.07325, 0.5419847, 1.07325, -2.961832
0.1270588, -0.0149386, 1.08, 0.0005493, 1.08, -1.0112305, 1.08, -0.0934448, 1.08, 1.0305344, 1.08, 0.4961832, 1.08, -3.1450381
0.1278529, -0.0146029, 1.08675, 0, 1.08675, -1.0056152, 1.08675, -0.088501, 1.08675, 0.9541985, 1.08675, -0.0381679, 1.08675, -3.1221373
0.1286471, -0.0142672, 1.0935, 0.0015259, 1.0935, -1.0089722, 1.0935, -0.0906982, 1.0935, 0.9847328, 1.0935, 0.0763359, 1.0935, -3.1374047
0.1294412, -0.012253, 1.10025, 0.0064087, 1.10025, -1.0041504, 1.10025, -0.0877686, 1.10025, 1.0305344, 1.10025, 0.0992366, 1.10025, -3.1679389
0.1302353, -0.0125887, 1.107, 0.0123901, 1.107, -1.0061646, 1.107, -0.0864258, 1.107, 1.0305344, 1.107, 0.1755725, 1.107, -3.0076337
0.1310294, -0.0135958, 1.11375, 0.0117188, 1.11375, -1.0075073, 1.11375, -0.0856934, 1.11375, 1.0305344, 1.11375, 0.7022901, 1.11375, -2.9465649
0.1318235, -0.012253, 1.1205, 0.0107422, 1.1205, -1.0059814, 1.1205, -0.0845337, 1.1205, 1.1603054, 1.1205, 0.8931298, 1.1205, -3.091603
0.1326176, -0.0109102, 1.12725, 0.0064087, 1.12725, -1.0097656, 1.12725, -0.0845337, 1.12725, 1.129771, 1.12725, 1.091603, 1.12725, -3.1603053
0.1334118, -0.0112459, 1.134, 0.0029907, 1.134, -1.0075684, 1.134, -0.0828247, 1.134, 1.1679389, 1.134, 0.9770992, 1.134, -3.1755726
0.1342059, -0.010071, 1.14075, 0.0028076, 1.14075, -1.0056152, 1.14075, -0.0857544, 1.14075, 1.1221374, 1.14075, 0.9312977, 1.14075, -3.0152671
0.135, -0.011078, 1.1475, 0.0029907, 1.1475, -1.0031128, 1.1475, -0.086792, 1.1475, 0.9389313, 1.1475, 0.6412213, 1.1475, -3.1221373
0.1357941, -0.0132601, 1.15425, 0.0076904, 1.15425, -1.0078125, 1.15425, -0.0843506, 1.15425, 0.870229, 1.15425, 0.4885496, 1.15425, -3.1526718
0.1365882, -0.0135958, 1.161, 0.0056763, 1.161, -1.0073242, 1.161, -0.0856323, 1.161, 0.9770992, 1.161, 0.5572519, 1.161, -3.0687022
0.1373824, -0.0146029, 1.16775, 0.0083008, 1.16775, -1.0040894, 1.16775, -0.0862427, 1.16775, 0.961832, 1.16775, 0.5877863, 1.16775, -3.0763359
0.1381765, -0.0149386, 1.1745, 0.0078125, 1.1745, -1.0023804, 1.1745, -0.0878906, 1.1745, 0.8931298, 1.1745, 0.7633588, 1.1745, -3.0839694
0.1389706, -0.0135958, 1.18125, 0.0101929, 1.18125, -1.006897, 1.18125, -0.0828857, 1.18125, 0.8396947, 1.18125, 0.8854962, 1.18125, -3.038168
0.1397647, -0.0139315, 1.188, 0.0083618, 1.188, -1.0084839, 1.188, -0.0848389, 1.188, 0.7862595, 1.188, 1.0076336, 1.188, -3.0992367
0.1405588, -0.0135958, 1.19475, 0.0048218, 1.19475, -1.0089111, 1.19475, -0.085022, 1.19475, 0.9694657, 1.19475, 1.0229008, 1.19475, -2.961832
0.1413529, -0.0137636, 1.2015, 0.0036621, 1.2015, -1.0110474, 1.2015, -0.0864258, 1.2015, 0.7633588, 1.2015, 0.9694657, 1.2015, -2.9236641
0.1421471, -0.0135958, 1.20825, 0.0018921, 1.20825, -1.0060425, 1.20825, -0.0883179, 1.20825, 0.7709923, 1.20825, 1.0458015, 1.20825, -2.9160306
0.1429412, -0.0154421, 1.215, 0.007019, 1.215, -1.0067139, 1.215, -0.085144, 1.215, 0.7480916, 1.215, 0.8931298, 1.215, -2.8320611
0.1437353, -0.0216526, 1.22175, 0.0061035, 1.22175, -1.0079956, 1.22175, -0.0884399, 1.22175, 0.8549618, 1.22175, 0.8320611, 1.22175, -2.7633588
0.1445294, -0.0193027, 1.2285, 0.0054932, 1.2285, -1.0072021, 1.2285, -0.0897217, 1.2285, 0.9389313, 1.2285, 0.8320611, 1.2285, -2.9694657
0.1453235, -0.0135958, 1.23525, 0.0065918, 1.23525, -1.0059814, 1.23525, -0.0861816, 1.23525, 0.778626, 1.23525, 0.7251908, 1.23525, -2.9160306
0.1461176, -0.0139315, 1.242, 0.0097656, 1.242, -1.0041504, 1.242, -0.0877686, 1.242, 0.8091603, 1.242, 0.9160305, 1.242, -2.8931298
0.1469118, -0.0171206, 1.24875, 0.0089111, 1.24875, -1.0027466, 1.24875, -0.0839233, 1.24875, 0.6870229, 1.24875, 0.7709923, 1.24875, -3.0305343
0.1477059, -0.0169528, 1.2555, 0.0109863, 1.2555, -1.0026245, 1.2555, -0.0866089, 1.2555, 0.7022901, 1.2555, 0.778626, 1.2555, -2.961832
0.1485, -0.0130922, 1.26225, 0.0106201, 1.26225, -1.0064087, 1.26225, -0.0884399, 1.26225, 0.9160305, 1.26225, 1.1068702, 1.26225, -3.0610688
0.1492941, -0.01561, 1.269, 0.0073242, 1.269, -1.005127, 1.269, -0.0876465, 1.269, 0.7862595, 1.269, 1.091603, 1.269, -2.9007633
0.1500882, -0.01561, 1.27575, 0.0041504, 1.27575, -1.0067139, 1.27575, -0.086853, 1.27575, 0.7175573, 1.27575, 1.1221374, 1.27575, -2.8396947
0.1508824, -0.0146029, 1.2825, -0.0015259, 1.2825, -1.0092773, 1.2825, -0.0889282, 1.2825, 0.8473282, 1.2825, 1.2519084, 1.2825, -2.8473282
0.1516765, -0.0130922, 1.28925, 0.0009155, 1.28925, -1.0067749, 1.28925, -0.0877686, 1.28925, 0.9007633, 1.28925, 0.9694657, 1.28925, -2.8473282
0.1524706, -0.0139315, 1.296, -0.0020752, 1.296, -1.005127, 1.296, -0.0906372, 1.296, 0.9541985, 1.296, 0.7328244, 1.296, -2.8015268
0.1532647, -0.0135958, 1.30275, 0.0011597, 1.30275, -1.0062866, 1.30275, -0.0910034, 1.30275, 0.8396947, 1.30275, 0.5877863, 1.30275, -3.1908398
0.1540588, -0.0139315, 1.3095, 0.005249, 1.3095, -1.0061035, 1.3095, -0.0884399, 1.3095, 0.8244275, 1.3095, 0.5114504, 1.3095, -3.0152671
0.1548529, -0.0149386, 1.31625, 0.003479, 1.31625, -1.0073242, 1.31625, -0.0878906, 1.31625, 1.0152671, 1.31625, 0.648855, 1.31625, -3.1908398
0.1556471, -0.0169528, 1.323, 0.0070801, 1.323, -1.0081177, 1.323, -0.0888062, 1.323, 0.9236641, 1.323, 0.6259542, 1.323, -3.1603053
0.1564412, -0.0164492, 1.32975, 0.0089111, 1.32975, -1.0061035, 1.32975, -0.0889893, 1.32975, 0.8015267, 1.32975, 0.5648855, 1.32975, -3.1068702
0.1572353, -0.0203098, 1.3365, 0.005127, 1.3365, -1.0067139, 1.3365, -0.0863037, 1.3365, 1.0458015, 1.3365, 0.7328244, 1.3365, -3.0992367
0.1580294, -0.0218204, 1.34325, 0.0014038, 1.34325, -1.006958, 1.34325, -0.0870972, 1.34325, 1.1374046, 1.34325, 0.610687, 1.34325, -3.2137403
0.1588235, -0.0224918, 1.35, 0.0012207, 1.35, -1.0090942, 1.35, -0.0861206, 1.35, 1.0229008, 1.35, 0.4732825, 1.35, -3.0687022
0.1596176, -0.0218204, 1.35675, 0.0048218, 1.35675, -1.006958, 1.35675, -0.0864868, 1.35675, 0.8625954, 1.35675, 0.4045801, 1.35675, -3.1755726
0.1604118, -0.0209812, 1.3635, 0.0071411, 1.3635, -1.0071411, 1.3635, -0.0861206, 1.3635, 1.0458015, 1.3635, 0.6335878, 1.3635, -3.0152671
0.1612059, -0.0206455, 1.37025, 0.0079346, 1.37025, -1.0093384, 1.37025, -0.085022, 1.37025, 1.0610687, 1.37025, 0.5801527, 1.37025, -3.259542
0.162, -0.0186313, 1.377, 0.0084229, 1.377, -1.0075073, 1.377, -0.0880127, 1.377, 1.1068702, 1.377, 0.6717557, 1.377, -3.221374
0.1627941, -0.0176242, 1.38375, 0.0057983, 1.38375, -1.0053101, 1.38375, -0.0880127, 1.38375, 0.9694657, 1.38375, 0.5877863, 1.38375, -3.0992367
0.1635882, -0.021149, 1.3905, 0.0073853, 1.3905, -1.0059204, 1.3905, -0.0871582, 1.3905, 0.9541985, 1.3905, 0.7862595, 1.3905, -3.2366412
0.1643824, -0.0213169, 1.39725, 0.0072021, 1.39725, -1.005188, 1.39725, -0.0877075, 1.39725, 0.9465649, 1.39725, 0.8396947, 1.39725, -3.2290077
0.1651765, -0.0176242, 1.404, 0.0079956, 1.404, -1.006958, 1.404, -0.085144, 1.404, 0.8396947, 1.404, 0.8625954, 1.404, -3.0763359
0.1659706, -0.01561, 1.41075, 0.0053101, 1.41075, -1.0076904, 1.41075, -0.0865479, 1.41075, 0.9007633, 1.41075, 0.9541985, 1.41075, -3.0229008
0.1667647, -0.0132601, 1.4175, 0.0015259, 1.4175, -1.007019, 1.4175, -0.0844727, 1.4175, 0.9007633, 1.4175, 0.9541985, 1.4175, -3.0152671
0.1675588, -0.0099031, 1.42425, 0.0032959, 1.42425, -1.0044556, 1.42425, -0.0863647, 1.42425, 0.9465649, 1.42425, 0.6564885, 1.42425, -3.0229008
0.1683529, -0.0127565, 1.431, 0.0040283, 1.431, -1.0066528, 1.431, -0.0859985, 1.431, 0.8931298, 1.431, 0.5038168, 1.431, -3.0763359
0.1691471, -0.0169528, 1.43775, 0.0054932, 1.43775, -1.008606, 1.43775, -0.0858154, 1.43775, 0.8549618, 1.43775, 0.4961832, 1.43775, -3.2442749
0.1699412, -0.0157778, 1.4445, 0.0054932, 1.4445, -1.0084839, 1.4445, -0.0858154, 1.4445, 0.8320611, 1.4445, 0.519084, 1.4445, -3.2061069
0.1707353, -0.012253, 1.45125, 0.0063477, 1.45125, -1.0084229, 1.45125, -0.0874634, 1.45125, 0.9770992, 1.45125, 0.6335878, 1.45125, -3.0458016
0.1715294, -0.0115816, 1.458, 0.0046997, 1.458, -1.0090332, 1.458, -0.085144, 1.458, 0.8244275, 1.458, 0.7633588, 1.458, -3.1908398
0.1723235, -0.0151064, 1.46475, 0.0037842, 1.46475, -1.0092773, 1.46475, -0.0881348, 1.46475, 0.9847328, 1.46475, 0.7862595, 1.46475, -2.9847329
0.1731176, -0.0159457, 1.4715, 0.0029297, 1.4715, -1.0085449, 1.4715, -0.0891113, 1.4715, 0.9236641, 1.4715, 0.7862595, 1.4715, -3.0687022
0.1739118, -0.0159457, 1.47825, 0.0029297, 1.47825, -1.0068359, 1.47825, -0.0915527, 1.47825, 0.9541985, 1.47825, 0.9389313, 1.47825, -3.1221373
0.1747059, -0.0149386, 1.485, 0.0005493, 1.485, -1.0042725, 1.485, -0.0923462, 1.485, 0.8473282, 1.485, 0.7557252, 1.485, -3.1526718
0.1755, -0.0139315, 1.49175, 0.0029297, 1.49175, -1.0050659, 1.49175, -0.0887451, 1.49175, 0.908397, 1.49175, 0.4580153, 1.49175, -3.2900763
0.1762941, -0.0135958, 1.4985, 0.0042114, 1.4985, -1.0072632, 1.4985, -0.090332, 1.4985, 0.8549618, 1.4985, 0.1984733, 1.4985, -3.1221373
0.1770882, -0.0137636, 1.50525, 0.0059204, 1.50525, -1.0100708, 1.50525, -0.086792, 1.50525, 0.8931298, 1.50525, 0.3358779, 1.50525, -3.1068702
0.1778824, -0.011078, 1.512, 0.0048828, 1.512, -1.0100708, 1.512, -0.0879517, 1.512, 1.0076336, 1.512, 0.4351145, 1.512, -3.2061069
0.1786765, -0.0095674, 1.51875, 0.0062866, 1.51875, -1.0056152, 1.51875, -0.0865479, 1.51875, 1.091603, 1.51875, 0.6030535, 1.51875, -3.3053436
0.1794706, -0.0112459, 1.5255, 0.0061035, 1.5255, -1.0050659, 1.5255, -0.0892944, 1.5255, 1, 1.5255, 0.5419847, 1.5255, -3.3206108
0.1802647, -0.0099031, 1.53225, 0.0032959, 1.53225, -1.0097046, 1.53225, -0.088562, 1.53225, 0.9465649, 1.53225, 0.5877863, 1.53225, -3.2519083
0.1810588, -0.0095674, 1.539, 0.0028687, 1.539, -1.0090942, 1.539, -0.0888672, 1.539, 1.1068702, 1.539, 0.5343512, 1.539, -3.1679389
0.1818529, -0.0070497, 1.54575, 0.0020752, 1.54575, -1.0067139, 1.54575, -0.0841064, 1.54575, 1.1832061, 1.54575, 0.6259542, 1.54575, -3.1145039
0.1826471, -0.005539, 1.5525, 0.0018921, 1.5525, -1.0054932, 1.5525, -0.0898438, 1.5525, 1.2519084, 1.5525, 0.480916, 1.5525, -3.1679389
0.1834412, -0.0075532, 1.55925, 0.0061646, 1.55925, -1.0046997, 1.55925, -0.0894775, 1.55925, 0.9389313, 1.55925, 0.648855, 1.55925, -3.3358779
0.1842353, -0.0072175, 1.566, 0.0029297, 1.566, -1.0070801, 1.566, -0.0864258, 1.566, 1.1145039, 1.566, 0.6870229, 1.566, -3.3664122
0.1850294, -0.0092317, 1.57275, 0.0026245, 1.57275, -1.0088501, 1.57275, -0.0852661, 1.57275, 0.9694657, 1.57275, 0.5648855, 1.57275, -3.1221373
0.1858235, -0.0109102, 1.5795, 0.0041504, 1.5795, -1.0061035, 1.5795, -0.0890503, 1.5795, 1.221374, 1.5795, 0.8091603, 1.5795, -3.0458016
0.1866176, -0.0085603, 1.58625, 0.0045776, 1.58625, -1.008606, 1.58625, -0.0927124, 1.58625, 1.0839695, 1.58625, 0.6183206, 1.58625, -3.0839694
0.1874118, -0.0139315, 1.593, 0.0033569, 1.593, -1.0062256, 1.593, -0.0894775, 1.593, 1.0458015, 1.593, 0.5267175, 1.593, -3.2671757
0.1882059, -0.0137636, 1.59975, 0.0060425, 1.59975, -1.0066528, 1.59975, -0.0890503, 1.59975, 1.0610687, 1.59975, 0.519084, 1.59975, -3.0992367
0.189, -0.0090639, 1.6065, 0.0057983, 1.6065, -1.0061646, 1.6065, -0.0848389, 1.6065, 0.9847328, 1.6065, 0.648855, 1.6065, -3.1832061
0.1897941, -0.0099031, 1.61325, 0.0046997, 1.61325, -1.0076294, 1.61325, -0.0887451, 1.61325, 1.0229008, 1.61325, 0.6259542, 1.61325, -3.2671757
0.1905882, -0.01561, 1.62, 0.0058594, 1.62, -1.0092163, 1.62, -0.086792, 1.62, 0.961832, 1.62, 0.3587786, 1.62, -3.1603053
0.1913824, -0.0176242, 1.62675, 0.0050659, 1.62675, -1.0101929, 1.62675, -0.0863647, 1.62675, 0.9923664, 1.62675, 0.4732825, 1.62675, -3.2824428
0.1921765, -0.0176242, 1.6335, 0.0003052, 1.6335, -1.0043945, 1.6335, -0.0879517, 1.6335, 0.961832, 1.6335, 0.5877863, 1.6335, -3.2824428
0.1929706, -0.0149386, 1.64025, 0.0024414, 1.64025, -1.0040894, 1.64025, -0.0884399, 1.64025, 0.9770992, 1.64025, 0.4732825, 1.64025, -3.4045801
0.1937647, -0.0162814, 1.647, 0.0031128, 1.647, -1.0050659, 1.647, -0.086731, 1.647, 0.9694657, 1.647, 0.4656489, 1.647, -3.2824428
0.1945588, -0.0172885, 1.65375, 0.0076294, 1.65375, -1.0073242, 1.65375, -0.0845337, 1.65375, 0.9312977, 1.65375, 0.5877863, 1.65375, -3.1068702
0.1953529, -0.0199741, 1.6605, 0.0076294, 1.6605, -1.010498, 1.6605, -0.0841675, 1.6605, 1.0305344, 1.6605, 0.8167939, 1.6605, -3.0534351
0.1961471, -0.0176242, 1.66725, 0.0066528, 1.66725, -1.0059204, 1.66725, -0.0856323, 1.66725, 0.9694657, 1.66725, 0.8854962, 1.66725, -3.2061069
0.1969412, -0.0146029, 1.674, 0.0071411, 1.674, -1.0073853, 1.674, -0.0866089, 1.674, 0.870229, 1.674, 0.7557252, 1.674, -3.221374
0.1977353, -0.0135958, 1.68075, 0.0054932, 1.68075, -1.0072632, 1.68075, -0.086792, 1.68075, 0.8625954, 1.68075, 0.9007633, 1.68075, -3.1526718
0.1985294, -0.0142672, 1.6875, 0.0037231, 1.6875, -1.0073853, 1.6875, -0.0861816, 1.6875, 0.8854962, 1.6875, 1, 1.6875, -3.1450381
0.1993235, -0.0137636, 1.69425, 0.0043335, 1.69425, -1.0095825, 1.69425, -0.0877686, 1.69425, 0.8167939, 1.69425, 0.9923664, 1.69425, -3.1908398
0.2001176, -0.0149386, 1.701, 0.0036011, 1.701, -1.0088501, 1.701, -0.0843506, 1.701, 0.7633588, 1.701, 1.129771, 1.701, -3.1221373
0.2009118, -0.0135958, 1.70775, 0.0060425, 1.70775, -1.0101318, 1.70775, -0.0889282, 1.70775, 0.778626, 1.70775, 1.0076336, 1.70775, -3.2900763
0.2017059, -0.0139315, 1.7145, 0.0037842, 1.7145, -1.0108032, 1.7145, -0.0888062, 1.7145, 0.8396947, 1.7145, 0.9694657, 1.7145, -3.3206108
0.2025, -0.0149386, 1.72125, 0.0041504, 1.72125, -1.0093384, 1.72125, -0.0877075, 1.72125, 0.8015267, 1.72125, 0.9312977, 1.72125, -3.2290077
0.2032941, -0.0162814, 1.728, 0.0046387, 1.728, -1.0097656, 1.728, -0.0870972, 1.728, 0.8320611, 1.728, 0.778626, 1.728, -3.1603053
0.2040882, -0.0191348, 1.73475, 0.0032349, 1.73475, -1.0078735, 1.73475, -0.0880737, 1.73475, 0.9389313, 1.73475, 0.7328244, 1.73475, -3.1603053
0.2048824, -0.0186313, 1.7415, 0.0015259, 1.7415, -1.0076904, 1.7415, -0.0900269, 1.7415, 0.778626, 1.7415, 0.778626, 1.7415, -3.0763359
0.2056765, -0.0186313, 1.74825, 0.0039062, 1.74825, -1.0076904, 1.74825, -0.0863647, 1.74825, 1.0076336, 1.74825, 0.5877863, 1.74825, -3.1984732
0.2064706, -0.0166171, 1.755, 0.0061646, 1.755, -1.0068359, 1.755, -0.0864258, 1.755, 0.870229, 1.755, 0.519084, 1.755, -3.2137403
0.2072647, -0.0149386, 1.76175, 0.0050659, 1.76175, -1.0066528, 1.76175, -0.0858765, 1.76175, 0.7557252, 1.76175, 0.5267175, 1.76175, -3.2519083
0.2080588, -0.0162814, 1.7685, 0.0027466, 1.7685, -1.0067139, 1.7685, -0.0908203, 1.7685, 0.8320611, 1.7685, 0.6946565, 1.7685, -3.1755726
0.2088529, -0.0182956, 1.77525, 0.0059814, 1.77525, -1.0050049, 1.77525, -0.0905151, 1.77525, 0.8396947, 1.77525, 0.8625954, 1.77525, -3.0763359
0.2096471, -0.0194705, 1.782, 0.0059814, 1.782, -1.0053101, 1.782, -0.0882568, 1.782, 0.9160305, 1.782, 0.8320611, 1.782, -3.0839694
0.2104412, -0.0234989, 1.78875, 0.0036621, 1.78875, -1.0072632, 1.78875, -0.0894775, 1.78875, 0.7862595, 1.78875, 1.0305344, 1.78875, -3.0687022
0.2112353, -0.0223239, 1.7955, 0.0059814, 1.7955, -1.0071411, 1.7955, -0.0904541, 1.7955, 0.8778626, 1.7955, 1.0229008, 1.7955, -3.0992367
0.2120294, -0.0196384, 1.80225, 0.0024414, 1.80225, -1.005127, 1.80225, -0.0883179, 1.80225, 0.961832, 1.80225, 0.9847328, 1.80225, -3.0992367
0.2128235, -0.0196384, 1.809, 0.0044556, 1.809, -1.006958, 1.809, -0.0869751, 1.809, 0.9465649, 1.809, 0.9007633, 1.809, -3.1221373
0.2136176, -0.0176242, 1.81575, 0.001709, 1.81575, -1.0072021, 1.81575, -0.0879517, 1.81575, 0.9847328, 1.81575, 0.8854962, 1.81575, -3.1221373
0.2144118, -0.0199741, 1.8225, 0.0012817, 1.8225, -1.0092163, 1.8225, -0.09021, 1.8225, 1.1679389, 1.8225, 0.7175573, 1.8225, -3.1908398
0.2152059, -0.0184634, 1.82925, 0.001709, 1.82925, -1.0096436, 1.82925, -0.09375, 1.82925, 1.1145039, 1.82925, 0.6335878, 1.82925, -3.3358779
0.216, -0.0179599, 1.836, 0.0021362, 1.836, -1.0081177, 1.836, -0.0921631, 1.836, 1.0763359, 1.836, 0.5801527, 1.836, -3.4351146
0.2167941, -0.0186313, 1.84275, 0.0053101, 1.84275, -1.0050659, 1.84275, -0.0916138, 1.84275, 1.091603, 1.84275, 0.5725191, 1.84275, -3.351145
0.2175882, -0.0162814, 1.8495, 0.0038452, 1.8495, -1.0080566, 1.8495, -0.0878906, 1.8495, 1.0076336, 1.8495, 0.4885496, 1.8495, -3.4580152
0.2183824, -0.0159457, 1.85625, 0.0062866, 1.85625, -1.0092773, 1.85625, -0.0878296, 1.85625, 1.3129771, 1.85625, 0.3740458, 1.85625, -3.3206108
0.2191765, -0.0182956, 1.863, 0.0048218, 1.863, -1.0095825, 1.863, -0.0864258, 1.863, 1.1755725, 1.863, 0.4961832, 1.863, -3.4122138
0.2199706, -0.0176242, 1.86975, 0.0072632, 1.86975, -1.008728, 1.86975, -0.0847778, 1.86975, 1.1603054, 1.86975, 0.3053435, 1.86975, -3.259542
0.2207647, -0.0166171, 1.8765, 0.0097046, 1.8765, -1.0076294, 1.8765, -0.085022, 1.8765, 1.0992366, 1.8765, 0.480916, 1.8765, -3.1755726
0.2215588, -0.018967, 1.88325, 0.007019, 1.88325, -1.005249, 1.88325, -0.0864258, 1.88325, 1.0992366, 1.88325, 0.7022901, 1.88325, -3.4122138
0.2223529, -0.0201419, 1.89, 0.0081787, 1.89, -1.0072021, 1.89, -0.0841064, 1.89, 0.9923664, 1.89, 0.8854962, 1.89, -3.1526718
0.2231471, -0.0169528, 1.89675, 0.0066528, 1.89675, -1.0054932, 1.89675, -0.0866089, 1.89675, 0.9770992, 1.89675, 0.9236641, 1.89675, -3.3664122
0.2239412, -0.018967, 1.9035, 0.0046997, 1.9035, -1.0058594, 1.9035, -0.0869141, 1.9035, 0.9465649, 1.9035, 1.0152671, 1.9035, -3.1603053
0.2247353, -0.0196384, 1.91025, 0.0025024, 1.91025, -1.0033569, 1.91025, -0.088501, 1.91025, 0.9160305, 1.91025, 1.091603, 1.91025, -3.4274809
0.2255294, -0.0142672, 1.917, 0.0029907, 1.917, -1.0094604, 1.917, -0.0858154, 1.917, 0.8091603, 1.917, 0.9923664, 1.917, -3.129771
0.2263235, -0.012253, 1.92375, 0.0058594, 1.92375, -1.0075073, 1.92375, -0.085022, 1.92375, 0.9694657, 1.92375, 0.8778626, 1.92375, -3.3358779
0.2271176, -0.0119173, 1.9305, 0.0047607, 1.9305, -1.0098877, 1.9305, -0.0888062, 1.9305, 0.9694657, 1.9305, 0.9770992, 1.9305, -3.4274809
0.2279118, -0.0099031, 1.93725, 0.0026855, 1.93725, -1.0070801, 1.93725, -0.0904541, 1.93725, 0.961832, 1.93725, 0.8854962, 1.93725, -3.2061069
0.2287059, -0.0137636, 1.944, 0.0003662, 1.944, -1.006897, 1.944, -0.0917969, 1.944, 0.9923664, 1.944, 0.8244275, 1.944, -3.1832061
0.2295, -0.0149386, 1.95075, 0.0018311, 1.95075, -1.0066528, 1.95075, -0.09021, 1.95075, 0.9389313, 1.95075, 0.7633588, 1.95075, -3.2671757
0.2302941, -0.0105745, 1.9575, 0.0040894, 1.9575, -1.0084839, 1.9575, -0.0925293, 1.9575, 0.9160305, 1.9575, 0.7251908, 1.9575, -3.2366412
0.2310882, -0.0072175, 1.96425, 0.006897, 1.96425, -1.0095215, 1.96425, -0.0903931, 1.96425, 0.9389313, 1.96425, 0.6030535, 1.96425, -3.1679389
0.2318824, -0.0090639, 1.971, 0.0059204, 1.971, -1.0088501, 1.971, -0.0883789, 1.971, 1.0534351, 1.971, 0.8396947, 1.971, -3.259542
0.2326765, -0.012253, 1.97775, 0.0057373, 1.97775, -1.0059204, 1.97775, -0.0866699, 1.97775, 1, 1.97775, 0.8473282, 1.97775, -3.1755726
0.2334706, -0.0095674, 1.9845, 0.0059814, 1.9845, -1.0048218, 1.9845, -0.0892944, 1.9845, 1.0992366, 1.9845, 0.9160305, 1.9845, -3.351145
0.2342647, -0.0075532, 1.99125, 0.0064697, 1.99125, -1.007019, 1.99125, -0.0889282, 1.99125, 1.1450381, 1.99125, 0.8854962, 1.99125, -3.2137403
0.2350588, -0.0065461, 1.998, 0.0057983, 1.998, -1.0065918, 1.998, -0.0888062, 1.998, 1.0687023, 1.998, 0.7862595, 1.998, -3.4274809
0.2358529, -0.0090639, 2.00475, 0.0077515, 2.00475, -1.0091553, 2.00475, -0.0878906, 2.00475, 1.1145039, 2.00475, 0.8015267, 2.00475, -3.3358779
0.2366471, -0.0097353, 2.0115, 0.0049438, 2.0115, -1.0076904, 2.0115, -0.0883179, 2.0115, 0.9465649, 2.0115, 0.6564885, 2.0115, -3.2977099
0.2374412, -0.0095674, 2.01825, 0.0047607, 2.01825, -1.010498, 2.01825, -0.0893555, 2.01825, 1.1221374, 2.01825, 0.5954198, 2.01825, -3.2442749
0.2382353, -0.0099031, 2.025, 0.0013428, 2.025, -1.0100708, 2.025, -0.0884399, 2.025, 1.129771, 2.025, 0.4198473, 2.025, -3.2748091
0.2390294, -0.0099031, 2.03175, 0.0004272, 2.03175, -1.0047607, 2.03175, -0.0906372, 2.03175, 1.2137405, 2.03175, 0.4045801, 2.03175, -3.2137403
0.2398235, -0.0078889, 2.0385, 0.0007324, 2.0385, -1.0072632, 2.0385, -0.0880737, 2.0385, 1.1450381, 2.0385, 0.1755725, 2.0385, -3.2977099
0.2406176, -0.0078889, 2.04525, -0.0005493, 2.04525, -1.005127, 2.04525, -0.0898438, 2.04525, 1.1984733, 2.04525, 0.1450382, 2.04525, -3.4351146
0.2414118, -0.0105745, 2.052, 0.0045166, 2.052, -1.0106201, 2.052, -0.0875244, 2.052, 1.3206106, 2.052, 0.221374, 2.052, -3.4122138
0.2422059, -0.0109102, 2.05875, 0.0074463, 2.05875, -1.0106201, 2.05875, -0.0877686, 2.05875, 1.351145, 2.05875, 0.5114504, 2.05875, -3.3435113
0.243, -0.0090639, 2.0655, 0.0083008, 2.0655, -1.0106812, 2.0655, -0.0875244, 2.0655, 1.2290076, 2.0655, 0.4656489, 2.0655, -3.3206108
0.2437941, -0.0119173, 2.07225, 0.008667, 2.07225, -1.0072632, 2.07225, -0.0855713, 2.07225, 1.2671756, 2.07225, 0.4885496, 2.07225, -3.2900763
0.2445882, -0.0112459, 2.079, 0.0107422, 2.079, -1.0048218, 2.079, -0.0874023, 2.079, 1.1374046, 2.079, 0.6183206, 2.079, -3.3053436
0.2453824, -0.0107424, 2.08575, 0.0091553, 2.08575, -1.0078125, 2.08575, -0.0852661, 2.08575, 1.2061069, 2.08575, 0.740458, 2.08575, -3.259542
0.2461765, -0.0154421, 2.0925, 0.0039673, 2.0925, -1.0079956, 2.0925, -0.0870361, 2.0925, 1.351145, 2.0925, 0.9007633, 2.0925, -3.4045801
0.2469706, -0.0129244, 2.09925, 0.0040283, 2.09925, -1.0047607, 2.09925, -0.0844116, 2.09925, 1.1603054, 2.09925, 0.9847328, 2.09925, -3.3282442
0.2477647, -0.0090639, 2.106, 0.0045776, 2.106, -1.0028687, 2.106, -0.0836792, 2.106, 1.2442749, 2.106, 0.778626, 2.106, -3.221374
0.2485588, -0.0099031, 2.11275, 0.0044556, 2.11275, -1.0057983, 2.11275, -0.0863647, 2.11275, 1.1068702, 2.11275, 0.3816794, 2.11275, -3.4656489
0.2493529, -0.0112459, 2.1195, 0.0078735, 2.1195, -1.0070801, 2.1195, -0.0862427, 2.1195, 1.0839695, 2.1195, 0.519084, 2.1195, -3.1984732
0.2501471, -0.0092317, 2.12625, 0.0109863, 2.12625, -1.0081177, 2.12625, -0.0861816, 2.12625, 0.9160305, 2.12625, 0.7099237, 2.12625, -3.2366412
0.2509412, -0.0085603, 2.133, 0.0098877, 2.133, -1.0089111, 2.133, -0.0873413, 2.133, 1.0534351, 2.133, 0.9465649, 2.133, -3.2671757
0.2517353, -0.0082246, 2.13975, 0.0037842, 2.13975, -1.008667, 2.13975, -0.088501, 2.13975, 1.1984733, 2.13975, 1.1145039, 2.13975, -3.091603
0.2525294, -0.0115816, 2.1465, 0.0022583, 2.1465, -1.0079346, 2.1465, -0.0907593, 2.1465, 1.2061069, 2.1465, 1.0839695, 2.1465, -3.1374047
0.2533235, -0.0172885, 2.15325, 0.0028076, 2.15325, -1.0082397, 2.15325, -0.086731, 2.15325, 1.1450381, 2.15325, 0.8625954, 2.15325, -3.2137403
0.2541176, -0.0169528, 2.16, 0.003479, 2.16, -1.0074463, 2.16, -0.0898438, 2.16, 1.2824427, 2.16, 1, 2.16, -3.0305343
0.2549118, -0.0223239, 2.16675, 0.0025635, 2.16675, -1.0046997, 2.16675, -0.0891113, 2.16675, 1.2061069, 2.16675, 0.9847328, 2.16675, -3.2748091
0.2557059, -0.0243381, 2.1735, 0.0061646, 2.1735, -1.0042114, 2.1735, -0.0893555, 2.1735, 1.0305344, 2.1735, 0.9694657, 2.1735, -3.2137403
0.2565, -0.0194705, 2.18025, 0.0057983, 2.18025, -1.0070801, 2.18025, -0.0855713, 2.18025, 1.2671756, 2.18025, 1.0610687, 2.18025, -3.259542
0.2572941, -0.018967, 2.187, 0.0061646, 2.187, -1.0076904, 2.187, -0.0848999, 2.187, 1.1984733, 2.187, 1.3282443, 2.187, -3.2977099
0.2580882, -0.0199741, 2.19375, 0.0041504, 2.19375, -1.006958, 2.19375, -0.085144, 2.19375, 1.1374046, 2.19375, 1.5038168, 2.19375, -3.1984732
0.2588824, -0.0193027, 2.2005, 0.0067139, 2.2005, -1.0050049, 2.2005, -0.0847168, 2.2005, 1.2366412, 2.2005, 1.5114504, 2.2005, -3.2137403
0.2596765, -0.0196384, 2.20725, 0.0062866, 2.20725, -1.0064697, 2.20725, -0.0839844, 2.20725, 0.908397, 2.20725, 1.4961832, 2.20725, -3.1221373
0.2604706, -0.0198062, 2.214, 0.0067749, 2.214, -1.0075684, 2.214, -0.0830078, 2.214, 1.1450381, 2.214, 1.480916, 2.214, -3.2748091
0.2612647, -0.0193027, 2.22075, 0.005188, 2.22075, -1.0080566, 2.22075, -0.0836182, 2.22075, 0.9923664, 2.22075, 1.4351145, 2.22075, -3.2290077
0.2620588, -0.0182956, 2.2275, 0.0056152, 2.2275, -1.0056763, 2.2275, -0.0839844, 2.2275, 0.9312977, 2.2275, 1.2442749, 2.2275, -3.2442749
0.2628529, -0.0162814, 2.23425, 0.0008545, 2.23425, -1.0096436, 2.23425, -0.0855103, 2.23425, 0.8244275, 2.23425, 1.0076336, 2.23425, -3.2366412
0.2636471, -0.0193027, 2.241, 0.0059204, 2.241, -1.0108032, 2.241, -0.0852661, 2.241, 0.7709923, 2.241, 0.6793893, 2.241, -3.1221373
0.2644412, -0.0184634, 2.24775, 0.0024414, 2.24775, -1.0095215, 2.24775, -0.0856934, 2.24775, 0.7022901, 2.24775, 0.4274809, 2.24775, -3.221374
0.2652353, -0.0152743, 2.2545, 0.0072632, 2.2545, -1.0101929, 2.2545, -0.0839233, 2.2545, 0.648855, 2.2545, 0.2442748, 2.2545, -3.2061069
0.2660294, -0.01561, 2.26125, 0.007019, 2.26125, -1.0064697, 2.26125, -0.0823364, 2.26125, 0.8320611, 2.26125, 0.3435115, 2.26125, -3.259542
0.2668235, -0.0139315, 2.268, 0.008606, 2.268, -1.0065918, 2.268, -0.0842285, 2.268, 0.740458, 2.268, 0.480916, 2.268, -3.2366412
0.2676176, -0.0139315, 2.27475, 0.0077515, 2.27475, -1.0053711, 2.27475, -0.0838623, 2.27475, 0.6335878, 2.27475, 0.4122137, 2.27475, -3.1679389
0.2684118, -0.012253, 2.2815, 0.007019, 2.2815, -1.0056763, 2.2815, -0.0806885, 2.2815, 0.4427481, 2.2815, 0.3969466, 2.2815, -3.0992367
0.2692059, -0.0159457, 2.28825, 0.0050049, 2.28825, -1.0053711, 2.28825, -0.0820923, 2.28825, 0.4656489, 2.28825, 0.3969466, 2.28825, -3.0610688
0.27, -0.018967, 2.295, 0.0089722, 2.295, -1.0050049, 2.295, -0.0839233, 2.295, 0.3358779, 2.295, 0.4274809, 2.295, -3.0458016
0.2707941, -0.017792, 2.30175, 0.0077515, 2.30175, -1.0072632, 2.30175, -0.0853271, 2.30175, 0.2671756, 2.30175, 0.480916, 2.30175, -3.091603
0.2715882, -0.0164492, 2.3085, 0.008728, 2.3085, -1.0059814, 2.3085, -0.0857544, 2.3085, 0.2671756, 2.3085, 0.3129771, 2.3085, -3.1679389
0.2723824, -0.0157778, 2.31525, 0.0093994, 2.31525, -1.0077515, 2.31525, -0.085083, 2.31525, 0.3435115, 2.31525, 0.3053435, 2.31525, -3.0992367
0.2731765, -0.0152743, 2.322, 0.0075684, 2.322, -1.0094604, 2.322, -0.0870972, 2.322, 0.259542, 2.322, 0.2671756, 2.322, -3.0763359
0.2739706, -0.0151064, 2.32875, 0.0053101, 2.32875, -1.0101929, 2.32875, -0.0907593, 2.32875, 0.3053435, 2.32875, 0.3587786, 2.32875, -3.1068702
0.2747647, -0.0186313, 2.3355, 0.0030518, 2.3355, -1.0085449, 2.3355, -0.0928345, 2.3355, 0.221374, 2.3355, 0.4122137, 2.3355, -3.2442749
0.2755588, -0.0164492, 2.34225, 0.0061646, 2.34225, -1.0077515, 2.34225, -0.0930786, 2.34225, 0.3435115, 2.34225, 0.5725191, 2.34225, -3.1603053
0.2763529, -0.0164492, 2.349, 0.0053101, 2.349, -1.0114136, 2.349, -0.0898438, 2.349, 0.2824427, 2.349, 0.740458, 2.349, -2.9923663
0.2771471, -0.0172885, 2.35575, 0.0064697, 2.35575, -1.0084229, 2.35575, -0.0928955, 2.35575, 0.5343512, 2.35575, 0.8931298, 2.35575, -2.9465649
0.2779412, -0.0162814, 2.3625, 0.0080566, 2.3625, -1.0085449, 2.3625, -0.0928345, 2.3625, 0.4427481, 2.3625, 0.9236641, 2.3625, -2.9160306
0.2787353, -0.0166171, 2.36925, 0.0095215, 2.36925, -1.0053711, 2.36925, -0.0923462, 2.36925, 0.4122137, 2.36925, 0.9541985, 2.36925, -2.9236641
0.2795294, -0.0139315, 2.376, 0.0102539, 2.376, -1.0082397, 2.376, -0.0942383, 2.376, 0.5572519, 2.376, 0.9465649, 2.376, -2.8320611
0.2803235, -0.0130922, 2.38275, 0.0089722, 2.38275, -1.0070801, 2.38275, -0.0917969, 2.38275, 0.5419847, 2.38275, 0.9389313, 2.38275, -2.8473282
0.2811176, -0.0149386, 2.3895, 0.0045776, 2.3895, -1.0048828, 2.3895, -0.0917358, 2.3895, 0.5038168, 2.3895, 0.870229, 2.3895, -2.9236641
0.2819118, -0.0169528, 2.39625, 0.0029907, 2.39625, -1.0056763, 2.39625, -0.0943604, 2.39625, 0.6030535, 2.39625, 0.8778626, 2.39625, -2.9465649
0.2827059, -0.0129244, 2.403, 0.0023193, 2.403, -1.0068359, 2.403, -0.0946045, 2.403, 0.6030535, 2.403, 0.7480916, 2.403, -2.8854961
0.2835, -0.012253, 2.40975, 0.005249, 2.40975, -1.0046997, 2.40975, -0.0930786, 2.40975, 0.7251908, 2.40975, 0.5648855, 2.40975, -2.9847329
0.2842941, -0.0132601, 2.4165, 0.0026855, 2.4165, -1.0050049, 2.4165, -0.0927124, 2.4165, 0.5801527, 2.4165, 0.5648855, 2.4165, -3.0458016
0.2850882, -0.0151064, 2.42325, 0.0001831, 2.42325, -1.0082397, 2.42325, -0.0924683, 2.42325, 0.5267175, 2.42325, 0.6183206, 2.42325, -2.9465649
0.2858824, -0.0142672, 2.43, 0.0033569, 2.43, -1.0081177, 2.43, -0.088501, 2.43, 0.8473282, 2.43, 0.6946565, 2.43, -3.0839694
0.2866765, -0.0112459, 2.43675, 0.0032349, 2.43675, -1.0060425, 2.43675, -0.0916748, 2.43675, 0.7099237, 2.43675, 0.8091603, 2.43675, -3.1755726
0.2874706, -0.0109102, 2.4435, 0.0063477, 2.4435, -1.0089111, 2.4435, -0.0897217, 2.4435, 0.778626, 2.4435, 0.8778626, 2.4435, -2.778626
0.2882647, -0.0135958, 2.45025, 0.0029297, 2.45025, -1.0091553, 2.45025, -0.0881348, 2.45025, 0.8549618, 2.45025, 1.129771, 2.45025, -2.8931298
0.2890588, -0.011078, 2.457, -0.00177, 2.457, -1.0079956, 2.457, -0.0908203, 2.457, 0.9389313, 2.457, 1.1908396, 2.457, -2.9160306
0.2898529, -0.0095674, 2.46375, -0.0018921, 2.46375, -1.0076904, 2.46375, -0.0917969, 2.46375, 0.9847328, 2.46375, 0.9541985, 2.46375, -2.9694657
0.2906471, -0.0105745, 2.4705, -0.0021973, 2.4705, -1.0081787, 2.4705, -0.09198, 2.4705, 1.1679389, 2.4705, 0.6564885, 2.4705, -3.1068702
0.2914412, -0.0115816, 2.47725, -0.0006714, 2.47725, -1.0099487, 2.47725, -0.0941162, 2.47725, 1.1908396, 2.47725, 0.4351145, 2.47725, -3.1679389
0.2922353, -0.0105745, 2.484, 0.0022583, 2.484, -1.0088501, 2.484, -0.0909424, 2.484, 1.3129771, 2.484, 0.2137405, 2.484, -3.2366412
0.2930294, -0.0125887, 2.49075, 0.0008545, 2.49075, -1.0081787, 2.49075, -0.0913696, 2.49075, 1.3129771, 2.49075, 0.0687023, 2.49075, -3.221374
0.2938235, -0.0130922, 2.4975, 0.0004883, 2.4975, -1.0102539, 2.4975, -0.0894775, 2.4975, 1.4427481, 2.4975, -0.0305344, 2.4975, -3.2519083
0.2946176, -0.0112459, 2.50425, 0.0041504, 2.50425, -1.0079346, 2.50425, -0.0905762, 2.50425, 1.3053435, 2.50425, -0.0763359, 2.50425, -3.2900763
0.2954118, -0.0124208, 2.511, 0.0036621, 2.511, -1.0089111, 2.511, -0.0863037, 2.511, 1.3129771, 2.511, -0.2977099, 2.511, -3.2900763
0.2962059, -0.0120851, 2.51775, 0.0006714, 2.51775, -1.0066528, 2.51775, -0.0877075, 2.51775, 1.259542, 2.51775, -0.1908397, 2.51775, -3.0992367
0.297, -0.0125887, 2.5245, 0.0026855, 2.5245, -1.008667, 2.5245, -0.0895996, 2.5245, 1.1755725, 2.5245, 0.1145038, 2.5245, -3.3740458
0.2977941, -0.0139315, 2.53125, 0.0019531, 2.53125, -1.0092163, 2.53125, -0.0874023, 2.53125, 1.2900764, 2.53125, 0.0687023, 2.53125, -3.3206108
0.2985882, -0.0125887, 2.538, 0.0007935, 2.538, -1.0081787, 2.538, -0.0877075, 2.538, 1.2366412, 2.538, -0.0229008, 2.538, -3.351145
0.2993824, -0.01561, 2.54475, 0.0036621, 2.54475, -1.0114136, 2.54475, -0.0855103, 2.54475, 1.2824427, 2.54475, -0.0458015, 2.54475, -3.2442749
0.3001765, -0.0164492, 2.5515, 0.0057373, 2.5515, -1.0079956, 2.5515, -0.0882568, 2.5515, 1.3740458, 2.5515, -0.1068702, 2.5515, -3.2137403
0.3009706, -0.0149386, 2.55825, 0.0062866, 2.55825, -1.0076904, 2.55825, -0.0887451, 2.55825, 1.3358779, 2.55825, 0.0381679, 2.55825, -3.3969467
0.3017647, -0.0146029, 2.565, 0.0064697, 2.565, -1.0080566, 2.565, -0.0883789, 2.565, 1.3053435, 2.565, 0.2137405, 2.565, -3.4198472
0.3025588, -0.0162814, 2.57175, 0.0037842, 2.57175, -1.0087891, 2.57175, -0.0899048, 2.57175, 1.519084, 2.57175, 0.3129771, 2.57175, -3.4198472
0.3033529, -0.0151064, 2.5785, 0.001709, 2.5785, -1.0046997, 2.5785, -0.0903931, 2.5785, 1.2824427, 2.5785, 0.221374, 2.5785, -3.351145
0.3041471, -0.0162814, 2.58525, 0.0040894, 2.58525, -1.0076294, 2.58525, -0.0896606, 2.58525, 1.2824427, 2.58525, 0.0687023, 2.58525, -3.351145
0.3049412, -0.0164492, 2.592, 0.003418, 2.592, -1.0063477, 2.592, -0.0883179, 2.592, 1.2977099, 2.592, 0.0076336, 2.592, -3.3358779
0.3057353, -0.0171206, 2.59875, 0.0043335, 2.59875, -1.0059204, 2.59875, -0.0889282, 2.59875, 1.389313, 2.59875, -0.2290076, 2.59875, -3.3664122
0.3065294, -0.0193027, 2.6055, 0.0042114, 2.6055, -1.0054321, 2.6055, -0.0869141, 2.6055, 1.2442749, 2.6055, 0.0992366, 2.6055, -3.480916
0.3073235, -0.0223239, 2.61225, 0.0048828, 2.61225, -1.0053101, 2.61225, -0.0869141, 2.61225, 1.2748091, 2.61225, 0.0458015, 2.61225, -3.3358779
0.3081176, -0.0229953, 2.619, 0.0072021, 2.619, -1.0067139, 2.619, -0.0863037, 2.619, 1.2671756, 2.619, 0.1450382, 2.619, -3.3664122
0.3089118, -0.0256809, 2.62575, 0.0098877, 2.62575, -1.0064697, 2.62575, -0.0847168, 2.62575, 1.3053435, 2.62575, 0.129771, 2.62575, -3.4045801
0.3097059, -0.024506, 2.6325, 0.0062866, 2.6325, -1.0056763, 2.6325, -0.0845337, 2.6325, 1.129771, 2.6325, 0.4198473, 2.6325, -3.4885497
0.3105, -0.0234989, 2.63925, 0.0065308, 2.63925, -1.0048828, 2.63925, -0.0845947, 2.63925, 1.1374046, 2.63925, 0.5572519, 2.63925, -3.2824428
0.3112941, -0.0198062, 2.646, 0.0092163, 2.646, -1.0082397, 2.646, -0.0852051, 2.646, 1.0610687, 2.646, 0.5877863, 2.646, -3.2519083
0.3120882, -0.0162814, 2.65275, 0.0089722, 2.65275, -1.0079956, 2.65275, -0.0845947, 2.65275, 1.1450381, 2.65275, 0.5343512, 2.65275, -3.2442749
0.3128824, -0.0151064, 2.6595, 0.0120239, 2.6595, -1.0044556, 2.6595, -0.085144, 2.6595, 0.9465649, 2.6595, 0.5267175, 2.6595, -3.2442749
0.3136765, -0.012253, 2.66625, 0.0116577, 2.66625, -1.0075073, 2.66625, -0.0837402, 2.66625, 1, 2.66625, 0.6183206, 2.66625, -3.091603
0.3144706, -0.0072175, 2.673, 0.0111694, 2.673, -1.007019, 2.673, -0.081665, 2.673, 0.7022901, 2.673, 0.7175573, 2.673, -3.129771
0.3152647, -0.0065461, 2.67975, 0.0110474, 2.67975, -1.0097046, 2.67975, -0.0825195, 2.67975, 0.5877863, 2.67975, 0.8167939, 2.67975, -3.0687022
0.3160588, -0.0115816, 2.6865, 0.0092773, 2.6865, -1.0098267, 2.6865, -0.0844727, 2.6865, 0.7251908, 2.6865, 0.8549618, 2.6865, -3.1832061
0.3168529, -0.0149386, 2.69325, 0.0073242, 2.69325, -1.0081177, 2.69325, -0.0857544, 2.69325, 0.6412213, 2.69325, 0.7709923, 2.69325, -3.1221373
0.3176471, -0.011078, 2.7, 0.0032959, 2.7, -1.0065308, 2.7, -0.0834961, 2.7, 0.648855, 2.7, 0.9541985, 2.7, -3.1603053
0.3184412, -0.0095674, 2.70675, 0.0046997, 2.70675, -1.005249, 2.70675, -0.0895996, 2.70675, 0.6946565, 2.70675, 0.8854962, 2.70675, -3.0458016
0.3192353, -0.008896, 2.7135, 0.0087891, 2.7135, -1.0056763, 2.7135, -0.086731, 2.7135, 0.5954198, 2.7135, 1.0229008, 2.7135, -3.1068702
0.3200294, -0.0105745, 2.72025, 0.0061646, 2.72025, -1.0079956, 2.72025, -0.0845337, 2.72025, 0.4732825, 2.72025, 1.0305344, 2.72025, -3.2137403
0.3208235, -0.0112459, 2.727, 0.003418, 2.727, -1.0064697, 2.727, -0.0861816, 2.727, 0.480916, 2.727, 1.038168, 2.727, -3.1832061
0.3216176, -0.0129244, 2.73375, 0.0048828, 2.73375, -1.0084839, 2.73375, -0.0843506, 2.73375, 0.5954198, 2.73375, 1.1603054, 2.73375, -3.1221373
0.3224118, -0.0166171, 2.7405, 0.0065308, 2.7405, -1.0074463, 2.7405, -0.0881348, 2.7405, 0.6564885, 2.7405, 1.2977099, 2.7405, -3.1526718
0.3232059, -0.0203098, 2.74725, 0.0032959, 2.74725, -1.0072021, 2.74725, -0.086731, 2.74725, 0.4961832, 2.74725, 1.221374, 2.74725, -3.1908398
0.324, -0.0251774, 2.754, 0.0039673, 2.754, -1.0066528, 2.754, -0.0886841, 2.754, 0.4656489, 2.754, 1.3740458, 2.754, -2.9770992
0.3247941, -0.0261845, 2.76075, 0.0048218, 2.76075, -1.0074463, 2.76075, -0.0883179, 2.76075, 0.5725191, 2.76075, 1.1145039, 2.76075, -3.221374
0.3255882, -0.0251774, 2.7675, 0.0050049, 2.7675, -1.0079346, 2.7675, -0.0888062, 2.7675, 0.4198473, 2.7675, 1.0763359, 2.7675, -3.1755726
0.3263824, -0.0229953, 2.77425, 0.0092773, 2.77425, -1.0097046, 2.77425, -0.0880737, 2.77425, 0.3740458, 2.77425, 1.2290076, 2.77425, -3.2366412
0.3271765, -0.0213169, 2.781, 0.005188, 2.781, -1.0089111, 2.781, -0.088501, 2.781, 0.4580153, 2.781, 1.1755725, 2.781, -3.2442749
0.3279706, -0.0203098, 2.78775, 0.0032349, 2.78775, -1.0094604, 2.78775, -0.0905762, 2.78775, 0.4961832, 2.78775, 1.4122137, 2.78775, -3.3206108
0.3287647, -0.0172885, 2.7945, 0.0002441, 2.7945, -1.007019, 2.7945, -0.0928955, 2.7945, 0.648855, 2.7945, 1.3435115, 2.7945, -3.4045801
0.3295588, -0.0193027, 2.80125, -0.0011597, 2.80125, -1.0059204, 2.80125, -0.0967407, 2.80125, 0.6183206, 2.80125, 1.038168, 2.80125, -3.4198472
0.3303529, -0.0206455, 2.808, 0.0001831, 2.808, -1.0057373, 2.808, -0.0930786, 2.808, 0.6412213, 2.808, 0.740458, 2.808, -3.4045801
0.3311471, -0.018967, 2.81475, 0.0048218, 2.81475, -1.0065308, 2.81475, -0.0938721, 2.81475, 0.6793893, 2.81475, 0.8396947, 2.81475, -3.259542
0.3319412, -0.0216526, 2.8215, 0.005188, 2.8215, -1.0075073, 2.8215, -0.0952148, 2.8215, 0.7328244, 2.8215, 0.8167939, 2.8215, -3.3282442
0.3327353, -0.0226596, 2.82825, 0.0059204, 2.82825, -1.006897, 2.82825, -0.0900269, 2.82825, 0.740458, 2.82825, 0.9541985, 2.82825, -3.351145
0.3335294, -0.018967, 2.835, 0.0032959, 2.835, -1.0111694, 2.835, -0.0921021, 2.835, 0.8473282, 2.835, 0.9847328, 2.835, -3.5343511
0.3343235, -0.0162814, 2.84175, 0.0027466, 2.84175, -1.0059204, 2.84175, -0.0922241, 2.84175, 0.9236641, 2.84175, 1.0076336, 2.84175, -3.351145
0.3351176, -0.0129244, 2.8485, 0.0053101, 2.8485, -1.0033569, 2.8485, -0.09198, 2.8485, 0.9312977, 2.8485, 1.1526718, 2.8485, -3.3435113
0.3359118, -0.0109102, 2.85525, 0.0054321, 2.85525, -1.0056152, 2.85525, -0.0879517, 2.85525, 0.870229, 2.85525, 0.9541985, 2.85525, -3.4732823
0.3367059, -0.0109102, 2.862, 0.0083618, 2.862, -1.0073853, 2.862, -0.0904541, 2.862, 0.961832, 2.862, 0.778626, 2.862, -3.4122138
0.3375, -0.0102388, 2.86875, 0.0060425, 2.86875, -1.0098877, 2.86875, -0.0870361, 2.86875, 0.8778626, 2.86875, 0.7862595, 2.86875, -3.519084
0.3382941, -0.0092317, 2.8755, 0.0099487, 2.8755, -1.0044556, 2.8755, -0.088501, 2.8755, 0.8854962, 2.8755, 0.8473282, 2.8755, -3.5877862
0.3390882, -0.0057069, 2.88225, 0.0079346, 2.88225, -1.0054932, 2.88225, -0.0876465, 2.88225, 0.778626, 2.88225, 0.9389313, 2.88225, -3.4885497
0.3398824, -0.0048676, 2.889, 0.0075073, 2.889, -1.0073242, 2.889, -0.0853271, 2.889, 1.038168, 2.889, 0.961832, 2.889, -3.4351146
0.3406765, -0.0068818, 2.89575, 0.0060425, 2.89575, -1.0084229, 2.89575, -0.0875244, 2.89575, 0.9312977, 2.89575, 1.1603054, 2.89575, -3.4045801
0.3414706, -0.0075532, 2.9025, 0.0057373, 2.9025, -1.0105591, 2.9025, -0.090332, 2.9025, 0.7328244, 2.9025, 1.2137405, 2.9025, -3.5572519
0.3422647, -0.0075532, 2.90925, 0.0016479, 2.90925, -1.0096436, 2.90925, -0.0903931, 2.90925, 0.870229, 2.90925, 1.0763359, 2.90925, -3.3816793
0.3430588, -0.0068818, 2.916, -0.0021973, 2.916, -1.0080566, 2.916, -0.0931396, 2.916, 0.8473282, 2.916, 0.6259542, 2.916, -3.2977099
0.3438529, -0.0099031, 2.92275, -0.0026855, 2.92275, -1.0084839, 2.92275, -0.0889893, 2.92275, 1.0534351, 2.92275, 0.6793893, 2.92275, -3.5343511
0.3446471, -0.0109102, 2.9295, -0.0022583, 2.9295, -1.0094604, 2.9295, -0.0946655, 2.9295, 1.0534351, 2.9295, 0.4503817, 2.9295, -3.4427481
0.3454412, -0.0112459, 2.93625, 0.0005493, 2.93625, -1.0073242, 2.93625, -0.0950317, 2.93625, 1.1145039, 2.93625, 0.3129771, 2.93625, -3.5954199
0.3462353, -0.0114137, 2.943, 0.0044556, 2.943, -1.0079956, 2.943, -0.0918579, 2.943, 1.1832061, 2.943, 0.0534351, 2.943, -3.5954199
0.3470294, -0.0109102, 2.94975, 0.0054321, 2.94975, -1.0093994, 2.94975, -0.0927124, 2.94975, 1.1679389, 2.94975, -0.0534351, 2.94975, -3.7022901
0.3478235, -0.0149386, 2.9565, 0.0081177, 2.9565, -1.0073853, 2.9565, -0.0910645, 2.9565, 1.3664122, 2.9565, -0.0305344, 2.9565, -3.5572519
0.3486176, -0.0182956, 2.96325, 0.0072632, 2.96325, -1.0065918, 2.96325, -0.0913696, 2.96325, 1.4274809, 2.96325, 0.0534351, 2.96325, -3.6946564
0.3494118, -0.0203098, 2.97, 0.0043945, 2.97, -1.0092163, 2.97, -0.0889282, 2.97, 1.4503816, 2.97, 0.2290076, 2.97, -3.5954199
0.3502059, -0.0213169, 2.97675, 0.0047607, 2.97675, -1.0064697, 2.97675, -0.0924683, 2.97675, 1.5725191, 2.97675, 0.1526718, 2.97675, -3.5267177
0.351, -0.018967, 2.9835, 0.0036621, 2.9835, -1.0082397, 2.9835, -0.0927124, 2.9835, 1.5725191, 2.9835, -0.129771, 2.9835, -3.5725191
0.3517941, -0.0132601, 2.99025, 0.0057983, 2.99025, -1.0092163, 2.99025, -0.0892944, 2.99025, 1.3435115, 2.99025, -0.2671756, 2.99025, -3.7709923
0.3525882, -0.0099031, 2.997, 0.0047607, 2.997, -1.0097656, 2.997, -0.0859985, 2.997, 1.4961832, 2.997, -0.3358779, 2.997, -3.6793892
0.3533824, -0.0109102, 3.00375, 0.006897, 3.00375, -1.0096436, 3.00375, -0.0827637, 3.00375, 1.5267175, 3.00375, -0.4580153, 3.00375, -3.7709923
0.3541765, -0.0114137, 3.0105, 0.0084229, 3.0105, -1.0091553, 3.0105, -0.0842285, 3.0105, 1.5114504, 3.0105, -0.4885496, 3.0105, -3.6183207
0.3549706, -0.0125887, 3.01725, 0.0097046, 3.01725, -1.0097046, 3.01725, -0.0817261, 3.01725, 1.4503816, 3.01725, -0.5419847, 3.01725, -3.6335878
0.3557647, -0.0135958, 3.024, 0.0106812, 3.024, -1.0097656, 3.024, -0.0818481, 3.024, 1.4274809, 3.024, -0.5038168, 3.024, -3.5496182
0.3565588, -0.0139315, 3.03075, 0.0084229, 3.03075, -1.0102539, 3.03075, -0.0830688, 3.03075, 1.3816794, 3.03075, -0.6030535, 3.03075, -3.5725191
0.3573529, -0.0149386, 3.0375, 0.0101318, 3.0375, -1.0089111, 3.0375, -0.0827637, 3.0375, 1.4045801, 3.0375, -0.3664122, 3.0375, -3.5648854
0.3581471, -0.0149386, 3.04425, 0.012207, 3.04425, -1.0040894, 3.04425, -0.0828857, 3.04425, 1.1221374, 3.04425, -0.2748092, 3.04425, -3.519084
0.3589412, -0.0172885, 3.051, 0.013855, 3.051, -1.0040894, 3.051, -0.0828857, 3.051, 1.1603054, 3.051, -0.129771, 3.051, -3.3740458
0.3597353, -0.0184634, 3.05775, 0.0144653, 3.05775, -1.0043335, 3.05775, -0.0841675, 3.05775, 1.1068702, 3.05775, 0.0458015, 3.05775, -3.3816793
0.3605294, -0.01561, 3.0645, 0.0152588, 3.0645, -1.0079956, 3.0645, -0.0825806, 3.0645, 0.9923664, 3.0645, -0.0305344, 3.0645, -3.3358779
0.3613235, -0.0125887, 3.07125, 0.0140381, 3.07125, -1.0073853, 3.07125, -0.0870972, 3.07125, 0.8778626, 3.07125, 0.1450382, 3.07125, -3.2519083
0.3621176, -0.0162814, 3.078, 0.012207, 3.078, -1.0059814, 3.078, -0.0873413, 3.078, 0.908397, 3.078, 0.1221374, 3.078, -3.2671757
0.3629118, -0.0149386, 3.08475, 0.0091553, 3.08475, -1.0082397, 3.08475, -0.0908813, 3.08475, 0.7022901, 3.08475, 0.2290076, 3.08475, -3.2977099
0.3637059, -0.0099031, 3.0915, 0.0100708, 3.0915, -1.0095825, 3.0915, -0.0900269, 3.0915, 0.8167939, 3.0915, 0.0992366, 3.0915, -3.1603053
0.3645, -0.0105745, 3.09825, 0.0078125, 3.09825, -1.0074463, 3.09825, -0.0896606, 3.09825, 0.778626, 3.09825, 0.1603053, 3.09825, -3.351145
0.3652941, -0.0085603, 3.105, 0.0082397, 3.105, -1.0083618, 3.105, -0.093689, 3.105, 0.9236641, 3.105, 0.2748092, 3.105, -3.1526718
0.3660882, -0.0115816, 3.11175, 0.0095825, 3.11175, -1.0076294, 3.11175, -0.0900269, 3.11175, 0.8549618, 3.11175, 0.4198473, 3.11175, -3.0458016
0.3668824, -0.0139315, 3.1185, 0.0097656, 3.1185, -1.0066528, 3.1185, -0.0878906, 3.1185, 0.8625954, 3.1185, 0.7328244, 3.1185, -3.1603053
0.3676765, -0.0132601, 3.12525, 0.0130615, 3.12525, -1.0078735, 3.12525, -0.0898438, 3.12525, 0.9007633, 3.12525, 0.9923664, 3.12525, -3.038168
0.3684706, -0.0125887, 3.132, 0.0145264, 3.132, -1.0039673, 3.132, -0.0870972, 3.132, 0.9541985, 3.132, 1.2824427, 3.132, -3.0076337
0.3692647, -0.0115816, 3.13875, 0.0148315, 3.13875, -1.0053101, 3.13875, -0.0861816, 3.13875, 0.870229, 3.13875, 1.6793894, 3.13875, -2.9312978
0.3700588, -0.0140993, 3.1455, 0.0125732, 3.1455, -1.0060425, 3.1455, -0.0812378, 3.1455, 0.7557252, 3.1455, 2.0610688, 3.1455, -2.778626
0.3708529, -0.0132601, 3.15225, 0.0084839, 3.15225, -1.0103149, 3.15225, -0.0856323, 3.15225, 0.7175573, 3.15225, 2.1145039, 3.15225, -2.9160306
0.3716471, -0.0162814, 3.159, 0.0037842, 3.159, -1.0079956, 3.159, -0.0855713, 3.159, 0.6793893, 3.159, 2.4656489, 3.159, -2.9312978
0.3724412, -0.0169528, 3.16575, 0.0020752, 3.16575, -1.0074463, 3.16575, -0.0862427, 3.16575, 0.8167939, 3.16575, 2.3969467, 3.16575, -2.9465649
0.3732353, -0.0166171, 3.1725, 0.0009766, 3.1725, -1.007019, 3.1725, -0.0884399, 3.1725, 0.7328244, 3.1725, 2.2442749, 3.1725, -2.8931298
0.3740294, -0.0149386, 3.17925, 0.0020752, 3.17925, -1.0093994, 3.17925, -0.0910645, 3.17925, 0.6641222, 3.17925, 2.2290077, 3.17925, -3.0152671
0.3748235, -0.0132601, 3.186, 0.0015259, 3.186, -1.0072021, 3.186, -0.0906372, 3.186, 0.7175573, 3.186, 2.2366412, 3.186, -3.1221373
0.3756176, -0.0151064, 3.19275, 0.003479, 3.19275, -1.0059204, 3.19275, -0.0905151, 3.19275, 0.8778626, 3.19275, 2.1221373, 3.19275, -3.1221373
0.3764118, -0.0169528, 3.1995, 0.0027466, 3.1995, -1.0126953, 3.1995, -0.0875244, 3.1995, 0.9389313, 3.1995, 2.2442749, 3.1995, -3.0839694
0.3772059, -0.0179599, 3.20625, 0.0026245, 3.20625, -1.0102539, 3.20625, -0.0863037, 3.20625, 0.8854962, 3.20625, 2.129771, 3.20625, -3.0305343
0.378, -0.0162814, 3.213, 0.0012207, 3.213, -1.0105591, 3.213, -0.0899658, 3.213, 0.8549618, 3.213, 1.9694656, 3.213, -3.2137403
0.3787941, -0.0162814, 3.21975, 0.0003662, 3.21975, -1.0091553, 3.21975, -0.083374, 3.21975, 0.8625954, 3.21975, 1.6717557, 3.21975, -3.1145039
0.3795882, -0.0162814, 3.2265, 0.0031128, 3.2265, -1.0079346, 3.2265, -0.0884399, 3.2265, 0.7862595, 3.2265, 1.4274809, 3.2265, -3.2977099
0.3803824, -0.0129244, 3.23325, 0.0031128, 3.23325, -1.0076294, 3.23325, -0.0875854, 3.23325, 0.870229, 3.23325, 1.4045801, 3.23325, -3.259542
0.3811765, -0.0162814, 3.24, 0.0032959, 3.24, -1.005249, 3.24, -0.0883789, 3.24, 0.8931298, 3.24, 0.908397, 3.24, -3.2900763
0.3819706, -0.0162814, 3.24675, 0.0063477, 3.24675, -1.0064087, 3.24675, -0.0889893, 3.24675, 0.7251908, 3.24675, 0.8549618, 3.24675, -3.2061069
0.3827647, -0.017792, 3.2535, 0.0078735, 3.2535, -1.0059814, 3.2535, -0.0889893, 3.2535, 0.8320611, 3.2535, 0.480916, 3.2535, -3.3587787
0.3835588, -0.0159457, 3.26025, 0.0038452, 3.26025, -1.0078125, 3.26025, -0.0876465, 3.26025, 0.7709923, 3.26025, 0.3740458, 3.26025, -3.4122138
0.3843529, -0.0162814, 3.267, -0.0003662, 3.267, -1.0073853, 3.267, -0.0878296, 3.267, 0.8167939, 3.267, 0.3053435, 3.267, -3.389313
0.3851471, -0.018967, 3.27375, -0.0015869, 3.27375, -1.0083618, 3.27375, -0.0880737, 3.27375, 0.9923664, 3.27375, -0.0610687, 3.27375, -3.4045801
0.3859412, -0.0182956, 3.2805, 0.0007935, 3.2805, -1.0064087, 3.2805, -0.0933838, 3.2805, 0.9541985, 3.2805, -0.2519084, 3.2805, -3.519084
0.3867353, -0.0184634, 3.28725, 0.0013428, 3.28725, -1.0061646, 3.28725, -0.0910645, 3.28725, 0.9465649, 3.28725, -0.5419847, 3.28725, -3.5419848
0.3875294, -0.0182956, 3.294, 0.0067749, 3.294, -1.0073242, 3.294, -0.0905151, 3.294, 0.8625954, 3.294, -0.4427481, 3.294, -3.4656489
0.3883235, -0.0193027, 3.30075, 0.0101318, 3.30075, -1.0062256, 3.30075, -0.0917358, 3.30075, 1.091603, 3.30075, -0.2290076, 3.30075, -3.3129771
0.3891176, -0.0182956, 3.3075, 0.0100098, 3.3075, -1.0068359, 3.3075, -0.0899048, 3.3075, 1.0152671, 3.3075, -0.0229008, 3.3075, -3.4427481
0.3899118, -0.0166171, 3.31425, 0.0107422, 3.31425, -1.0071411, 3.31425, -0.0904541, 3.31425, 1.0458015, 3.31425, 0.2824427, 3.31425, -3.3816793
0.3907059, -0.01561, 3.321, 0.008667, 3.321, -1.0048828, 3.321, -0.0904541, 3.321, 1.1832061, 3.321, 0.2824427, 3.321, -3.4427481
0.3915, -0.0172885, 3.32775, 0.0084229, 3.32775, -1.0053101, 3.32775, -0.0895386, 3.32775, 1.0229008, 3.32775, 0.2061069, 3.32775, -3.5343511
0.3922941, -0.0159457, 3.3345, 0.0101318, 3.3345, -1.0058594, 3.3345, -0.0924072, 3.3345, 1.1832061, 3.3345, 0.0076336, 3.3345, -3.3740458
0.3930882, -0.0149386, 3.34125, 0.0108032, 3.34125, -1.0066528, 3.34125, -0.0910645, 3.34125, 1.1603054, 3.34125, -0.0916031, 3.34125, -3.3129771
0.3938824, -0.0164492, 3.348, 0.0100098, 3.348, -1.0078125, 3.348, -0.0878906, 3.348, 1.259542, 3.348, -0.2137405, 3.348, -3.3206108
0.3946765, -0.0182956, 3.35475, 0.0116577, 3.35475, -1.0085449, 3.35475, -0.0927124, 3.35475, 1.1450381, 3.35475, -0.2748092, 3.35475, -3.3282442
0.3954706, -0.0149386, 3.3615, 0.0137939, 3.3615, -1.0054321, 3.3615, -0.090332, 3.3615, 1.0687023, 3.3615, -0.1679389, 3.3615, -3.3282442
0.3962647, -0.0135958, 3.36825, 0.0166016, 3.36825, -1.0078125, 3.36825, -0.0904541, 3.36825, 1.0610687, 3.36825, 0.1755725, 3.36825, -3.2900763
0.3970588, -0.012253, 3.375, 0.0113525, 3.375, -1.0084839, 3.375, -0.0892334, 3.375, 1.1603054, 3.375, 0.4198473, 3.375, -3.1984732
0.3978529, -0.0112459, 3.38175, 0.008728, 3.38175, -1.0092773, 3.38175, -0.0913696, 3.38175, 1.1450381, 3.38175, 0.5267175, 3.38175, -3.2290077
0.3986471, -0.0092317, 3.3885, 0.0095825, 3.3885, -1.0100708, 3.3885, -0.0907593, 3.3885, 1.1450381, 3.3885, 0.4198473, 3.3885, -3.2824428
0.3994412, -0.0078889, 3.39525, 0.0076904, 3.39525, -1.0089722, 3.39525, -0.086853, 3.39525, 0.9847328, 3.39525, 0.6412213, 3.39525, -3.3129771
0.4002353, -0.0082246, 3.402, 0.0068359, 3.402, -1.0057983, 3.402, -0.0892944, 3.402, 1.0839695, 3.402, 0.8015267, 3.402, -3.0534351
0.4010294, -0.0092317, 3.40875, 0.008728, 3.40875, -1.0050659, 3.40875, -0.0883789, 3.40875, 1.2900764, 3.40875, 0.9465649, 3.40875, -3.2442749
0.4018235, -0.0058747, 3.4155, 0.0115967, 3.4155, -1.0080566, 3.4155, -0.0859375, 3.4155, 1.1679389, 3.4155, 1.1145039, 3.4155, -3.091603
0.4026176, -0.0050355, 3.42225, 0.0101318, 3.42225, -1.0050049, 3.42225, -0.088501, 3.42225, 1.038168, 3.42225, 1.1755725, 3.42225, -3.0229008
0.4034118, -0.0102388, 3.429, 0.012085, 3.429, -1.0056763, 3.429, -0.0876465, 3.429, 1.0152671, 3.429, 1.4656489, 3.429, -3.1221373
0.4042059, -0.0119173, 3.43575, 0.0090332, 3.43575, -1.0110474, 3.43575, -0.086731, 3.43575, 0.9236641, 3.43575, 1.610687, 3.43575, -2.9770992
0.405, -0.0109102, 3.4425, 0.0062866, 3.4425, -1.006897, 3.4425, -0.0891113, 3.4425, 1.129771, 3.4425, 1.5648855, 3.4425, -2.9389312
0.4057941, -0.0142672, 3.44925, 0.0040283, 3.44925, -1.0109863, 3.44925, -0.0897217, 3.44925, 1.129771, 3.44925, 1.5343511, 3.44925, -2.9465649
0.4065882, -0.0176242, 3.456, 0.0036011, 3.456, -1.007019, 3.456, -0.0893555, 3.456, 1.0992366, 3.456, 1.5801526, 3.456, -3.038168
0.4073824, -0.0179599, 3.46275, 0.0042725, 3.46275, -1.0065308, 3.46275, -0.0883789, 3.46275, 1.1145039, 3.46275, 1.3664122, 3.46275, -3.1755726
0.4081765, -0.0186313, 3.4695, 0.0041504, 3.4695, -1.0079956, 3.4695, -0.0894165, 3.4695, 1.1221374, 3.4695, 1.1526718, 3.4695, -3.0076337
0.4089706, -0.0162814, 3.47625, 0.0016479, 3.47625, -1.0106201, 3.47625, -0.090332, 3.47625, 1.1145039, 3.47625, 1.1832061, 3.47625, -3.0992367
0.4097647, -0.0182956, 3.483, 0.0054321, 3.483, -1.0125732, 3.483, -0.090332, 3.483, 0.9923664, 3.483, 1.0839695, 3.483, -3.0305343
0.4105588, -0.0132601, 3.48975, 0.0050659, 3.48975, -1.0092163, 3.48975, -0.0875854, 3.48975, 1.0458015, 3.48975, 1.1068702, 3.48975, -3.1068702
0.4113529, -0.0135958, 3.4965, 0.006897, 3.4965, -1.0075684, 3.4965, -0.0874023, 3.4965, 1.221374, 3.4965, 1.2977099, 3.4965, -3.1145039
0.4121471, -0.0179599, 3.50325, 0.0039673, 3.50325, -1.0081177, 3.50325, -0.0877075, 3.50325, 1.0992366, 3.50325, 1.4427481, 3.50325, -3.2137403
0.4129412, -0.0162814, 3.51, 0.0072632, 3.51, -1.0077515, 3.51, -0.0887451, 3.51, 1.2442749, 3.51, 1.3740458, 3.51, -3.2061069
0.4137353, -0.0142672, 3.51675, 0.0016479, 3.51675, -1.0067749, 3.51675, -0.0911865, 3.51675, 1.2519084, 3.51675, 1.3816794, 3.51675, -3.2519083
0.4145294, -0.0135958, 3.5235, 0.0042725, 3.5235, -1.007019, 3.5235, -0.0922241, 3.5235, 1.351145, 3.5235, 1.3282443, 3.5235, -3.1068702
0.4153235, -0.012253, 3.53025, 0.0024414, 3.53025, -1.0045776, 3.53025, -0.0906982, 3.53025, 1.259542, 3.53025, 0.9847328, 3.53025, -3.3129771
0.4161176, -0.0129244, 3.537, 0.0047607, 3.537, -1.0088501, 3.537, -0.0897217, 3.537, 1.3282443, 3.537, 0.8167939, 3.537, -3.3206108
0.4169118, -0.0135958, 3.54375, 0.006897, 3.54375, -1.0082397, 3.54375, -0.0889893, 3.54375, 1.3129771, 3.54375, 0.7557252, 3.54375, -3.3206108
0.4177059, -0.0132601, 3.5505, 0.005249, 3.5505, -1.0093384, 3.5505, -0.0908203, 3.5505, 1.5343511, 3.5505, 0.8549618, 3.5505, -3.2748091
0.4185, -0.0115816, 3.55725, 0.0032349, 3.55725, -1.0078735, 3.55725, -0.0909424, 3.55725, 1.4198474, 3.55725, 0.7480916, 3.55725, -3.1832061
0.4192941, -0.0095674, 3.564, 0.0006714, 3.564, -1.0058594, 3.564, -0.0910645, 3.564, 1.3129771, 3.564, 0.7938932, 3.564, -3.3740458
0.4200882, -0.0107424, 3.57075, 0.0023804, 3.57075, -1.0050659, 3.57075, -0.0893555, 3.57075, 1.5267175, 3.57075, 0.5572519, 3.57075, -3.3740458
0.4208824, -0.0142672, 3.5775, 0.0053101, 3.5775, -1.0079956, 3.5775, -0.090271, 3.5775, 1.5496184, 3.5775, 0.5725191, 3.5775, -3.3740458
0.4216765, -0.0149386, 3.58425, 0.0058594, 3.58425, -1.0057373, 3.58425, -0.0910034, 3.58425, 1.5572519, 3.58425, 0.4732825, 3.58425, -3.2900763
0.4224706, -0.018967, 3.591, 0.0089111, 3.591, -1.0071411, 3.591, -0.0882568, 3.591, 1.7480916, 3.591, 0.4961832, 3.591, -3.4274809
0.4232647, -0.0199741, 3.59775, 0.0088501, 3.59775, -1.007019, 3.59775, -0.0879517, 3.59775, 1.6030535, 3.59775, 0.8167939, 3.59775, -3.2366412
0.4240588, -0.0162814, 3.6045, 0.0075073, 3.6045, -1.0065918, 3.6045, -0.0858765, 3.6045, 1.6412214, 3.6045, 0.7175573, 3.6045, -3.3969467
0.4248529, -0.0152743, 3.61125, 0.0056763, 3.61125, -1.0073242, 3.61125, -0.0883789, 3.61125, 1.6870229, 3.61125, 0.6717557, 3.61125, -3.3740458
0.4256471, -0.0159457, 3.618, 0.0042725, 3.618, -1.0102539, 3.618, -0.0862427, 3.618, 1.7328244, 3.618, 0.4656489, 3.618, -3.4274809
0.4264412, -0.0167849, 3.62475, 0.008728, 3.62475, -1.0077515, 3.62475, -0.0861816, 3.62475, 1.7328244, 3.62475, 0.1374046, 3.62475, -3.4274809
0.4272353, -0.0203098, 3.6315, 0.0056152, 3.6315, -1.0078125, 3.6315, -0.0873413, 3.6315, 1.6641221, 3.6315, -0.0687023, 3.6315, -3.5648854
0.4280294, -0.0209812, 3.63825, 0.0067749, 3.63825, -1.0059814, 3.63825, -0.0844727, 3.63825, 1.610687, 3.63825, -0.221374, 3.63825, -3.3816793
0.4288235, -0.0196384, 3.645, 0.0126343, 3.645, -1.0064087, 3.645, -0.0828857, 3.645, 1.4427481, 3.645, -0.2519084, 3.645, -3.4274809
0.4296176, -0.0162814, 3.65175, 0.0109863, 3.65175, -1.0091553, 3.65175, -0.0888672, 3.65175, 1.4885496, 3.65175, -0.3816794, 3.65175, -3.3816793
0.4304118, -0.0139315, 3.6585, 0.0126343, 3.6585, -1.0075684, 3.6585, -0.0883179, 3.6585, 1.5038168, 3.6585, -0.2061069, 3.6585, -3.3282442
0.4312059, -0.0119173, 3.66525, 0.0123901, 3.66525, -1.0046387, 3.66525, -0.0873413, 3.66525, 1.4732825, 3.66525, -0.1679389, 3.66525, -3.2824428
0.432, -0.0129244, 3.672, 0.0125122, 3.672, -1.0033569, 3.672, -0.0834351, 3.672, 1.6183206, 3.672, -0.0916031, 3.672, -3.3358779
0.4327941, -0.0157778, 3.67875, 0.0083008, 3.67875, -1.0056763, 3.67875, -0.0838013, 3.67875, 1.3435115, 3.67875, 0.2366412, 3.67875, -3.3053436
0.4335882, -0.0130922, 3.6855, 0.0106201, 3.6855, -1.0082397, 3.6855, -0.0837402, 3.6855, 1.3587786, 3.6855, 0.4580153, 3.6855, -3.3435113
0.4343824, -0.0115816, 3.69225, 0.006958, 3.69225, -1.0111694, 3.69225, -0.0838623, 3.69225, 1.4351145, 3.69225, 0.519084, 3.69225, -3.2366412
0.4351765, -0.0104067, 3.699, 0.0061035, 3.699, -1.0120239, 3.699, -0.0870361, 3.699, 1.3969465, 3.699, 0.519084, 3.699, -3.1374047
0.4359706, -0.0073854, 3.70575, 0.0055542, 3.70575, -1.0122681, 3.70575, -0.0871582, 3.70575, 1.4503816, 3.70575, 0.5038168, 3.70575, -3.0839694
0.4367647, -0.0085603, 3.7125, 0.0040894, 3.7125, -1.0084229, 3.7125, -0.0869751, 3.7125, 1.4732825, 3.7125, 0.1755725, 3.7125, -3.129771
0.4375588, -0.0115816, 3.71925, 0.0058594, 3.71925, -1.0048218, 3.71925, -0.086792, 3.71925, 1.2977099, 3.71925, -0.1221374, 3.71925, -3.2900763
0.4383529, -0.0109102, 3.726, 0.0065308, 3.726, -1.0055542, 3.726, -0.0922852, 3.726, 1.2900764, 3.726, 0.0610687, 3.726, -3.2061069
0.4391471, -0.0159457, 3.73275, 0.0075073, 3.73275, -1.0075684, 3.73275, -0.0875854, 3.73275, 1.3129771, 3.73275, -0.0763359, 3.73275, -3.2824428
0.4399412, -0.0176242, 3.7395, 0.0061035, 3.7395, -1.0053101, 3.7395, -0.0863037, 3.7395, 1.259542, 3.7395, -0.1832061, 3.7395, -3.1908398
0.4407353, -0.01561, 3.74625, 0.008728, 3.74625, -1.006897, 3.74625, -0.0872192, 3.74625, 1.3358779, 3.74625, -0.0610687, 3.74625, -3.2900763
0.4415294, -0.0176242, 3.753, 0.0120239, 3.753, -1.0077515, 3.753, -0.0857544, 3.753, 1.2748091, 3.753, 0.0076336, 3.753, -3.1450381
0.4423235, -0.0159457, 3.75975, 0.0071411, 3.75975, -1.0097046, 3.75975, -0.0817871, 3.75975, 1.1832061, 3.75975, 0.0839695, 3.75975, -3.0458016
0.4431176, -0.0162814, 3.7665, 0.0054321, 3.7665, -1.0057983, 3.7665, -0.0800171, 3.7665, 1.2519084, 3.7665, 0.0992366, 3.7665, -3.2137403
0.4439118, -0.0169528, 3.77325, 0.0089722, 3.77325, -1.0071411, 3.77325, -0.0792847, 3.77325, 1.2519084, 3.77325, 0.1603053, 3.77325, -3.1526718
0.4447059, -0.0179599, 3.78, 0.0098267, 3.78, -1.005127, 3.78, -0.0787964, 3.78, 1.1755725, 3.78, 0.3358779, 3.78, -3.0839694
0.4455, -0.017792, 3.78675, 0.0108032, 3.78675, -1.0054321, 3.78675, -0.0805664, 3.78675, 1.2977099, 3.78675, 0.480916, 3.78675, -2.9694657
0.4462941, -0.0204776, 3.7935, 0.0139771, 3.7935, -1.0056763, 3.7935, -0.0814209, 3.7935, 1.1603054, 3.7935, 0.6183206, 3.7935, -3.0687022
0.4470882, -0.0182956, 3.80025, 0.0148315, 3.80025, -1.0065918, 3.80025, -0.0803833, 3.80025, 0.9770992, 3.80025, 1.0076336, 3.80025, -3.0152671
0.4478824, -0.0171206, 3.807, 0.0166626, 3.807, -1.003418, 3.807, -0.0808105, 3.807, 0.8931298, 3.807, 0.9160305, 3.807, -3.0687022
0.4486765, -0.0159457, 3.81375, 0.0144043, 3.81375, -1.0054321, 3.81375, -0.0812988, 3.81375, 0.8396947, 3.81375, 1.2748091, 3.81375, -2.9923663
0.4494706, -0.0164492, 3.8205, 0.0106812, 3.8205, -1.0028076, 3.8205, -0.0863037, 3.8205, 0.8396947, 3.8205, 1.5038168, 3.8205, -2.8854961
0.4502647, -0.0149386, 3.82725, 0.0070801, 3.82725, -1.0084839, 3.82725, -0.0852051, 3.82725, 0.6793893, 3.82725, 1.4503816, 3.82725, -3.1221373
0.4510588, -0.0119173, 3.834, 0.0067139, 3.834, -1.006897, 3.834, -0.0865479, 3.834, 0.648855, 3.834, 1.1221374, 3.834, -3.1984732
0.4518529, -0.0157778, 3.84075, 0.0026245, 3.84075, -1.0067139, 3.84075, -0.0870972, 3.84075, 0.7022901, 3.84075, 0.8244275, 3.84075, -3
0.4526471, -0.0146029, 3.8475, 0.0063477, 3.8475, -1.0092773, 3.8475, -0.0888062, 3.8475, 0.5877863, 3.8475, 0.5801527, 3.8475, -3.0610688
0.4534412, -0.0105745, 3.85425, 0.0079956, 3.85425, -1.0072632, 3.85425, -0.0880127, 3.85425, 0.6412213, 3.85425, 0.5496183, 3.85425, -3.0229008
0.4542353, -0.0151064, 3.861, 0.0096436, 3.861, -1.0075684, 3.861, -0.088501, 3.861, 0.6412213, 3.861, 0.5954198, 3.861, -2.8473282
0.4550294, -0.0159457, 3.86775, 0.0063477, 3.86775, -1.0067749, 3.86775, -0.0895386, 3.86775, 0.7022901, 3.86775, 0.7480916, 3.86775, -2.9007633
0.4558235, -0.0112459, 3.8745, 0.0041504, 3.8745, -1.0065918, 3.8745, -0.0877075, 3.8745, 0.6641222, 3.8745, 0.870229, 3.8745, -2.9847329
0.4566176, -0.0125887, 3.88125, 0.0033569, 3.88125, -1.0076904, 3.88125, -0.0877686, 3.88125, 0.6717557, 3.88125, 1.038168, 3.88125, -2.9541984
0.4574118, -0.0142672, 3.888, 0.0032959, 3.888, -1.008606, 3.888, -0.0873413, 3.888, 0.8015267, 3.888, 0.9160305, 3.888, -3.0687022
0.4582059, -0.0125887, 3.89475, 0.005127, 3.89475, -1.0091553, 3.89475, -0.0874023, 3.89475, 0.7862595, 3.89475, 0.8320611, 3.89475, -2.961832
0.459, -0.0166171, 3.9015, 0.0031738, 3.9015, -1.0100708, 3.9015, -0.0891724, 3.9015, 0.8854962, 3.9015, 1.0076336, 3.9015, -3.1374047
0.4597941, -0.0162814, 3.90825, 0.0032349, 3.90825, -1.0067139, 3.90825, -0.0894775, 3.90825, 0.6870229, 3.90825, 0.8931298, 3.90825, -3.129771
0.4605882, -0.0142672, 3.915, 0.0043945, 3.915, -1.0073853, 3.915, -0.0897217, 3.915, 0.8625954, 3.915, 0.8244275, 3.915, -3.0992367
0.4613824, -0.0149386, 3.92175, 0.0057983, 3.92175, -1.0084229, 3.92175, -0.0881348, 3.92175, 0.870229, 3.92175, 0.7099237, 3.92175, -3.1679389
0.4621765, -0.0169528, 3.9285, 0.0059814, 3.9285, -1.0079346, 3.9285, -0.0916138, 3.9285, 0.870229, 3.9285, 0.7328244, 3.9285, -3.1526718
0.4629706, -0.0193027, 3.93525, 0.0053101, 3.93525, -1.010498, 3.93525, -0.0909424, 3.93525, 0.7862595, 3.93525, 0.8396947, 3.93525, -3.0992367
0.4637647, -0.0172885, 3.942, 0.0067139, 3.942, -1.0064087, 3.942, -0.0891724, 3.942, 0.9160305, 3.942, 0.8320611, 3.942, -3.2366412
0.4645588, -0.0194705, 3.94875, 0.0075684, 3.94875, -1.0075684, 3.94875, -0.0871582, 3.94875, 0.9923664, 3.94875, 0.8931298, 3.94875, -3.1832061
0.4653529, -0.0196384, 3.9555, 0.007019, 3.9555, -1.008728, 3.9555, -0.0854492, 3.9555, 0.9236641, 3.9555, 1.1908396, 3.9555, -3.221374
0.4661471, -0.0162814, 3.96225, 0.0057373, 3.96225, -1.0077515, 3.96225, -0.085083, 3.96225, 1.0229008, 3.96225, 1.2671756, 3.96225, -3.129771
0.4669412, -0.0182956, 3.969, 0.0032349, 3.969, -1.0105591, 3.969, -0.086731, 3.969, 0.8854962, 3.969, 1.3206106, 3.969, -3.0610688
0.4677353, -0.0198062, 3.97575, 0.0050049, 3.97575, -1.0092773, 3.97575, -0.0895996, 3.97575, 0.9160305, 3.97575, 1.1068702, 3.97575, -3.2519083
0.4685294, -0.0140993, 3.9825, 0.0010376, 3.9825, -1.012146, 3.9825, -0.0880127, 3.9825, 1.1221374, 3.9825, 0.8549618, 3.9825, -3.351145
0.4693235, -0.0142672, 3.98925, 0, 3.98925, -1.0096436, 3.98925, -0.0888672, 3.98925, 1.0992366, 3.98925, 0.7175573, 3.98925, -3.3206108
0.4701176, -0.0176242, 3.996, 0.0023804, 3.996, -1.0095215, 3.996, -0.0912476, 3.996, 1.129771, 3.996, 0.4580153, 3.996, -3.3816793
0.4709118, -0.0206455, 4.00275, 0.0074463, 4.00275, -1.0100098, 4.00275, -0.0877075, 4.00275, 1.1908396, 4.00275, 0.221374, 4.00275, -3.389313
0.4717059, -0.0179599, 4.0095, 0.0071411, 4.0095, -1.0060425, 4.0095, -0.0905762, 4.0095, 1.3435115, 4.0095, 0.2977099, 4.0095, -3.4580152
0.4725, -0.018967, 4.01625, 0.0089722, 4.01625, -1.00354, 4.01625, -0.0853882, 4.01625, 1.1603054, 4.01625, 0.1832061, 4.01625, -3.3435113
0.4732941, -0.0159457, 4.023, 0.0108032, 4.023, -1.0062866, 4.023, -0.0856323, 4.023, 1.2748091, 4.023, 0.519084, 4.023, -3.2900763
0.4740882, -0.01561, 4.02975, 0.0109863, 4.02975, -1.0056763, 4.02975, -0.0848389, 4.02975, 1.2290076, 4.02975, 0.3969466, 4.02975, -3.2748091
0.4748824, -0.0159457, 4.0365, 0.0047607, 4.0365, -1.0066528, 4.0365, -0.0830688, 4.0365, 1.129771, 4.0365, 0.5954198, 4.0365, -3.2900763
0.4756765, -0.0109102, 4.04325, 0.0061646, 4.04325, -1.0084839, 4.04325, -0.088562, 4.04325, 1.1374046, 4.04325, 0.7557252, 4.04325, -3.351145
0.4764706, -0.0082246, 4.05, 0.0070801, 4.05, -1.0076294, 4.05, -0.0840454, 4.05, 1.2671756, 4.05, 0.519084, 4.05, -3.3206108
0.4772647, -0.008896, 4.05675, 0.0049438, 4.05675, -1.0061035, 4.05675, -0.085022, 4.05675, 1.1755725, 4.05675, 0.5801527, 4.05675, -3.3435113
0.4780588, -0.0102388, 4.0635, 0.0081177, 4.0635, -1.0061646, 4.0635, -0.0881958, 4.0635, 1.1068702, 4.0635, 0.5648855, 4.0635, -3.2900763
0.4788529, -0.0105745, 4.07025, 0.0074463, 4.07025, -1.0073853, 4.07025, -0.0883179, 4.07025, 1.259542, 4.07025, 0.4656489, 4.07025, -3.1908398
0.4796471, -0.0077211, 4.077, 0.0077515, 4.077, -1.0071411, 4.077, -0.0883789, 4.077, 1.1908396, 4.077, 0.5801527, 4.077, -3.2519083
0.4804412, -0.0099031, 4.08375, 0.0089722, 4.08375, -1.0100708, 4.08375, -0.086792, 4.08375, 1.1908396, 4.08375, 0.4427481, 4.08375, -3.3053436
0.4812353, -0.012253, 4.0905, 0.0093994, 4.0905, -1.0101929, 4.0905, -0.086853, 4.0905, 1.3282443, 4.0905, 0.4198473, 4.0905, -3.4427481
0.4820294, -0.0109102, 4.09725, 0.0068359, 4.09725, -1.0095215, 4.09725, -0.0883789, 4.09725, 1.2061069, 4.09725, 0.6259542, 4.09725, -3.2748091
0.4828235, -0.0119173, 4.104, 0.0100708, 4.104, -1.0066528, 4.104, -0.0863647, 4.104, 1.1908396, 4.104, 0.8091603, 4.104, -3.3358779
0.4836176, -0.0142672, 4.11075, 0.0105591, 4.11075, -1.0123901, 4.11075, -0.085083, 4.11075, 1.1450381, 4.11075, 0.9389313, 4.11075, -3.4045801
0.4844118, -0.0135958, 4.1175, 0.0093384, 4.1175, -1.0111694, 4.1175, -0.0857544, 4.1175, 1.2824427, 4.1175, 1.1450381, 4.1175, -3.2290077
0.4852059, -0.0135958, 4.12425, 0.0101929, 4.12425, -1.0111084, 4.12425, -0.0861816, 4.12425, 1.2977099, 4.12425, 1.0610687, 4.12425, -3.1908398
0.486, -0.0162814, 4.131, 0.0087891, 4.131, -1.0092163, 4.131, -0.0858765, 4.131, 1.2977099, 4.131, 1.2671756, 4.131, -3.1603053
0.4867941, -0.0159457, 4.13775, 0.0095825, 4.13775, -1.005249, 4.13775, -0.0875244, 4.13775, 1.1908396, 4.13775, 1.5877863, 4.13775, -3.2137403
0.4875882, -0.0149386, 4.1445, 0.0073853, 4.1445, -1.0071411, 4.1445, -0.0899658, 4.1445, 1.0534351, 4.1445, 1.7022901, 4.1445, -3.129771
0.4883824, -0.0142672, 4.15125, 0.0089722, 4.15125, -1.0061035, 4.15125, -0.0857544, 4.15125, 1.2290076, 4.15125, 1.6793894, 4.15125, -3.221374
0.4891765, -0.0125887, 4.158, 0.0093384, 4.158, -1.0046387, 4.158, -0.0852051, 4.158, 1.2366412, 4.158, 1.5801526, 4.158, -3.1755726
0.4899706, -0.0196384, 4.16475, 0.0070801, 4.16475, -1.0047607, 4.16475, -0.0846558, 4.16475, 1.1603054, 4.16475, 1.5877863, 4.16475, -3.1526718
0.4907647, -0.0221561, 4.1715, 0.0073242, 4.1715, -1.0059814, 4.1715, -0.0863037, 4.1715, 1.259542, 4.1715, 1.5801526, 4.1715, -3.0610688
0.4915588, -0.0193027, 4.17825, 0.0007935, 4.17825, -1.0055542, 4.17825, -0.086792, 4.17825, 1.1755725, 4.17825, 1.870229, 4.17825, -3.221374
0.4923529, -0.0164492, 4.185, 0.0006714, 4.185, -1.0038452, 4.185, -0.0891113, 4.185, 1.3435115, 4.185, 1.6564885, 4.185, -3.1221373
0.4931471, -0.0149386, 4.19175, 0.0007935, 4.19175, -1.0042725, 4.19175, -0.0915527, 4.19175, 1.480916, 4.19175, 1.610687, 4.19175, -3.1984732
0.4939412, -0.0149386, 4.1985, 0.003479, 4.1985, -1.0059204, 4.1985, -0.0910034, 4.1985, 1.480916, 4.1985, 1.5267175, 4.1985, -3.2519083
0.4947353, -0.017792, 4.20525, 0.0032349, 4.20525, -1.008606, 4.20525, -0.092041, 4.20525, 1.4122137, 4.20525, 1.4732825, 4.20525, -3.1374047
0.4955294, -0.018967, 4.212, 0.0092163, 4.212, -1.0079956, 4.212, -0.0945435, 4.212, 1.5267175, 4.212, 1.7633588, 4.212, -3.1526718
0.4963235, -0.0157778, 4.21875, 0.0096436, 4.21875, -1.0083008, 4.21875, -0.0899048, 4.21875, 1.610687, 4.21875, 1.7480916, 4.21875, -3.1450381
0.4971176, -0.0125887, 4.2255, 0.0106812, 4.2255, -1.0089111, 4.2255, -0.0919189, 4.2255, 1.6030535, 4.2255, 1.7709924, 4.2255, -2.9236641
0.4979118, -0.0112459, 4.23225, 0.0124512, 4.23225, -1.0092773, 4.23225, -0.0896606, 4.23225, 1.5114504, 4.23225, 1.9007634, 4.23225, -3.0763359
0.4987059, -0.0109102, 4.239, 0.0095215, 4.239, -1.0094604, 4.239, -0.0878906, 4.239, 1.7709924, 4.239, 1.9312977, 4.239, -3.1374047
0.4995, -0.0119173, 4.24575, 0.0065308, 4.24575, -1.0099487, 4.24575, -0.0887451, 4.24575, 1.6717557, 4.24575, 1.9923664, 4.24575, -3.0992367
0.5002941, -0.0130922, 4.2525, 0.0057983, 4.2525, -1.0096436, 4.2525, -0.0876465, 4.2525, 1.7175573, 4.2525, 1.8091604, 4.2525, -3.1526718
0.5010882, -0.0135958, 4.25925, 0.008606, 4.25925, -1.0066528, 4.25925, -0.0856323, 4.25925, 1.7175573, 4.25925, 1.778626, 4.25925, -3.0839694
0.5018824, -0.0132601, 4.266, 0.0053711, 4.266, -1.0073853, 4.266, -0.0822144, 4.266, 1.7557251, 4.266, 1.5419847, 4.266, -3.2977099
0.5026765, -0.0135958, 4.27275, 0.0058594, 4.27275, -1.0075684, 4.27275, -0.083313, 4.27275, 1.4427481, 4.27275, 1.6793894, 4.27275, -3.1984732
0.5034706, -0.0129244, 4.2795, 0.0048828, 4.2795, -1.006958, 4.2795, -0.0825195, 4.2795, 1.6793894, 4.2795, 1.6335878, 4.2795, -3.221374
0.5042647, -0.0139315, 4.28625, 0.0062866, 4.28625, -1.0080566, 4.28625, -0.0840454, 4.28625, 1.5877863, 4.28625, 1.5877863, 4.28625, -3.1908398
0.5050588, -0.0151064, 4.293, 0.0071411, 4.293, -1.0063477, 4.293, -0.0823364, 4.293, 1.5877863, 4.293, 1.5877863, 4.293, -3.0229008
0.5058529, -0.0132601, 4.29975, 0.0066528, 4.29975, -1.0048828, 4.29975, -0.083252, 4.29975, 1.6183206, 4.29975, 1.6259542, 4.29975, -3.2061069
0.5066471, -0.0125887, 4.3065, 0.0031128, 4.3065, -1.0075073, 4.3065, -0.0848999, 4.3065, 1.6183206, 4.3065, 1.7251909, 4.3065, -3.3053436
0.5074412, -0.0142672, 4.31325, 0.0027466, 4.31325, -1.0059814, 4.31325, -0.0826416, 4.31325, 1.7328244, 4.31325, 1.6259542, 4.31325, -3.2061069
0.5082353, -0.0130922, 4.32, 0.005188, 4.32, -1.0054321, 4.32, -0.0849609, 4.32, 1.740458, 4.32, 1.4580153, 4.32, -3.3740458
0.5090294, -0.0146029, 4.32675, 0.0002441, 4.32675, -1.0098267, 4.32675, -0.0880737, 4.32675, 1.610687, 4.32675, 1.3435115, 4.32675, -3.038168
0.5098235, -0.01561, 4.3335, 0.0025635, 4.3335, -1.0074463, 4.3335, -0.0853882, 4.3335, 1.7099236, 4.3335, 1.2442749, 4.3335, -3.4503818
0.5106176, -0.014435, 4.34025, 0.003418, 4.34025, -1.0089722, 4.34025, -0.0874634, 4.34025, 1.610687, 4.34025, 1.0687023, 4.34025, -3.3435113
0.5114118, -0.0135958, 4.347, 0.0060425, 4.347, -1.0076294, 4.347, -0.0844727, 4.347, 1.8167939, 4.347, 1.2519084, 4.347, -3.2290077
0.5122059, -0.0127565, 4.35375, 0.0019531, 4.35375, -1.0106201, 4.35375, -0.0873413, 4.35375, 1.8778626, 4.35375, 1.1984733, 4.35375, -3.2977099
0.513, -0.0127565, 4.3605, 0.0029907, 4.3605, -1.007019, 4.3605, -0.0898438, 4.3605, 1.8549619, 4.3605, 1.1908396, 4.3605, -3.4274809
0.5137941, -0.0109102, 4.36725, 0.0066528, 4.36725, -1.0081177, 4.36725, -0.0880737, 4.36725, 1.908397, 4.36725, 0.961832, 4.36725, -3.2824428
0.5145882, -0.0104067, 4.374, 0.0072021, 4.374, -1.007019, 4.374, -0.0892334, 4.374, 1.8854961, 4.374, 0.9160305, 4.374, -3.221374
0.5153824, -0.0124208, 4.38075, 0.0076294, 4.38075, -1.0099487, 4.38075, -0.0861816, 4.38075, 1.8625954, 4.38075, 0.9541985, 4.38075, -3.4427481
0.5161765, -0.0109102, 4.3875, 0.0112305, 4.3875, -1.0078735, 4.3875, -0.0894165, 4.3875, 1.9923664, 4.3875, 0.7938932, 4.3875, -3.2748091
0.5169706, -0.012253, 4.39425, 0.0078735, 4.39425, -1.0094604, 4.39425, -0.0818481, 4.39425, 2.0610688, 4.39425, 0.8244275, 4.39425, -3.2061069
0.5177647, -0.0129244, 4.401, 0.006958, 4.401, -1.0064697, 4.401, -0.0807495, 4.401, 2.1526718, 4.401, 1.129771, 4.401, -3.3740458
0.5185588, -0.0142672, 4.40775, 0.0059204, 4.40775, -1.006897, 4.40775, -0.0849609, 4.40775, 1.9923664, 4.40775, 1.0534351, 4.40775, -3.4274809
0.5193529, -0.0149386, 4.4145, 0.0039062, 4.4145, -1.0057373, 4.4145, -0.0830688, 4.4145, 2.1221373, 4.4145, 0.8625954, 4.4145, -3.2748091
0.5201471, -0.0176242, 4.42125, 0.0041504, 4.42125, -1.0077515, 4.42125, -0.0827637, 4.42125, 1.9236641, 4.42125, 0.6564885, 4.42125, -3.3129771
0.5209412, -0.0203098, 4.428, 0.0058594, 4.428, -1.0059814, 4.428, -0.0797119, 4.428, 2.038168, 4.428, 0.7175573, 4.428, -3.3664122
0.5217353, -0.0193027, 4.43475, 0.0048218, 4.43475, -1.0064087, 4.43475, -0.083252, 4.43475, 2.038168, 4.43475, 0.6641222, 4.43475, -3.5877862
0.5225294, -0.0213169, 4.4415, 0.010376, 4.4415, -1.0068359, 4.4415, -0.0825195, 4.4415, 2.1755726, 4.4415, 0.8549618, 4.4415, -3.3435113
0.5233235, -0.0206455, 4.44825, 0.0126953, 4.44825, -1.006958, 4.44825, -0.0769043, 4.44825, 2.1068702, 4.44825, 1.1984733, 4.44825, -3.4122138
0.5241176, -0.0162814, 4.455, 0.0109863, 4.455, -1.0064697, 4.455, -0.0783691, 4.455, 1.9236641, 4.455, 1.2519084, 4.455, -3.3740458
0.5249118, -0.0149386, 4.46175, 0.0101318, 4.46175, -1.0089111, 4.46175, -0.0784302, 4.46175, 1.8854961, 4.46175, 1.3129771, 4.46175, -3.3282442
0.5257059, -0.0149386, 4.4685, 0.0059204, 4.4685, -1.0061035, 4.4685, -0.0807495, 4.4685, 1.870229, 4.4685, 1.3282443, 4.4685, -3.3816793
0.5265, -0.0169528, 4.47525, 0.0031128, 4.47525, -1.0067139, 4.47525, -0.0822144, 4.47525, 1.9465649, 4.47525, 1.2290076, 4.47525, -3.2824428
0.5272941, -0.0199741, 4.482, 0.0036011, 4.482, -1.006958, 4.482, -0.085144, 4.482, 1.9007634, 4.482, 1.091603, 4.482, -3.3587787
0.5280882, -0.0184634, 4.48875, 0.0054932, 4.48875, -1.0076294, 4.48875, -0.0844116, 4.48875, 1.8473282, 4.48875, 0.8473282, 4.48875, -3.2519083
0.5288824, -0.0171206, 4.4955, 0.0050659, 4.4955, -1.0060425, 4.4955, -0.0819092, 4.4955, 1.8549619, 4.4955, 0.5954198, 4.4955, -3.1374047
0.5296765, -0.0176242, 4.50225, 0.0084229, 4.50225, -1.0062866, 4.50225, -0.0810547, 4.50225, 1.9770992, 4.50225, 0.6412213, 4.50225, -3.221374
0.5304706, -0.018967, 4.509, 0.0114746, 4.509, -1.0091553, 4.509, -0.0796509, 4.509, 2.0839694, 4.509, 0.5648855, 4.509, -3.3129771
0.5312647, -0.017792, 4.51575, 0.0095825, 4.51575, -1.0088501, 4.51575, -0.0827637, 4.51575, 2.0534351, 4.51575, 0.8015267, 4.51575, -3.1145039
0.5320588, -0.0191348, 4.5225, 0.0097046, 4.5225, -1.0046387, 4.5225, -0.0792236, 4.5225, 2.1984732, 4.5225, 1.0839695, 4.5225, -3.3816793
0.5328529, -0.0193027, 4.52925, 0.0072021, 4.52925, -1.007019, 4.52925, -0.0800171, 4.52925, 2.3053436, 4.52925, 1.0534351, 4.52925, -3.3206108
0.5336471, -0.0176242, 4.536, 0.0050659, 4.536, -1.0065918, 4.536, -0.0812988, 4.536, 2.3129771, 4.536, 1.0992366, 4.536, -3.3816793
0.5344412, -0.0184634, 4.54275, 0.0055542, 4.54275, -1.0040894, 4.54275, -0.0789795, 4.54275, 2.3587787, 4.54275, 0.8473282, 4.54275, -3.1221373
0.5352353, -0.018967, 4.5495, 0.0076904, 4.5495, -1.0078735, 4.5495, -0.0801392, 4.5495, 2.1679389, 4.5495, 0.7633588, 4.5495, -3.3282442
0.5360294, -0.0162814, 4.55625, 0.0075073, 4.55625, -1.0065308, 4.55625, -0.0814209, 4.55625, 2.1603053, 4.55625, 0.7480916, 4.55625, -3.3053436
0.5368235, -0.01561, 4.563, 0.0098267, 4.563, -1.0078735, 4.563, -0.0800781, 4.563, 1.9312977, 4.563, 0.7251908, 4.563, -3.2366412
0.5376176, -0.0115816, 4.56975, 0.0078735, 4.56975, -1.0072021, 4.56975, -0.0790405, 4.56975, 2.1145039, 4.56975, 0.778626, 4.56975, -3.221374
0.5384118, -0.0140993, 4.5765, 0.008606, 4.5765, -1.0074463, 4.5765, -0.0800781, 4.5765, 2.0458016, 4.5765, 0.7328244, 4.5765, -3.2824428
0.5392059, -0.0172885, 4.58325, 0.0078735, 4.58325, -1.0105591, 4.58325, -0.0783081, 4.58325, 2.0687022, 4.58325, 0.7480916, 4.58325, -3.3053436
0.54, -0.0162814, 4.59, 0.0067139, 4.59, -1.0089722, 4.59, -0.0762329, 4.59, 1.9236641, 4.59, 0.7862595, 4.59, -3.2671757
0.5407941, -0.0151064, 4.59675, 0.0076294, 4.59675, -1.008606, 4.59675, -0.0785522, 4.59675, 2.0763359, 4.59675, 0.8931298, 4.59675, -3.259542
0.5415882, -0.0151064, 4.6035, 0.005249, 4.6035, -1.008667, 4.6035, -0.0803833, 4.6035, 1.8244275, 4.6035, 0.6412213, 4.6035, -3.1984732
0.5423824, -0.0109102, 4.61025, 0.0074463, 4.61025, -1.0076904, 4.61025, -0.0778198, 4.61025, 1.7557251, 4.61025, 0.6335878, 4.61025, -3.2824428
0.5431765, -0.0102388, 4.617, 0.0112915, 4.617, -1.0075684, 4.617, -0.0783691, 4.617, 1.6870229, 4.617, 0.6717557, 4.617, -3.1221373
0.5439706, -0.0125887, 4.62375, 0.0108032, 4.62375, -1.006897, 4.62375, -0.0754395, 4.62375, 1.961832, 4.62375, 0.7480916, 4.62375, -3.1984732
0.5447647, -0.0139315, 4.6305, 0.007019, 4.6305, -1.0053711, 4.6305, -0.0758057, 4.6305, 1.9389313, 4.6305, 0.778626, 4.6305, -2.9694657
0.5455588, -0.0115816, 4.63725, 0.0096436, 4.63725, -1.0062866, 4.63725, -0.0806274, 4.63725, 1.778626, 4.63725, 0.6946565, 4.63725, -3.0076337
0.5463529, -0.0130922, 4.644, 0.0076904, 4.644, -1.0072021, 4.644, -0.0805054, 4.644, 1.7022901, 4.644, 0.7862595, 4.644, -3.0992367
0.5471471, -0.0105745, 4.65075, 0.0084839, 4.65075, -1.0056763, 4.65075, -0.0796509, 4.65075, 1.8778626, 4.65075, 0.5725191, 4.65075, -3.1526718
0.5479412, -0.0082246, 4.6575, 0.0074463, 4.6575, -1.0064087, 4.6575, -0.0787354, 4.6575, 1.8244275, 4.6575, 0.3969466, 4.6575, -3.4045801
0.5487353, -0.0102388, 4.66425, 0.0061035, 4.66425, -1.0067749, 4.66425, -0.0742798, 4.66425, 1.7251909, 4.66425, 0.351145, 4.66425, -3.2824428
0.5495294, -0.0109102, 4.671, 0.0077515, 4.671, -1.0072021, 4.671, -0.0755615, 4.671, 1.7633588, 4.671, 0.480916, 4.671, -3.1679389
0.5503235, -0.0095674, 4.67775, 0.005127, 4.67775, -1.005249, 4.67775, -0.0765991, 4.67775, 1.8167939, 4.67775, 0.4656489, 4.67775, -3.1450381
0.5511176, -0.008896, 4.6845, 0.0021362, 4.6845, -1.006958, 4.6845, -0.0752563, 4.6845, 2, 4.6845, 0.6335878, 4.6845, -2.9923663
0.5519118, -0.0082246, 4.69125, 0.0062256, 4.69125, -1.008667, 4.69125, -0.0750122, 4.69125, 1.8549619, 4.69125, 0.8778626, 4.69125, -3.0534351
0.5527059, -0.0152743, 4.698, 0.0097046, 4.698, -1.0085449, 4.698, -0.0773926, 4.698, 1.7099236, 4.698, 0.8320611, 4.698, -3.0152671
0.5535, -0.0182956, 4.70475, 0.0066528, 4.70475, -1.0084229, 4.70475, -0.0776367, 4.70475, 1.908397, 4.70475, 0.8473282, 4.70475, -3.0763359
0.5542941, -0.0186313, 4.7115, 0.006958, 4.7115, -1.0065918, 4.7115, -0.0790405, 4.7115, 1.7022901, 4.7115, 1.1526718, 4.7115, -2.961832
0.5550882, -0.01561, 4.71825, 0.0061646, 4.71825, -1.0097656, 4.71825, -0.0758057, 4.71825, 1.610687, 4.71825, 1.1526718, 4.71825, -2.8854961
0.5558824, -0.0105745, 4.725, 0.0062866, 4.725, -1.0053711, 4.725, -0.0744629, 4.725, 1.7557251, 4.725, 1.0687023, 4.725, -3.1679389
0.5566765, -0.0151064, 4.73175, 0.0076904, 4.73175, -1.0073242, 4.73175, -0.0800781, 4.73175, 1.8320611, 4.73175, 0.9465649, 4.73175, -2.961832
0.5574706, -0.0139315, 4.7385, 0.006897, 4.7385, -1.0064087, 4.7385, -0.0785522, 4.7385, 1.7862595, 4.7385, 0.7633588, 4.7385, -3.129771
0.5582647, -0.0149386, 4.74525, 0.0074463, 4.74525, -1.0060425, 4.74525, -0.0787354, 4.74525, 1.6335878, 4.74525, 0.6641222, 4.74525, -3.221374
0.5590588, -0.0129244, 4.752, 0.0072021, 4.752, -1.0056152, 4.752, -0.0773315, 4.752, 1.4503816, 4.752, 0.5343512, 4.752, -3.2519083
0.5598529, -0.0152743, 4.75875, 0.0038452, 4.75875, -1.0066528, 4.75875, -0.078125, 4.75875, 1.5343511, 4.75875, 0.3282443, 4.75875, -3.1832061
0.5606471, -0.0169528, 4.7655, 0.0038452, 4.7655, -1.005188, 4.7655, -0.0778809, 4.7655, 1.6259542, 4.7655, 0.0076336, 4.7655, -3.2519083
0.5614412, -0.0181277, 4.77225, 0.0031738, 4.77225, -1.0067749, 4.77225, -0.0782471, 4.77225, 1.5038168, 4.77225, -0.1450382, 4.77225, -3.2137403
0.5622353, -0.0169528, 4.779, 0.0037842, 4.779, -1.0055542, 4.779, -0.0767212, 4.779, 1.6183206, 4.779, -0.0763359, 4.779, -3.2442749
0.5630294, -0.0164492, 4.78575, 0.0057373, 4.78575, -1.0054932, 4.78575, -0.0758057, 4.78575, 1.6717557, 4.78575, 0.0152672, 4.78575, -3.1755726
0.5638235, -0.0179599, 4.7925, 0.0078125, 4.7925, -1.0061035, 4.7925, -0.074646, 4.7925, 1.6335878, 4.7925, 0.0381679, 4.7925, -3.0534351
0.5646176, -0.0209812, 4.79925, 0.0088501, 4.79925, -1.0061646, 4.79925, -0.0750122, 4.79925, 1.6641221, 4.79925, 0.221374, 4.79925, -3.0687022
0.5654118, -0.0219883, 4.806, 0.0133667, 4.806, -1.0080566, 4.806, -0.0758057, 4.806, 1.6717557, 4.806, 0.5496183, 4.806, -3.2671757
0.5662059, -0.0203098, 4.81275, 0.0079346, 4.81275, -1.0094604, 4.81275, -0.0768433, 4.81275, 1.6259542, 4.81275, 0.8091603, 4.81275, -3.1603053
0.567, -0.0196384, 4.8195, 0.005127, 4.8195, -1.0093384, 4.8195, -0.076355, 4.8195, 1.6335878, 4.8195, 0.8473282, 4.8195, -3.091603
0.5677941, -0.0199741, 4.82625, 0.0083008, 4.82625, -1.0093384, 4.82625, -0.0783081, 4.82625, 1.5954199, 4.82625, 0.9694657, 4.82625, -3.0610688
0.5685882, -0.0193027, 4.833, 0.0059814, 4.833, -1.007019, 4.833, -0.0762329, 4.833, 1.5725191, 4.833, 0.7938932, 4.833, -2.9923663
0.5693824, -0.018967, 4.83975, 0.008606, 4.83975, -1.0100098, 4.83975, -0.0759277, 4.83975, 1.480916, 4.83975, 0.7022901, 4.83975, -3.0076337
0.5701765, -0.0149386, 4.8465, 0.0065308, 4.8465, -1.0094604, 4.8465, -0.0727539, 4.8465, 1.4427481, 4.8465, 0.5877863, 4.8465, -3.1374047
0.5709706, -0.0172885, 4.85325, 0.0046997, 4.85325, -1.0078125, 4.85325, -0.0733032, 4.85325, 1.4885496, 4.85325, 0.4198473, 4.85325, -3.259542
0.5717647, -0.0162814, 4.86, 0.0031738, 4.86, -1.0073242, 4.86, -0.0776978, 4.86, 1.4885496, 4.86, 0.2824427, 4.86, -3.1832061
0.5725588, -0.0149386, 4.86675, 0.0065918, 4.86675, -1.0081177, 4.86675, -0.0786743, 4.86675, 1.5954199, 4.86675, 0.2519084, 4.86675, -3.3053436
0.5733529, -0.0149386, 4.8735, 0.0075684, 4.8735, -1.008606, 4.8735, -0.0766602, 4.8735, 1.4351145, 4.8735, 0.0763359, 4.8735, -3.1526718
0.5741471, -0.0130922, 4.88025, 0.0084839, 4.88025, -1.0078125, 4.88025, -0.0756226, 4.88025, 1.5038168, 4.88025, -0.0305344, 4.88025, -3.2137403
0.5749412, -0.0159457, 4.887, 0.0093384, 4.887, -1.0081177, 4.887, -0.0761719, 4.887, 1.6946565, 4.887, -0.0916031, 4.887, -3.2824428
0.5757353, -0.0162814, 4.89375, 0.008728, 4.89375, -1.0043335, 4.89375, -0.0792236, 4.89375, 1.7938931, 4.89375, 0.1450382, 4.89375, -3.1450381
0.5765294, -0.0159457, 4.9005, 0.0039673, 4.9005, -1.0100098, 4.9005, -0.0723267, 4.9005, 1.6870229, 4.9005, 0.0687023, 4.9005, -3.2824428
0.5773235, -0.0199741, 4.90725, 0.0030518, 4.90725, -1.0090942, 4.90725, -0.0733032, 4.90725, 1.5954199, 4.90725, -0.2061069, 4.90725, -3.1374047
0.5781176, -0.0206455, 4.914, 6.1E-05, 4.914, -1.0054321, 4.914, -0.0758057, 4.914, 1.6564885, 4.914, -0.6335878, 4.914, -3.1145039
0.5789118, -0.0179599, 4.92075, 0.0019531, 4.92075, -1.0079346, 4.92075, -0.0718384, 4.92075, 1.8167939, 4.92075, -1.221374, 4.92075, -3.3816793
0.5797059, -0.0179599, 4.9275, 0.0050659, 4.9275, -1.0093384, 4.9275, -0.0686646, 4.9275, 1.8244275, 4.9275, -1.7480916, 4.9275, -3.5114503
0.5805, -0.0157778, 4.93425, 0.0075073, 4.93425, -1.013916, 4.93425, -0.0617676, 4.93425, 2.038168, 4.93425, -2.1832061, 4.93425, -3.4961832
0.5812941, -0.0161135, 4.941, 0.0134888, 4.941, -1.0108643, 4.941, -0.0641479, 4.941, 2.259542, 4.941, -1.9541985, 4.941, -3.5725191
0.5820882, -0.0152743, 4.94775, 0.0177002, 4.94775, -1.0038452, 4.94775, -0.0639038, 4.94775, 2.4045801, 4.94775, -1.4656489, 4.94775, -3.5114503
0.5828824, -0.0119173, 4.9545, 0.0195312, 4.9545, -1.0040894, 4.9545, -0.0621948, 4.9545, 2.0687022, 4.9545, -1.038168, 4.9545, -3.221374
0.5836765, -0.0115816, 4.96125, 0.0214233, 4.96125, -1.005127, 4.96125, -0.067627, 4.96125, 1.8320611, 4.96125, -0.2366412, 4.96125, -3.0152671
0.5844706, -0.0125887, 4.968, 0.015625, 4.968, -1.0095825, 4.968, -0.0744019, 4.968, 1.6870229, 4.968, 0.0534351, 4.968, -2.8473282
0.5852647, -0.0114137, 4.97475, 0.0111694, 4.97475, -1.0077515, 4.97475, -0.072937, 4.97475, 1.6793894, 4.97475, -0.0152672, 4.97475, -2.7328243
0.5860588, -0.0105745, 4.9815, 0.006958, 4.9815, -1.0087891, 4.9815, -0.072876, 4.9815, 1.8015267, 4.9815, 0.0534351, 4.9815, -2.7938931
0.5868529, -0.0115816, 4.98825, 0.0006714, 4.98825, -1.0071411, 4.98825, -0.0725708, 4.98825, 1.8244275, 4.98825, -0.6030535, 4.98825, -2.8015268
0.5876471, -0.0129244, 4.995, -0.0021362, 4.995, -1.0103149, 4.995, -0.0673828, 4.995, 1.8244275, 4.995, -1.6717557, 4.995, -2.8854961
0.5884412, -0.0105745, 5.00175, 0.0023193, 5.00175, -1.0078125, 5.00175, -0.0684204, 5.00175, 2.0229008, 5.00175, -2.9236641, 5.00175, -3.0152671
0.5892353, -0.0109102, 5.0085, 0.0043945, 5.0085, -1.0075684, 5.0085, -0.0698242, 5.0085, 2.3053436, 5.0085, -3.259542, 5.0085, -2.8015268
0.5900294, -0.0112459, 5.01525, 0.0057983, 5.01525, -1.0042114, 5.01525, -0.0755005, 5.01525, 2.0152671, 5.01525, -3.1374047, 5.01525, -2.5648854
0.5908235, -0.012253, 5.022, 0.007019, 5.022, -1.0053711, 5.022, -0.0788574, 5.022, 1.7938931, 5.022, -2.9236641, 5.022, -2.3435113
0.5916176, -0.0132601, 5.02875, 0.0033569, 5.02875, -1.0067139, 5.02875, -0.0808716, 5.02875, 1.8473282, 5.02875, -2.3282442, 5.02875, -2.3740458
0.5924118, -0.0095674, 5.0355, 0.0070801, 5.0355, -1.0074463, 5.0355, -0.0837402, 5.0355, 1.6335878, 5.0355, -2.519084, 5.0355, -2.2977099
0.5932059, -0.0082246, 5.04225, 0.0106812, 5.04225, -1.006958, 5.04225, -0.0839233, 5.04225, 1.610687, 5.04225, -2.9847329, 5.04225, -2.389313
0.594, -0.0082246, 5.049, 0.0109863, 5.049, -1.005188, 5.049, -0.0811768, 5.049, 1.8244275, 5.049, -2.7328243, 5.049, -2.5343511
0.5947941, -0.005539, 5.05575, 0.0131226, 5.05575, -1.0018921, 5.05575, -0.0813599, 5.05575, 1.6946565, 5.05575, -2.3435113, 5.05575, -2.4656489
0.5955882, -0.0068818, 5.0625, 0.0089111, 5.0625, -1.0029907, 5.0625, -0.0811768, 5.0625, 1.9465649, 5.0625, -1.9312977, 5.0625, -2.3129771
0.5963824, -0.0068818, 5.06925, -0.0003052, 5.06925, -1.0046997, 5.06925, -0.0829468, 5.06925, 1.9465649, 5.06925, -2.0687022, 5.06925, -2.2290077
0.5971765, -0.0075532, 5.076, -0.006897, 5.076, -1.0095825, 5.076, -0.079895, 5.076, 2.2290077, 5.076, -2.7099237, 5.076, -2.5114503
0.5979706, -0.0083925, 5.08275, -0.008728, 5.08275, -1.0082397, 5.08275, -0.0783081, 5.08275, 2.2748091, 5.08275, -3.648855, 5.08275, -2.5572519
0.5987647, -0.0075532, 5.0895, 0.0015869, 5.0895, -1.0092163, 5.0895, -0.0794678, 5.0895, 2.1526718, 5.0895, -4.0152674, 5.0895, -2.4122138
0.5995588, -0.0057069, 5.09625, 0.0092163, 5.09625, -1.0111084, 5.09625, -0.0809326, 5.09625, 2.0534351, 5.09625, -4.0458016, 5.09625, -2.3816793
0.6003529, -0.0028534, 5.103, 0.0134277, 5.103, -1.008606, 5.103, -0.0839233, 5.103, 2.2900763, 5.103, -3.7099237, 5.103, -2.4351146
0.6011471, -0.0048676, 5.10975, 0.0079956, 5.10975, -1.0092163, 5.10975, -0.081604, 5.10975, 2.1908398, 5.10975, -3.2900763, 5.10975, -2.389313
0.6019412, -0.0068818, 5.1165, 0.0107422, 5.1165, -1.0077515, 5.1165, -0.0803223, 5.1165, 2.2900763, 5.1165, -3.1221373, 5.1165, -2.4503818
0.6027353, -0.0041962, 5.12325, 0.0131226, 5.12325, -1.0064087, 5.12325, -0.0791626, 5.12325, 2.3740458, 5.12325, -3.091603, 5.12325, -2.4122138
0.6035294, -0.0077211, 5.13, 0.0120239, 5.13, -1.0089111, 5.13, -0.078186, 5.13, 2.3435113, 5.13, -2.7099237, 5.13, -2.5801528
0.6043235, -0.0115816, 5.13675, 0.0115356, 5.13675, -1.0045166, 5.13675, -0.0774536, 5.13675, 2.5419848, 5.13675, -2.259542, 5.13675, -2.389313
0.6051176, -0.0112459, 5.1435, 0.005127, 5.1435, -1.0097046, 5.1435, -0.0775146, 5.1435, 2.4732823, 5.1435, -1.7099236, 5.1435, -2.3587787
0.6059118, -0.0112459, 5.15025, 0.0003662, 5.15025, -1.0078125, 5.15025, -0.0755005, 5.15025, 2.4580152, 5.15025, -1.4885496, 5.15025, -2.3129771
0.6067059, -0.0125887, 5.157, -0.0009155, 5.157, -1.0079956, 5.157, -0.0755615, 5.157, 2.6793892, 5.157, -1.4427481, 5.157, -2.3282442
0.6075, -0.0184634, 5.16375, -0.0002441, 5.16375, -1.0070801, 5.16375, -0.0775146, 5.16375, 2.5725191, 5.16375, -1.7709924, 5.16375, -2.259542
0.6082941, -0.0152743, 5.1705, 0.0041504, 5.1705, -1.0067749, 5.1705, -0.0767822, 5.1705, 2.7022901, 5.1705, -1.5801526, 5.1705, -2.1374047
0.6090882, -0.0112459, 5.17725, 0.0107422, 5.17725, -1.0059204, 5.17725, -0.0765991, 5.17725, 2.7862597, 5.17725, -1.3435115, 5.17725, -2.221374
0.6098824, -0.0129244, 5.184, 0.0172119, 5.184, -1.0037842, 5.184, -0.0762939, 5.184, 2.6946564, 5.184, -0.8778626, 5.184, -2.2137403
0.6106765, -0.0171206, 5.19075, 0.0164795, 5.19075, -1.0058594, 5.19075, -0.0770874, 5.19075, 2.7175572, 5.19075, -0.3435115, 5.19075, -2.0076337
0.6114706, -0.018967, 5.1975, 0.0151367, 5.1975, -1.0105591, 5.1975, -0.0748291, 5.1975, 2.7022901, 5.1975, 0.1603053, 5.1975, -1.9694656
0.6122647, -0.0176242, 5.20425, 0.0136108, 5.20425, -1.0137329, 5.20425, -0.0751953, 5.20425, 2.961832, 5.20425, 0.3664122, 5.20425, -2.0152671
0.6130588, -0.0159457, 5.211, 0.012207, 5.211, -1.0116577, 5.211, -0.0762329, 5.211, 3.0152671, 5.211, 0.2137405, 5.211, -2.0610688
0.6138529, -0.01561, 5.21775, 0.008667, 5.21775, -1.0122681, 5.21775, -0.0753174, 5.21775, 3.0763359, 5.21775, 0, 5.21775, -1.9770992
0.6146471, -0.0135958, 5.2245, 0.0082397, 5.2245, -1.0091553, 5.2245, -0.0706787, 5.2245, 3.1984732, 5.2245, -0.1832061, 5.2245, -1.9541985
0.6154412, -0.0119173, 5.23125, 0.0081177, 5.23125, -1.0107422, 5.23125, -0.0724487, 5.23125, 3, 5.23125, -0.4580153, 5.23125, -1.9847329
0.6162353, -0.0124208, 5.238, 0.0083618, 5.238, -1.0109863, 5.238, -0.0717773, 5.238, 3.0610688, 5.238, -0.5267175, 5.238, -1.9007634
0.6170294, -0.0179599, 5.24475, 0.0110474, 5.24475, -1.0117188, 5.24475, -0.071167, 5.24475, 3, 5.24475, -0.3206107, 5.24475, -1.9007634
0.6178235, -0.0162814, 5.2515, 0.0075684, 5.2515, -1.0081787, 5.2515, -0.0670166, 5.2515, 3.0687022, 5.2515, -0.4503817, 5.2515, -1.9312977
0.6186176, -0.0149386, 5.25825, 0.0083618, 5.25825, -1.0039062, 5.25825, -0.0654297, 5.25825, 2.8320611, 5.25825, -0.4122137, 5.25825, -1.8931298
0.6194118, -0.0149386, 5.265, 0.0128174, 5.265, -1.0023804, 5.265, -0.0683594, 5.265, 3.0076337, 5.265, 0.0839695, 5.265, -1.7938931
0.6202059, -0.0171206, 5.27175, 0.0140991, 5.27175, -1.0013428, 5.27175, -0.0673828, 5.27175, 2.8167939, 5.27175, 0.8091603, 5.27175, -1.5419847
0.621, -0.0182956, 5.2785, 0.0201416, 5.2785, -1.0012207, 5.2785, -0.0627441, 5.2785, 2.7022901, 5.2785, 1.1068702, 5.2785, -1.519084
0.6217941, -0.0179599, 5.28525, 0.0213623, 5.28525, -1.0056152, 5.28525, -0.0605469, 5.28525, 2.5343511, 5.28525, 2.0229008, 5.28525, -1.2519084
0.6225882, -0.0176242, 5.292, 0.0216675, 5.292, -1.0031738, 5.292, -0.0585327, 5.292, 2.1908398, 5.292, 3.0076337, 5.292, -1.2900764
0.6233824, -0.0182956, 5.29875, 0.0227051, 5.29875, -1.0056763, 5.29875, -0.0574951, 5.29875, 2.0687022, 5.29875, 3.8015268, 5.29875, -1.1755725
0.6241765, -0.0176242, 5.3055, 0.0196533, 5.3055, -1.0078125, 5.3055, -0.0551758, 5.3055, 1.9236641, 5.3055, 4.5343513, 5.3055, -1.1221374
0.6249706, -0.0219883, 5.31225, 0.0108643, 5.31225, -1.0066528, 5.31225, -0.0543213, 5.31225, 1.870229, 5.31225, 5.0534353, 5.31225, -1.129771
0.6257647, -0.0246738, 5.319, 0.005127, 5.319, -1.0039062, 5.319, -0.0537109, 5.319, 1.740458, 5.319, 5.2290077, 5.319, -1.0992366
0.6265588, -0.0238346, 5.32575, -0.00177, 5.32575, -1.0061035, 5.32575, -0.0593872, 5.32575, 1.7251909, 5.32575, 5.1068702, 5.32575, -0.9541985
0.6273529, -0.0238346, 5.3325, -0.0061646, 5.3325, -1.0032349, 5.3325, -0.0620117, 5.3325, 1.7328244, 5.3325, 4.8167939, 5.3325, -0.9541985
0.6281471, -0.0224918, 5.33925, 0.0004272, 5.33925, -1.0081787, 5.33925, -0.0626221, 5.33925, 1.3587786, 5.33925, 4.3358779, 5.33925, -0.9312977
0.6289412, -0.0213169, 5.346, 0.0098267, 5.346, -1.0053711, 5.346, -0.0632324, 5.346, 1.5267175, 5.346, 4.3206105, 5.346, -0.9160305
0.6297353, -0.0223239, 5.35275, 0.0098267, 5.35275, -1.0057983, 5.35275, -0.0637207, 5.35275, 1.1603054, 5.35275, 4.5267177, 5.35275, -1
0.6305294, -0.0213169, 5.3595, 0.0132446, 5.3595, -1.0030518, 5.3595, -0.0654907, 5.3595, 1.1068702, 5.3595, 5.0916033, 5.3595, -0.9007633
0.6313235, -0.0196384, 5.36625, 0.0132446, 5.36625, -1.0042114, 5.36625, -0.0620117, 5.36625, 0.9694657, 5.36625, 5.4427481, 5.36625, -0.9007633
0.6321176, -0.0166171, 5.373, 0.0122681, 5.373, -1.0046997, 5.373, -0.0615845, 5.373, 0.7862595, 5.373, 5.9541984, 5.373, -0.7938932
0.6329118, -0.0182956, 5.37975, 0.0085449, 5.37975, -1.0081177, 5.37975, -0.0581055, 5.37975, 0.7557252, 5.37975, 6.2290077, 5.37975, -0.8320611
0.6337059, -0.0151064, 5.3865, 0.0048218, 5.3865, -1.0055542, 5.3865, -0.0603638, 5.3865, 0.6564885, 5.3865, 6.5114503, 5.3865, -0.908397
0.6345, -0.0162814, 5.39325, -0.001709, 5.39325, -1.0089111, 5.39325, -0.062561, 5.39325, 0.5648855, 5.39325, 6.4656487, 5.39325, -0.8473282
0.6352941, -0.0176242, 5.4, -0.0148926, 5.4, -1.0075684, 5.4, -0.0666504, 5.4, 0.648855, 5.4, 6.4580154, 5.4, -0.7633588
0.6360882, -0.0186313, 5.40675, -0.0162354, 5.40675, -1.0094604, 5.40675, -0.0675659, 5.40675, 0.6259542, 5.40675, 6.1679387, 5.40675, -0.8549618
0.6368824, -0.0208133, 5.4135, -0.0177612, 5.4135, -1.0075073, 5.4135, -0.0675659, 5.4135, 0.5343512, 5.4135, 5.8167939, 5.4135, -0.7557252
0.6376765, -0.0196384, 5.42025, -0.0113525, 5.42025, -1.0043945, 5.42025, -0.0654907, 5.42025, 0.7175573, 5.42025, 5.4732823, 5.42025, -0.5954198
0.6384706, -0.0193027, 5.427, -0.0062866, 5.427, -1.0048828, 5.427, -0.0701294, 5.427, 0.7557252, 5.427, 5.3358779, 5.427, -0.5496183
0.6392647, -0.0203098, 5.43375, 0.0010986, 5.43375, -1.0029297, 5.43375, -0.0689087, 5.43375, 0.9389313, 5.43375, 5.7251906, 5.43375, -0.519084
0.6400588, -0.018967, 5.4405, 0.0065918, 5.4405, -1.0048218, 5.4405, -0.0606689, 5.4405, 0.6717557, 5.4405, 5.9923663, 5.4405, -0.4732825
0.6408529, -0.0208133, 5.44725, 0.0074463, 5.44725, -1.0076904, 5.44725, -0.06073, 5.44725, 0.8015267, 5.44725, 6.9312978, 5.44725, -0.389313
0.6416471, -0.0223239, 5.454, 0.0099487, 5.454, -0.9992676, 5.454, -0.0730591, 5.454, 0.778626, 5.454, 7.5877862, 5.454, -0.5648855
0.6424412, -0.0204776, 5.46075, 0.0075073, 5.46075, -1.0053711, 5.46075, -0.0587158, 5.46075, 0.5877863, 5.46075, 7.7557254, 5.46075, -0.3740458
0.6432353, -0.0176242, 5.4675, 0.0015259, 5.4675, -1.008606, 5.4675, -0.0691528, 5.4675, 0.648855, 5.4675, 8.4351149, 5.4675, -0.3358779
0.6440294, -0.0152743, 5.47425, -0.0078735, 5.47425, -1.0012817, 5.47425, -0.0779419, 5.47425, 0.7633588, 5.47425, 8.0763359, 5.47425, -0.3435115
0.6448235, -0.0159457, 5.481, -0.0107422, 5.481, -1.0081177, 5.481, -0.0702515, 5.481, 0.4580153, 5.481, 7.5343513, 5.481, -0.2748092
0.6456176, -0.0159457, 5.48775, -0.0130615, 5.48775, -1.0150757, 5.48775, -0.0697021, 5.48775, 0.5954198, 5.48775, 7.7251906, 5.48775, -0.1832061
0.6464118, -0.0139315, 5.4945, -0.0205688, 5.4945, -1.0040283, 5.4945, -0.0844727, 5.4945, 1.129771, 5.4945, 7.221374, 5.4945, -0.2748092
0.6472059, -0.0157778, 5.50125, -0.0231934, 5.50125, -1.0046997, 5.50125, -0.0861816, 5.50125, 1.0305344, 5.50125, 6.9007635, 5.50125, -0.3053435
0.648, -0.0129244, 5.508, -0.0272827, 5.508, -1.0107422, 5.508, -0.079895, 5.508, 1.3816794, 5.508, 6.2137403, 5.508, -0.5648855
0.6487941, -0.0104067, 5.51475, -0.0254517, 5.51475, -1.0028076, 5.51475, -0.0842285, 5.51475, 1.7709924, 5.51475, 5.5648856, 5.51475, -0.6335878
0.6495882, -0.012253, 5.5215, -0.0233154, 5.5215, -1.0065918, 5.5215, -0.0809326, 5.5215, 1.8244275, 5.5215, 5.038168, 5.5215, -0.6717557
0.6503824, -0.008896, 5.52825, -0.0198975, 5.52825, -1.0119019, 5.52825, -0.078064, 5.52825, 2.0687022, 5.52825, 4.7480917, 5.52825, -0.5801527
0.6511765, -0.0130922, 5.535, -0.0214233, 5.535, -1.0100708, 5.535, -0.0759277, 5.535, 2.4427481, 5.535, 4.5114503, 5.535, -0.8091603
0.6519706, -0.0115816, 5.54175, -0.0209351, 5.54175, -1.008606, 5.54175, -0.0750122, 5.54175, 2.7557251, 5.54175, 3.9923663, 5.54175, -0.7328244
0.6527647, -0.0052033, 5.5485, -0.0219727, 5.5485, -1.0120239, 5.5485, -0.0762329, 5.5485, 2.8778627, 5.5485, 3.6946564, 5.5485, -0.9389313
0.6535588, -0.0028534, 5.55525, -0.0240479, 5.55525, -1.0136719, 5.55525, -0.0791016, 5.55525, 3.4122138, 5.55525, 3.1526718, 5.55525, -0.9236641
0.6543529, -0.0062104, 5.562, -0.0184937, 5.562, -1.0103149, 5.562, -0.0789795, 5.562, 3.5038168, 5.562, 2.8854961, 5.562, -1.0610687
0.6551471, -0.0082246, 5.56875, -0.0130615, 5.56875, -1.0114136, 5.56875, -0.0732422, 5.56875, 3.5648854, 5.56875, 2.4198472, 5.56875, -0.9541985
0.6559412, -0.0130922, 5.5755, -0.0113525, 5.5755, -1.0101318, 5.5755, -0.0724487, 5.5755, 3.6793892, 5.5755, 2.1832061, 5.5755, -1.0839695
0.6567353, -0.0159457, 5.58225, -0.0135498, 5.58225, -1.0041504, 5.58225, -0.0756226, 5.58225, 3.7480917, 5.58225, 1.9694656, 5.58225, -1.1832061
0.6575294, -0.0149386, 5.589, -0.0136108, 5.589, -1.0065308, 5.589, -0.0691528, 5.589, 3.8549619, 5.589, 1.4503816, 5.589, -1.0458015
0.6583235, -0.0142672, 5.59575, -0.0267944, 5.59575, -1.0043335, 5.59575, -0.065918, 5.59575, 3.8473282, 5.59575, 1.0992366, 5.59575, -1.221374
0.6591176, -0.0162814, 5.6025, -0.0343018, 5.6025, -1.0022583, 5.6025, -0.0634155, 5.6025, 3.9160306, 5.6025, 0.0229008, 5.6025, -1.1908396
0.6599118, -0.0142672, 5.60925, -0.0387573, 5.60925, -0.9988403, 5.60925, -0.0646362, 5.60925, 3.8549619, 5.60925, -3.1450381, 5.60925, -1.2442749
0.6607059, -0.0130922, 5.616, -0.02948, 5.616, -0.9949341, 5.616, -0.0529175, 5.616, 3.480916, 5.616, -7.6793895, 5.616, -1.3206106
0.6615, -0.0125887, 5.62275, -0.0023804, 5.62275, -1.0030518, 5.62275, -0.0271606, 5.62275, 4.519084, 5.62275, -12.7557249, 5.62275, -1.4580153
0.6622941, -0.0142672, 5.6295, 0.0146484, 5.6295, -0.999939, 5.6295, -0.0438843, 5.6295, 6.2137403, 5.6295, -13.9160309, 5.6295, -1.6259542
0.6630882, -0.0139315, 5.63625, 0.022583, 5.63625, -0.9901733, 5.63625, -0.0525513, 5.63625, 5.2824426, 5.63625, -12.7557249, 5.63625, -1.4656489
0.6638824, -0.0124208, 5.643, 0.0261841, 5.643, -0.9874878, 5.643, -0.0357666, 5.643, 4.9541984, 5.643, -11.5496187, 5.643, -1.0458015
0.6646765, -0.0129244, 5.64975, 0.0206299, 5.64975, -1.0126343, 5.64975, -0.0361938, 5.64975, 4.8625956, 5.64975, -8.7709923, 5.64975, -0.7328244
0.6654706, -0.012253, 5.6565, 0.0040894, 5.6565, -1.0411987, 5.6565, -0.0673218, 5.6565, 5.8625956, 5.6565, -5.8625956, 5.6565, -0.6717557
0.6662647, -0.0129244, 5.66325, -0.0057373, 5.66325, -1.038147, 5.66325, -0.0480347, 5.66325, 6.038168, 5.66325, -6.6870227, 5.66325, -1.0534351
0.6670588, -0.01561, 5.67, 0.0021362, 5.67, -1.0386963, 5.67, -0.003479, 5.67, 7.2900763, 5.67, -12.0687027, 5.67, -1.4503816
0.6678529, -0.0166171, 5.67675, -0.0039673, 5.67675, -1.0183105, 5.67675, -0.0351562, 5.67675, 10.0916033, 5.67675, -15.8167934, 5.67675, -2.129771
0.6686471, -0.0166171, 5.6835, -0.0080566, 5.6835, -1.0058594, 5.6835, -0.0698853, 5.6835, 10.0458012, 5.6835, -16.8320618, 5.6835, -2.2366412
0.6694412, -0.0169528, 5.69025, -0.0202026, 5.69025, -0.9972534, 5.69025, -0.0981445, 5.69025, 7.2061067, 5.69025, -15.2900763, 5.69025, -1.8320611
0.6702353, -0.018967, 5.697, -0.0041504, 5.697, -0.9899292, 5.697, -0.0874634, 5.697, 4.9083967, 5.697, -12.7938929, 5.697, -1.1221374
0.6710294, -0.0223239, 5.70375, 0.0216064, 5.70375, -0.9939575, 5.70375, -0.045105, 5.70375, 2.9007633, 5.70375, -10.1755724, 5.70375, -0.5419847
0.6718235, -0.0276951, 5.7105, 0.036499, 5.7105, -1.0144653, 5.7105, -0.0218506, 5.7105, 1.9160305, 5.7105, -6.4580154, 5.7105, -0.0916031
0.6726176, -0.0243381, 5.71725, 0.0412598, 5.71725, -1.020874, 5.71725, -0.0018921, 5.71725, 2.1526718, 5.71725, -5.8167939, 5.71725, -0.2061069
0.6734118, -0.0246738, 5.724, 0.0526733, 5.724, -1.0360107, 5.724, 0.0581055, 5.724, 3.4274809, 5.724, -7.2519083, 5.724, -0.1984733
0.6742059, -0.0250095, 5.73075, 0.0570068, 5.73075, -1.0315552, 5.73075, 0.074585, 5.73075, 7.4122138, 5.73075, -12.3511448, 5.73075, -0.961832
0.675, -0.0243381, 5.7375, 0.0314941, 5.7375, -0.9923706, 5.7375, -0.019104, 5.7375, 9.8702288, 5.7375, -15.2137403, 5.7375, -1.5801526
