Application:, Trigno Discover (1.7.0)
Date/Time:, 2026/9/9 上午 11:25:51
Collection Length (seconds):, 39.528
Avanti Sensor 11 (69574)
sensor mode: 50
EMG 1 Time Series (s), EMG 1 (mV), ACC X Time Series (s), ACC X (G), ACC Y Time Series (s), ACC Y (G), ACC Z Time Series (s), ACC Z (G), GYRO X Time Series (s), GYRO X (deg/s), GYRO Y Time Series (s), GYRO Y (deg/s), GYRO Z Time Series (s), GYRO Z (deg/s)
, 1259.2593 Hz, , 148.1481 Hz, , 148.1481 Hz, , 148.1481 Hz, , 148.1481 Hz, , 148.1481 Hz, , 148.1481 Hz
0, -0.008896, 0, -0.0087891, 0, -1.0091553, 0, -0.1417236, 0, 0.3358779, 0, 0.8320611, 0, -2.5572519
0.0007941, -0.0102388, 0.00675, -0.0059814, 0.00675, -1.005127, 0.00675, -0.1435547, 0.00675, 0.4351145, 0.00675, 0.5343512, 0.00675, -2.3816793
0.0015882, -0.0065461, 0.0135, -0.0012207, 0.0135, -1.0094604, 0.0135, -0.1422119, 0.0135, 0.5648855, 0.0135, 0.351145, 0.0135, -2.6564887
0.0023824, -0.0031891, 0.02025, 6.1E-05, 0.02025, -1.0082397, 0.02025, -0.1424561, 0.02025, 0.519084, 0.02025, 0.4427481, 0.02025, -2.6717558
0.0031765, 0.0008392, 0.027, -0.0007324, 0.027, -1.0071411, 0.027, -0.1427612, 0.027, 0.4274809, 0.027, 0.6564885, 0.027, -2.7022901
0.0039706, 0.0011749, 0.03375, 0.0015259, 0.03375, -1.0076294, 0.03375, -0.1416016, 0.03375, 0.4274809, 0.03375, 1.0076336, 0.03375, -2.5877862
0.0047647, -0.0023499, 0.0405, 0.0015869, 0.0405, -1.0071411, 0.0405, -0.140564, 0.0405, 0.4274809, 0.0405, 1.0152671, 0.0405, -2.4656489
0.0055588, -0.0030213, 0.04725, -0.0004272, 0.04725, -1.0081177, 0.04725, -0.1413574, 0.04725, 0.480916, 0.04725, 1.0839695, 0.04725, -2.6183207
0.0063529, -0.0028534, 0.054, -0.0011597, 0.054, -1.005249, 0.054, -0.1366577, 0.054, 0.4961832, 0.054, 0.9847328, 0.054, -2.5954199
0.0071471, -0.0095674, 0.06075, -0.0032349, 0.06075, -1.0070801, 0.06075, -0.1380005, 0.06075, 0.4274809, 0.06075, 0.6717557, 0.06075, -2.7328243
0.0079412, -0.0125887, 0.0675, -0.005188, 0.0675, -1.0064087, 0.0675, -0.1418457, 0.0675, 0.5572519, 0.0675, 0.2900763, 0.0675, -2.7251909
0.0087353, -0.0125887, 0.07425, -0.0018921, 0.07425, -1.0059814, 0.07425, -0.1411133, 0.07425, 0.5419847, 0.07425, -0.0229008, 0.07425, -2.9312978
0.0095294, -0.0135958, 0.081, 0.0011597, 0.081, -1.0101318, 0.081, -0.1400757, 0.081, 0.5877863, 0.081, -0.1603053, 0.081, -2.8854961
0.0103235, -0.018967, 0.08775, -0.0009155, 0.08775, -1.0099487, 0.08775, -0.1403198, 0.08775, 0.519084, 0.08775, 0.0458015, 0.08775, -3.038168
0.0111176, -0.0203098, 0.0945, -0.0012207, 0.0945, -1.006958, 0.0945, -0.1400146, 0.0945, 0.7251908, 0.0945, 0.3664122, 0.0945, -3.1145039
0.0119118, -0.0162814, 0.10125, -0.0007324, 0.10125, -1.0057983, 0.10125, -0.140564, 0.10125, 0.6564885, 0.10125, 0.2290076, 0.10125, -3.2442749
0.0127059, -0.0146029, 0.108, -0.0027466, 0.108, -1.0049438, 0.108, -0.1439209, 0.108, 0.4961832, 0.108, 0.2442748, 0.108, -3.3358779
0.0135, -0.0182956, 0.11475, -0.0005493, 0.11475, -1.0031128, 0.11475, -0.1428223, 0.11475, 0.5343512, 0.11475, 0.6717557, 0.11475, -3.0687022
0.0142941, -0.0115816, 0.1215, -0.003479, 0.1215, -1.0040283, 0.1215, -0.1408081, 0.1215, 0.5267175, 0.1215, 0.7328244, 0.1215, -3.259542
0.0150882, -0.0132601, 0.12825, -0.0026855, 0.12825, -1.0039062, 0.12825, -0.138855, 0.12825, 0.6259542, 0.12825, 0.6412213, 0.12825, -3.3129771
0.0158824, -0.0109102, 0.135, -0.0005493, 0.135, -1.0043335, 0.135, -0.1421509, 0.135, 0.4656489, 0.135, 0.6183206, 0.135, -3.1145039
0.0166765, -0.0045319, 0.14175, 0.0037842, 0.14175, -1.0024414, 0.14175, -0.1445312, 0.14175, 0.5419847, 0.14175, 0.5343512, 0.14175, -3.0763359
0.0174706, -0.0038605, 0.1485, 0.0061035, 0.1485, -1.0036621, 0.1485, -0.145752, 0.1485, 0.5877863, 0.1485, 0.778626, 0.1485, -3.4122138
0.0182647, -0.0036927, 0.15525, 0.0020142, 0.15525, -1.0032349, 0.15525, -0.1439209, 0.15525, 0.7251908, 0.15525, 0.5267175, 0.15525, -3.5343511
0.0190588, -0.0057069, 0.162, -0.0012817, 0.162, -1.008606, 0.162, -0.1415405, 0.162, 0.7022901, 0.162, 0.3664122, 0.162, -3.3587787
0.0198529, -0.0062104, 0.16875, -0.0049438, 0.16875, -1.0062256, 0.16875, -0.1419678, 0.16875, 0.8625954, 0.16875, -0.1755725, 0.16875, -3.5343511
0.0206471, -0.0119173, 0.1755, -0.005127, 0.1755, -1.0077515, 0.1755, -0.1395874, 0.1755, 0.6870229, 0.1755, -0.4198473, 0.1755, -3.5954199
0.0214412, -0.0166171, 0.18225, -0.0028687, 0.18225, -1.0084229, 0.18225, -0.1413574, 0.18225, 0.8931298, 0.18225, -0.351145, 0.18225, -3.5038168
0.0222353, -0.0179599, 0.189, -0.0059814, 0.189, -1.007019, 0.189, -0.1393433, 0.189, 0.9312977, 0.189, -0.3816794, 0.189, -3.5496182
0.0230294, -0.0162814, 0.19575, -0.0048218, 0.19575, -1.0095825, 0.19575, -0.1422729, 0.19575, 0.8778626, 0.19575, -0.5267175, 0.19575, -3.5801528
0.0238235, -0.0199741, 0.2025, -0.0032959, 0.2025, -1.0130005, 0.2025, -0.1420288, 0.2025, 1.0229008, 0.2025, -0.648855, 0.2025, -3.5267177
0.0246176, -0.0203098, 0.20925, 0.0007935, 0.20925, -1.0125122, 0.20925, -0.1375732, 0.20925, 0.8396947, 0.20925, -0.5877863, 0.20925, -3.7480917
0.0254118, -0.018967, 0.216, 0.0042725, 0.216, -1.0097656, 0.216, -0.1387329, 0.216, 0.870229, 0.216, -0.3816794, 0.216, -3.4885497
0.0262059, -0.0253452, 0.22275, 0.0066528, 0.22275, -1.0125732, 0.22275, -0.1382446, 0.22275, 0.8244275, 0.22275, 0.0687023, 0.22275, -3.4580152
0.027, -0.026688, 0.2295, 0.0054321, 0.2295, -1.0056152, 0.2295, -0.1359863, 0.2295, 0.7175573, 0.2295, 0.389313, 0.2295, -3.4656489
0.0277941, -0.0243381, 0.23625, 0.0075684, 0.23625, -1.0062866, 0.23625, -0.1369629, 0.23625, 0.8625954, 0.23625, 0.5877863, 0.23625, -3.389313
0.0285882, -0.0270237, 0.243, 0.005188, 0.243, -1.007019, 0.243, -0.1339111, 0.243, 0.8167939, 0.243, 0.389313, 0.243, -3.2977099
0.0293824, -0.023331, 0.24975, 0.0001221, 0.24975, -1.0046997, 0.24975, -0.1355591, 0.24975, 0.8091603, 0.24975, 0.0534351, 0.24975, -3.5267177
0.0301765, -0.0182956, 0.2565, -0.0032349, 0.2565, -1.003418, 0.2565, -0.1346436, 0.2565, 0.7862595, 0.2565, -0.4122137, 0.2565, -3.4885497
0.0309706, -0.0166171, 0.26325, -0.0040894, 0.26325, -1.0026855, 0.26325, -0.1378784, 0.26325, 0.7862595, 0.26325, -0.740458, 0.26325, -3.5114503
0.0317647, -0.0139315, 0.27, -0.0020752, 0.27, -1.0045776, 0.27, -0.1383057, 0.27, 0.6183206, 0.27, -1.2137405, 0.27, -3.7022901
0.0325588, -0.0083925, 0.27675, -0.0007324, 0.27675, -1.0042114, 0.27675, -0.1392822, 0.27675, 0.5954198, 0.27675, -1.3587786, 0.27675, -3.4656489
0.0333529, -0.0085603, 0.2835, -0.001709, 0.2835, -1.00354, 0.2835, -0.1405029, 0.2835, 0.7022901, 0.2835, -1.2900764, 0.2835, -3.4961832
0.0341471, -0.0068818, 0.29025, 0.0012207, 0.29025, -1.0029907, 0.29025, -0.1407471, 0.29025, 0.5038168, 0.29025, -1.129771, 0.29025, -3.519084
0.0349412, -0.0028534, 0.297, 0.0048828, 0.297, -1.0071411, 0.297, -0.1422729, 0.297, 0.6717557, 0.297, -1, 0.297, -3.5877862
0.0357353, 0.0011749, 0.30375, -0.0023804, 0.30375, -1.007019, 0.30375, -0.1413574, 0.30375, 0.7938932, 0.30375, -0.4427481, 0.30375, -3.5801528
0.0365294, -0.0003357, 0.3105, -0.003418, 0.3105, -1.0100708, 0.3105, -0.1391602, 0.3105, 0.8549618, 0.3105, -0.3129771, 0.3105, -3.5343511
0.0373235, -0.0015106, 0.31725, -0.0039673, 0.31725, -1.0067749, 0.31725, -0.1434937, 0.31725, 0.8167939, 0.31725, -0.3969466, 0.31725, -3.3435113
0.0381176, -0.0043641, 0.324, -0.0056152, 0.324, -1.0075684, 0.324, -0.1422729, 0.324, 0.740458, 0.324, -0.4961832, 0.324, -3.6259542
0.0389118, -0.0058747, 0.33075, -0.0007324, 0.33075, -1.0060425, 0.33075, -0.1381836, 0.33075, 0.7709923, 0.33075, -0.7175573, 0.33075, -3.5038168
0.0397059, -0.0057069, 0.3375, 0.003479, 0.3375, -1.0036011, 0.3375, -0.1430664, 0.3375, 0.7328244, 0.3375, -0.9312977, 0.3375, -3.5419848
0.0405, -0.0119173, 0.34425, 0.0082397, 0.34425, -1.0033569, 0.34425, -0.1450195, 0.34425, 0.9770992, 0.34425, -1.038168, 0.34425, -3.5954199
0.0412941, -0.0182956, 0.351, 0.012207, 0.351, -1.0030518, 0.351, -0.1466675, 0.351, 0.9694657, 0.351, -0.778626, 0.351, -3.7175572
0.0420882, -0.0179599, 0.35775, 0.0140381, 0.35775, -1.0025024, 0.35775, -0.145752, 0.35775, 0.9236641, 0.35775, -0.480916, 0.35775, -3.648855
0.0428824, -0.0236667, 0.3645, 0.0090942, 0.3645, -1.0032959, 0.3645, -0.1430664, 0.3645, 0.7557252, 0.3645, -0.0763359, 0.3645, -3.610687
0.0436765, -0.0248417, 0.37125, 0.0059814, 0.37125, -1.0040283, 0.37125, -0.1418457, 0.37125, 0.8473282, 0.37125, 0.0763359, 0.37125, -3.4656489
0.0444706, -0.0287022, 0.378, 0.0015259, 0.378, -1.0059204, 0.378, -0.1428223, 0.378, 0.8549618, 0.378, -0.2977099, 0.378, -3.4885497
0.0452647, -0.0330663, 0.38475, 0.0007935, 0.38475, -1.0024414, 0.38475, -0.1394043, 0.38475, 0.8396947, 0.38475, -0.4122137, 0.38475, -3.4961832
0.0460588, -0.0310521, 0.3915, 0.0016479, 0.3915, -1.0056152, 0.3915, -0.1386108, 0.3915, 1.0152671, 0.3915, -0.7480916, 0.3915, -3.4274809
0.0468529, -0.0256809, 0.39825, 0.0055542, 0.39825, -1.0050049, 0.39825, -0.1412354, 0.39825, 1.0229008, 0.39825, -1.129771, 0.39825, -3.4274809
0.0476471, -0.0206455, 0.405, 0.0065918, 0.405, -1.0037842, 0.405, -0.1419067, 0.405, 1.1603054, 0.405, -1.0229008, 0.405, -3.4274809
0.0484412, -0.021149, 0.41175, 0.008728, 0.41175, -1.006958, 0.41175, -0.1422729, 0.41175, 1.091603, 0.41175, -0.610687, 0.41175, -3.4885497
0.0492353, -0.0149386, 0.4185, 0.0021362, 0.4185, -1.0056152, 0.4185, -0.1403198, 0.4185, 1.0687023, 0.4185, -0.3129771, 0.4185, -3.4961832
0.0500294, -0.0085603, 0.42525, 0.0007935, 0.42525, -1.0075073, 0.42525, -0.1428833, 0.42525, 1.0076336, 0.42525, -0.1755725, 0.42525, -3.1374047
0.0508235, -0.0031891, 0.432, 0.0053711, 0.432, -1.0038452, 0.432, -0.1438599, 0.432, 1.0610687, 0.432, -0.2366412, 0.432, -3.2061069
0.0516176, 0.0038605, 0.43875, 0.0061646, 0.43875, -1.0067749, 0.43875, -0.1414795, 0.43875, 1.2671756, 0.43875, -0.2290076, 0.43875, -3.221374
0.0524118, 0.0035248, 0.4455, 0.005127, 0.4455, -1.005127, 0.4455, -0.1401367, 0.4455, 1.1145039, 0.4455, 0.2748092, 0.4455, -2.9236641
0.0532059, 0.0015106, 0.45225, -0.0018921, 0.45225, -1.0072021, 0.45225, -0.142334, 0.45225, 1.0076336, 0.45225, 0.4427481, 0.45225, -3.2137403
0.054, -0.002182, 0.459, -0.0046387, 0.459, -1.008667, 0.459, -0.142334, 0.459, 0.8015267, 0.459, 0.129771, 0.459, -3.2519083
0.0547941, -0.0062104, 0.46575, -0.0027466, 0.46575, -1.0093994, 0.46575, -0.145752, 0.46575, 0.9160305, 0.46575, -0.7633588, 0.46575, -3.129771
0.0555882, -0.0104067, 0.4725, 0.0065308, 0.4725, -1.0070801, 0.4725, -0.1490479, 0.4725, 1.0839695, 0.4725, -0.7633588, 0.4725, -3.2519083
0.0563824, -0.012253, 0.47925, 0.0112915, 0.47925, -1.0036621, 0.47925, -0.1412964, 0.47925, 1.091603, 0.47925, -0.2977099, 0.47925, -3.1679389
0.0571765, -0.0119173, 0.486, 0.0048828, 0.486, -1.0053101, 0.486, -0.1408081, 0.486, 1.0610687, 0.486, 0.0381679, 0.486, -2.9465649
0.0579706, -0.0169528, 0.49275, 0.0048828, 0.49275, -1.0005493, 0.49275, -0.1420898, 0.49275, 1.2748091, 0.49275, 0.1450382, 0.49275, -3.0687022
0.0587647, -0.0218204, 0.4995, 0.0010376, 0.4995, -1.0059814, 0.4995, -0.1439209, 0.4995, 1.2061069, 0.4995, -0.0381679, 0.4995, -3.0458016
0.0595588, -0.0206455, 0.50625, 0.0044556, 0.50625, -1.0047607, 0.50625, -0.1450195, 0.50625, 1.091603, 0.50625, 0.0152672, 0.50625, -2.9465649
0.0603529, -0.0223239, 0.513, 0.0056152, 0.513, -1.0056152, 0.513, -0.1430664, 0.513, 0.9465649, 0.513, -0.0610687, 0.513, -3.0992367
0.0611471, -0.0253452, 0.51975, -0.0006104, 0.51975, -1.0066528, 0.51975, -0.1403809, 0.51975, 0.8244275, 0.51975, -0.1374046, 0.51975, -3
0.0619412, -0.0265202, 0.5265, -0.0002441, 0.5265, -1.0072021, 0.5265, -0.1374512, 0.5265, 0.870229, 0.5265, -0.2137405, 0.5265, -3.1450381
0.0627353, -0.0283665, 0.53325, 0.00354, 0.53325, -1.0093384, 0.53325, -0.1437988, 0.53325, 1.0305344, 0.53325, -0.2900763, 0.53325, -3.1068702
0.0635294, -0.0224918, 0.54, 0.0071411, 0.54, -1.0061035, 0.54, -0.1436157, 0.54, 1.0992366, 0.54, -0.2442748, 0.54, -3.1679389
0.0643235, -0.0206455, 0.54675, 0.0046387, 0.54675, -1.0066528, 0.54675, -0.1448364, 0.54675, 1.0458015, 0.54675, -0.1526718, 0.54675, -3.1832061
0.0651176, -0.0199741, 0.5535, 0.0002441, 0.5535, -1.0088501, 0.5535, -0.1426392, 0.5535, 1.0992366, 0.5535, -0.0458015, 0.5535, -3.091603
0.0659118, -0.0146029, 0.56025, 0.0001221, 0.56025, -1.0095215, 0.56025, -0.1404419, 0.56025, 1.1068702, 0.56025, 0.1221374, 0.56025, -3.0076337
0.0667059, -0.0062104, 0.567, 0.0010986, 0.567, -1.0064697, 0.567, -0.1417847, 0.567, 1.4274809, 0.567, 0.2977099, 0.567, -2.8854961
0.0675, -0.0050355, 0.57375, 0.0004883, 0.57375, -1.0078125, 0.57375, -0.1375732, 0.57375, 1.3053435, 0.57375, 0.3129771, 0.57375, -2.9541984
0.0682941, -0.0008392, 0.5805, 0.0016479, 0.5805, -1.0090332, 0.5805, -0.140625, 0.5805, 1.1450381, 0.5805, 0.389313, 0.5805, -3.0076337
0.0690882, -0.0035248, 0.58725, -0.0006714, 0.58725, -1.0059204, 0.58725, -0.1420898, 0.58725, 1.038168, 0.58725, -0.0152672, 0.58725, -3
0.0698824, -0.0075532, 0.594, 0.0040283, 0.594, -1.0095215, 0.594, -0.1407471, 0.594, 1.1374046, 0.594, -0.1145038, 0.594, -2.7709923
0.0706765, -0.0065461, 0.60075, 0.005249, 0.60075, -1.0065308, 0.60075, -0.1434937, 0.60075, 1.1755725, 0.60075, 0.0229008, 0.60075, -3.038168
0.0714706, -0.0105745, 0.6075, 0.0029297, 0.6075, -1.0080566, 0.6075, -0.1469727, 0.6075, 1.1832061, 0.6075, 0.4427481, 0.6075, -2.8625953
0.0722647, -0.0130922, 0.61425, 0.0008545, 0.61425, -1.005188, 0.61425, -0.1467896, 0.61425, 1.2290076, 0.61425, 0.5496183, 0.61425, -2.9847329
0.0730588, -0.0182956, 0.621, -0.0002441, 0.621, -1.0059204, 0.621, -0.1459961, 0.621, 1.4351145, 0.621, 0.3664122, 0.621, -2.8396947
0.0738529, -0.0179599, 0.62775, -0.0009766, 0.62775, -1.0064087, 0.62775, -0.1470947, 0.62775, 1.351145, 0.62775, 0.3740458, 0.62775, -2.9694657
0.0746471, -0.0208133, 0.6345, -0.0003662, 0.6345, -1.0037842, 0.6345, -0.1459351, 0.6345, 1.4656489, 0.6345, 0.2900763, 0.6345, -2.9389312
0.0754412, -0.0270237, 0.64125, -0.0011597, 0.64125, -1.0072632, 0.64125, -0.1417847, 0.64125, 1.5954199, 0.64125, 0.2137405, 0.64125, -2.9770992
0.0762353, -0.027863, 0.648, 0.0027466, 0.648, -1.0039673, 0.648, -0.1433716, 0.648, 1.5725191, 0.648, 0.1832061, 0.648, -3.1526718
0.0770294, -0.0271916, 0.65475, 0.0068359, 0.65475, -1.0040283, 0.65475, -0.1467896, 0.65475, 1.7022901, 0.65475, 0.2519084, 0.65475, -3.1679389
0.0778235, -0.0317235, 0.6615, 0.0081177, 0.6615, -1.0029907, 0.6615, -0.1462402, 0.6615, 1.778626, 0.6615, 0.1526718, 0.6615, -3.0992367
0.0786176, -0.0310521, 0.66825, 0.0082397, 0.66825, -1.0037231, 0.66825, -0.1456299, 0.66825, 1.908397, 0.66825, 0.5496183, 0.66825, -3.0839694
0.0794118, -0.0283665, 0.675, 0.0043945, 0.675, -1.0046387, 0.675, -0.1439209, 0.675, 1.8625954, 0.675, 0.8625954, 0.675, -2.9847329
0.0802059, -0.0293736, 0.68175, 0.0018311, 0.68175, -1.0065918, 0.68175, -0.1419678, 0.68175, 1.8778626, 0.68175, 0.9389313, 0.68175, -2.8244274
0.081, -0.0246738, 0.6885, 0.0015869, 0.6885, -1.0045776, 0.6885, -0.1420288, 0.6885, 1.8625954, 0.6885, 0.8549618, 0.6885, -2.908397
0.0817941, -0.0203098, 0.69525, 0.0023193, 0.69525, -1.0059204, 0.69525, -0.1437378, 0.69525, 1.8931298, 0.69525, 0.7328244, 0.69525, -3.0610688
0.0825882, -0.0176242, 0.702, 0.0001221, 0.702, -1.0077515, 0.702, -0.1411133, 0.702, 1.7022901, 0.702, 0.7557252, 0.702, -3.0687022
0.0833824, -0.0162814, 0.70875, 0.0007324, 0.70875, -1.0083618, 0.70875, -0.1400757, 0.70875, 1.9007634, 0.70875, 0.6870229, 0.70875, -3.0534351
0.0841765, -0.0082246, 0.7155, 0.0059814, 0.7155, -1.0084839, 0.7155, -0.140686, 0.7155, 1.9465649, 0.7155, 0.519084, 0.7155, -2.8549619
0.0849706, -0.0023499, 0.72225, 0.0058594, 0.72225, -1.0103149, 0.72225, -0.1420288, 0.72225, 1.9541985, 0.72225, 0.9236641, 0.72225, -2.9389312
0.0857647, -0.0041962, 0.729, 0.003418, 0.729, -1.008667, 0.729, -0.1381836, 0.729, 1.8244275, 0.729, 0.8854962, 0.729, -2.9007633
0.0865588, -0.0031891, 0.73575, -0.0014038, 0.73575, -1.0093994, 0.73575, -0.1392212, 0.73575, 1.9236641, 0.73575, 0.8320611, 0.73575, -3.0076337
0.0873529, -0.0052033, 0.7425, 0.0020142, 0.7425, -1.0061646, 0.7425, -0.1408081, 0.7425, 1.8549619, 0.7425, 0.7022901, 0.7425, -2.9007633
0.0881471, -0.0062104, 0.74925, 0.0021973, 0.74925, -1.0083008, 0.74925, -0.1403809, 0.74925, 1.7175573, 0.74925, 0.5648855, 0.74925, -2.9541984
0.0889412, -0.0109102, 0.756, 0.003479, 0.756, -1.005249, 0.756, -0.142395, 0.756, 1.778626, 0.756, 0.5038168, 0.756, -2.9160306
0.0897353, -0.012253, 0.76275, 0.0006714, 0.76275, -1.0044556, 0.76275, -0.1373291, 0.76275, 1.7328244, 0.76275, 0.4427481, 0.76275, -2.9541984
0.0905294, -0.0137636, 0.7695, 0.0006104, 0.7695, -1.0039062, 0.7695, -0.1390381, 0.7695, 1.6564885, 0.7695, 0.4198473, 0.7695, -3.2366412
0.0913235, -0.021149, 0.77625, -0.0002441, 0.77625, -1.0042725, 0.77625, -0.1390991, 0.77625, 1.7251909, 0.77625, 0.351145, 0.77625, -3.038168
0.0921176, -0.0238346, 0.783, 0, 0.783, -1.0024414, 0.783, -0.1420288, 0.783, 1.7862595, 0.783, 0.0229008, 0.783, -3.0992367
0.0929118, -0.0236667, 0.78975, -0.0005493, 0.78975, -1.0018311, 0.78975, -0.1431885, 0.78975, 1.7251909, 0.78975, -0.0458015, 0.78975, -3.1221373
0.0937059, -0.0229953, 0.7965, -0.003479, 0.7965, -1.003479, 0.7965, -0.1427002, 0.7965, 1.7938931, 0.7965, -0.0839695, 0.7965, -3.1832061
0.0945, -0.0263523, 0.80325, -0.0007324, 0.80325, -1.0043335, 0.80325, -0.1431885, 0.80325, 1.8549619, 0.80325, -0.0534351, 0.80325, -3.0839694
0.0952941, -0.0209812, 0.81, 0.0007935, 0.81, -1.0010986, 0.81, -0.1448364, 0.81, 1.8854961, 0.81, 0.0687023, 0.81, -3.1526718
0.0960882, -0.018967, 0.81675, 0.0030518, 0.81675, -1.0015869, 0.81675, -0.1455688, 0.81675, 1.7862595, 0.81675, -0.0687023, 0.81675, -2.9694657
0.0968824, -0.0149386, 0.8235, 0.0049438, 0.8235, -1.0041504, 0.8235, -0.1426392, 0.8235, 1.7709924, 0.8235, 0.3435115, 0.8235, -3.038168
0.0976765, -0.0171206, 0.83025, 0.0023193, 0.83025, -1.0070801, 0.83025, -0.1392212, 0.83025, 1.9541985, 0.83025, 0.8778626, 0.83025, -2.7480917
0.0984706, -0.01561, 0.837, 0.0026855, 0.837, -1.0079346, 0.837, -0.1408691, 0.837, 1.8549619, 0.837, 0.8396947, 0.837, -2.9694657
0.0992647, -0.0124208, 0.84375, -0.0011597, 0.84375, -1.0077515, 0.84375, -0.1424561, 0.84375, 1.778626, 0.84375, 0.8320611, 0.84375, -2.961832
0.1000588, -0.0063783, 0.8505, -0.0028076, 0.8505, -1.0057983, 0.8505, -0.1375122, 0.8505, 1.778626, 0.8505, 0.8625954, 0.8505, -2.8473282
0.1008529, -0.0045319, 0.85725, -0.0037231, 0.85725, -1.0075073, 0.85725, -0.1358643, 0.85725, 1.6793894, 0.85725, 0.4503817, 0.85725, -2.8473282
0.1016471, -0.0043641, 0.864, -0.0020752, 0.864, -1.0083008, 0.864, -0.1344604, 0.864, 1.5343511, 0.864, 0.480916, 0.864, -2.9312978
0.1024412, -0.0015106, 0.87075, 0.0005493, 0.87075, -1.0093384, 0.87075, -0.1342773, 0.87075, 1.5496184, 0.87075, 0.2824427, 0.87075, -3
0.1032353, -0.0011749, 0.8775, 0.0011597, 0.8775, -1.0088501, 0.8775, -0.1323242, 0.8775, 1.7175573, 0.8775, 0.4732825, 0.8775, -3.038168
0.1040294, -0.0062104, 0.88425, 0.0038452, 0.88425, -1.0076294, 0.88425, -0.1277466, 0.88425, 1.7175573, 0.88425, 0.8854962, 0.88425, -3.0076337
0.1048235, -0.0115816, 0.891, -0.0014038, 0.891, -1.010376, 0.891, -0.1287842, 0.891, 1.6793894, 0.891, 1.0534351, 0.891, -3.1832061
0.1056176, -0.0109102, 0.89775, -0.0028687, 0.89775, -1.0075684, 0.89775, -0.1325684, 0.89775, 1.6030535, 0.89775, 1.1374046, 0.89775, -2.7938931
0.1064118, -0.0135958, 0.9045, -0.0046997, 0.9045, -1.0048828, 0.9045, -0.1314697, 0.9045, 1.6412214, 0.9045, 0.7709923, 0.9045, -2.8931298
0.1072059, -0.0149386, 0.91125, -0.0029297, 0.91125, -1.006897, 0.91125, -0.1334839, 0.91125, 1.4351145, 0.91125, 0.5419847, 0.91125, -2.7099237
0.108, -0.0184634, 0.918, -0.0021362, 0.918, -1.0039673, 0.918, -0.1334839, 0.918, 1.3664122, 0.918, 0.5419847, 0.918, -2.9312978
0.1087941, -0.0203098, 0.92475, -0.0016479, 0.92475, -1.0032959, 0.92475, -0.1344604, 0.92475, 1.221374, 0.92475, 0.4198473, 0.92475, -2.6870229
0.1095882, -0.0176242, 0.9315, -0.0006104, 0.9315, -1.0028687, 0.9315, -0.1362305, 0.9315, 1.2519084, 0.9315, 0.389313, 0.9315, -2.8473282
0.1103824, -0.018967, 0.93825, -0.001709, 0.93825, -1.0053711, 0.93825, -0.1365967, 0.93825, 1.2671756, 0.93825, 0.1755725, 0.93825, -2.8091602
0.1111765, -0.0169528, 0.945, 0.0007324, 0.945, -1.0055542, 0.945, -0.1378174, 0.945, 1.1450381, 0.945, 0.1984733, 0.945, -2.9007633
0.1119706, -0.0176242, 0.95175, -0.0008545, 0.95175, -1.0100098, 0.95175, -0.1367188, 0.95175, 1.1221374, 0.95175, 0.351145, 0.95175, -3.0992367
0.1127647, -0.0196384, 0.9585, -0.0016479, 0.9585, -1.0058594, 0.9585, -0.1387329, 0.9585, 1.1526718, 0.9585, 0.3358779, 0.9585, -2.9770992
0.1135588, -0.0209812, 0.96525, -0.0023804, 0.96525, -1.006897, 0.96525, -0.1376953, 0.96525, 1.1145039, 0.96525, 0.2061069, 0.96525, -2.8091602
0.1143529, -0.0159457, 0.972, 0.0015869, 0.972, -1.0059814, 0.972, -0.1352539, 0.972, 1.2442749, 0.972, 0.0229008, 0.972, -2.6641221
0.1151471, -0.0112459, 0.97875, 0.005188, 0.97875, -1.0075684, 0.97875, -0.1394653, 0.97875, 1.1374046, 0.97875, 0.0916031, 0.97875, -2.5801528
0.1159412, -0.0085603, 0.9855, 0.006958, 0.9855, -1.0085449, 0.9855, -0.1420288, 0.9855, 1.0992366, 0.9855, 0.221374, 0.9855, -2.8473282
0.1167353, -0.0035248, 0.99225, 0.0066528, 0.99225, -1.0065918, 0.99225, -0.1379395, 0.99225, 1.1526718, 0.99225, 0.5267175, 0.99225, -2.8854961
0.1175294, 0.0011749, 0.999, 0.0003662, 0.999, -1.0084229, 0.999, -0.1403198, 0.999, 1.2671756, 0.999, 0.6259542, 0.999, -2.9465649
0.1183235, 0.0010071, 1.00575, -0.0037842, 1.00575, -1.005249, 1.00575, -0.1417847, 1.00575, 1.4122137, 1.00575, 0.4351145, 1.00575, -2.7328243
0.1191176, -0.0005035, 1.0125, -0.0032349, 1.0125, -1.0063477, 1.0125, -0.1411133, 1.0125, 1.3587786, 1.0125, 0.3740458, 1.0125, -2.7938931
0.1199118, -0.0041962, 1.01925, -0.0008545, 1.01925, -1.0073242, 1.01925, -0.1366577, 1.01925, 1.3206106, 1.01925, 0.4274809, 1.01925, -2.8473282
0.1207059, -0.0062104, 1.026, -0.0006104, 1.026, -1.0056763, 1.026, -0.133667, 1.026, 1.4198474, 1.026, 0.4580153, 1.026, -2.7633588
0.1215, -0.0092317, 1.03275, -0.0008545, 1.03275, -1.0054321, 1.03275, -0.1386108, 1.03275, 1.3282443, 1.03275, 0.6030535, 1.03275, -2.5725191
0.1222941, -0.0125887, 1.0395, -0.0021362, 1.0395, -1.003418, 1.0395, -0.1386108, 1.0395, 1.4122137, 1.0395, 0.8625954, 1.0395, -2.5954199
0.1230882, -0.0149386, 1.04625, -0.0021362, 1.04625, -1.0065308, 1.04625, -0.1390991, 1.04625, 1.389313, 1.04625, 0.8931298, 1.04625, -2.7328243
0.1238824, -0.0166171, 1.053, -0.0027466, 1.053, -1.0079346, 1.053, -0.1378784, 1.053, 1.3358779, 1.053, 0.8167939, 1.053, -2.740458
0.1246765, -0.0166171, 1.05975, -0.0048828, 1.05975, -1.0076904, 1.05975, -0.1405029, 1.05975, 1.4961832, 1.05975, 0.8778626, 1.05975, -2.6259542
0.1254706, -0.0236667, 1.0665, -0.0042114, 1.0665, -1.0085449, 1.0665, -0.1386108, 1.0665, 1.3816794, 1.0665, 0.7938932, 1.0665, -2.8167939
0.1262647, -0.0302129, 1.07325, -0.0039673, 1.07325, -1.0099487, 1.07325, -0.1362305, 1.07325, 1.4351145, 1.07325, 0.6717557, 1.07325, -2.6335878
0.1270588, -0.0287022, 1.08, -0.00354, 1.08, -1.0087891, 1.08, -0.1343994, 1.08, 1.3816794, 1.08, 0.5267175, 1.08, -2.6793892
0.1278529, -0.0216526, 1.08675, -0.0010376, 1.08675, -1.0084229, 1.08675, -0.137085, 1.08675, 1.3587786, 1.08675, 0.3740458, 1.08675, -2.5648854
0.1286471, -0.0246738, 1.0935, -0.0004272, 1.0935, -1.007019, 1.0935, -0.1348877, 1.0935, 1.1603054, 1.0935, 0.3053435, 1.0935, -2.6564887
0.1294412, -0.0273594, 1.10025, -0.0014038, 1.10025, -1.0074463, 1.10025, -0.1397705, 1.10025, 1.1526718, 1.10025, 0.1755725, 1.10025, -2.6793892
0.1302353, -0.0206455, 1.107, -0.0020142, 1.107, -1.0053101, 1.107, -0.1395264, 1.107, 1.0687023, 1.107, -0.0763359, 1.107, -2.7099237
0.1310294, -0.017792, 1.11375, -0.0026855, 1.11375, -1.0056152, 1.11375, -0.1375732, 1.11375, 1.129771, 1.11375, 0, 1.11375, -2.7480917
0.1318235, -0.017792, 1.1205, 0.0007324, 1.1205, -1.0102539, 1.1205, -0.1383667, 1.1205, 1.221374, 1.1205, 0.0381679, 1.1205, -2.7251909
0.1326176, -0.0142672, 1.12725, 0.0001831, 1.12725, -1.0048828, 1.12725, -0.1402588, 1.12725, 1.4198474, 1.12725, 0.1450382, 1.12725, -2.6641221
0.1334118, -0.0078889, 1.134, -0.0002441, 1.134, -1.0036011, 1.134, -0.1415405, 1.134, 1.3206106, 1.134, 0.0916031, 1.134, -2.8320611
0.1342059, -0.008896, 1.14075, 0.0029297, 1.14075, -1.0019531, 1.14075, -0.1430054, 1.14075, 1.3969465, 1.14075, 0.0534351, 1.14075, -2.610687
0.135, -0.0078889, 1.1475, 0.0021973, 1.1475, -1.003479, 1.1475, -0.1408691, 1.1475, 1.389313, 1.1475, 0.3816794, 1.1475, -2.6412213
0.1357941, -0.0028534, 1.15425, 0.0021973, 1.15425, -1.0071411, 1.15425, -0.1420898, 1.15425, 1.5496184, 1.15425, 0.5572519, 1.15425, -2.5114503
0.1365882, -0.0030213, 1.161, -0.0005493, 1.161, -1.0067749, 1.161, -0.1404419, 1.161, 1.6870229, 1.161, 0.6717557, 1.161, -2.6183207
0.1373824, -0.0062104, 1.16775, -0.0012207, 1.16775, -1.006958, 1.16775, -0.1442261, 1.16775, 1.6412214, 1.16775, 0.5343512, 1.16775, -2.5572519
0.1381765, -0.0052033, 1.1745, -0.0010986, 1.1745, -1.0040894, 1.1745, -0.1431274, 1.1745, 1.5572519, 1.1745, 0.2748092, 1.1745, -2.6412213
0.1389706, -0.0077211, 1.18125, -0.0012207, 1.18125, -1.0053711, 1.18125, -0.1422729, 1.18125, 1.6946565, 1.18125, 0.4732825, 1.18125, -2.6793892
0.1397647, -0.0171206, 1.188, -0.0001221, 1.188, -1.0079346, 1.188, -0.1386108, 1.188, 1.6564885, 1.188, 0.778626, 1.188, -2.5038168
0.1405588, -0.018967, 1.19475, 6.1E-05, 1.19475, -1.0048218, 1.19475, -0.1424561, 1.19475, 1.6717557, 1.19475, 0.8015267, 1.19475, -2.6717558
0.1413529, -0.0179599, 1.2015, -0.0001831, 1.2015, -1.0067139, 1.2015, -0.1397705, 1.2015, 1.6335878, 1.2015, 0.9236641, 1.2015, -2.4503818
0.1421471, -0.0203098, 1.20825, -0.0057373, 1.20825, -1.0078735, 1.20825, -0.1333618, 1.20825, 1.8396946, 1.20825, 1.0687023, 1.20825, -2.4961832
0.1429412, -0.0193027, 1.215, -0.0067749, 1.215, -1.0107422, 1.215, -0.1333008, 1.215, 1.7557251, 1.215, 1.0229008, 1.215, -2.6717558
0.1437353, -0.0179599, 1.22175, -0.0092773, 1.22175, -1.0078125, 1.22175, -0.1340942, 1.22175, 1.8015267, 1.22175, 0.8244275, 1.22175, -2.5801528
0.1445294, -0.0179599, 1.2285, -0.0067749, 1.2285, -1.0053711, 1.2285, -0.1344604, 1.2285, 1.8931298, 1.2285, 0.610687, 1.2285, -2.5801528
0.1453235, -0.0224918, 1.23525, -0.0023193, 1.23525, -1.0073242, 1.23525, -0.133728, 1.23525, 1.6946565, 1.23525, 0.4198473, 1.23525, -2.5343511
0.1461176, -0.0226596, 1.242, -0.0029297, 1.242, -1.0075684, 1.242, -0.135498, 1.242, 1.6030535, 1.242, 0.610687, 1.242, -2.4656489
0.1469118, -0.021149, 1.24875, -0.0004883, 1.24875, -1.0085449, 1.24875, -0.1363525, 1.24875, 1.8396946, 1.24875, 0.7480916, 1.24875, -2.6412213
0.1477059, -0.0137636, 1.2555, -0.0027466, 1.2555, -1.008606, 1.2555, -0.1355591, 1.2555, 1.870229, 1.2555, 0.7099237, 1.2555, -2.5572519
0.1485, -0.0112459, 1.26225, -0.0041504, 1.26225, -1.0081177, 1.26225, -0.1351929, 1.26225, 1.740458, 1.26225, 0.6946565, 1.26225, -2.648855
0.1492941, -0.008896, 1.269, -0.0028076, 1.269, -1.0082397, 1.269, -0.1385498, 1.269, 1.7480916, 1.269, 0.5801527, 1.269, -2.6717558
0.1500882, -0.0058747, 1.27575, -0.0036011, 1.27575, -1.0048218, 1.27575, -0.1394653, 1.27575, 1.9007634, 1.27575, 0.5725191, 1.27575, -2.6335878
0.1508824, 0.0006714, 1.2825, -0.0057983, 1.2825, -1.0046387, 1.2825, -0.1376953, 1.2825, 1.9694656, 1.2825, 0.8091603, 1.2825, -2.6259542
0.1516765, 0.0011749, 1.28925, -0.0046997, 1.28925, -1.0093994, 1.28925, -0.1370239, 1.28925, 1.740458, 1.28925, 0.9160305, 1.28925, -2.8931298
0.1524706, 0.0025177, 1.296, -0.0049438, 1.296, -1.0055542, 1.296, -0.1358032, 1.296, 1.6183206, 1.296, 0.8320611, 1.296, -3.0534351
0.1532647, 0.0005035, 1.30275, -0.0060425, 1.30275, -1.0081787, 1.30275, -0.1375122, 1.30275, 1.6412214, 1.30275, 0.5496183, 1.30275, -2.7022901
0.1540588, -0.0038605, 1.3095, -0.0023804, 1.3095, -1.0056763, 1.3095, -0.1392822, 1.3095, 1.8244275, 1.3095, 0.5954198, 1.3095, -2.648855
0.1548529, -0.0075532, 1.31625, 0.0005493, 1.31625, -1.0056763, 1.31625, -0.1390991, 1.31625, 1.9007634, 1.31625, 0.4961832, 1.31625, -2.7862597
0.1556471, -0.0119173, 1.323, 0.0008545, 1.323, -1.0039673, 1.323, -0.1434937, 1.323, 2.1221373, 1.323, 0.8091603, 1.323, -2.7709923
0.1564412, -0.012253, 1.32975, 0.0008545, 1.32975, -1.0081787, 1.32975, -0.1386108, 1.32975, 2.0458016, 1.32975, 0.9847328, 1.32975, -2.7709923
0.1572353, -0.0172885, 1.3365, -0.0032959, 1.3365, -1.0050659, 1.3365, -0.1398926, 1.3365, 1.961832, 1.3365, 1.221374, 1.3365, -2.7251909
0.1580294, -0.0157778, 1.34325, -0.0031128, 1.34325, -1.0072021, 1.34325, -0.1373901, 1.34325, 2.1374047, 1.34325, 1.0305344, 1.34325, -2.6335878
0.1588235, -0.0169528, 1.35, -0.0048218, 1.35, -1.0072021, 1.35, -0.1359253, 1.35, 2.1526718, 1.35, 0.9312977, 1.35, -2.6259542
0.1596176, -0.0236667, 1.35675, -0.0045166, 1.35675, -1.0080566, 1.35675, -0.1375732, 1.35675, 2.1984732, 1.35675, 0.9236641, 1.35675, -2.7938931
0.1604118, -0.0263523, 1.3635, -0.0041504, 1.3635, -1.0089111, 1.3635, -0.1379395, 1.3635, 2.1603053, 1.3635, 0.8396947, 1.3635, -2.8015268
0.1612059, -0.027863, 1.37025, -0.0031128, 1.37025, -1.0095825, 1.37025, -0.1355591, 1.37025, 2.2748091, 1.37025, 1.0534351, 1.37025, -2.7175572
0.162, -0.026688, 1.377, -0.0037842, 1.377, -1.0061646, 1.377, -0.1326904, 1.377, 2.3206108, 1.377, 1.1603054, 1.377, -2.6259542
0.1627941, -0.0273594, 1.38375, -0.0028687, 1.38375, -1.0065308, 1.38375, -0.1356812, 1.38375, 2.2900763, 1.38375, 1.1526718, 1.38375, -2.6412213
0.1635882, -0.0229953, 1.3905, -0.0015869, 1.3905, -1.0065308, 1.3905, -0.1333008, 1.3905, 2.1450381, 1.3905, 1.351145, 1.3905, -2.5572519
0.1643824, -0.0234989, 1.39725, -0.0022583, 1.39725, -1.0077515, 1.39725, -0.1337891, 1.39725, 2.3206108, 1.39725, 1.259542, 1.39725, -2.6030533
0.1651765, -0.0216526, 1.404, -0.0054932, 1.404, -1.0082397, 1.404, -0.1321411, 1.404, 2.2290077, 1.404, 1.1984733, 1.404, -2.6641221
0.1659706, -0.0169528, 1.41075, -0.0050049, 1.41075, -1.0079346, 1.41075, -0.1333008, 1.41075, 2.1984732, 1.41075, 1.038168, 1.41075, -2.6183207
0.1667647, -0.01561, 1.4175, -0.0056152, 1.4175, -1.0083618, 1.4175, -0.1312256, 1.4175, 2.221374, 1.4175, 0.9160305, 1.4175, -2.6793892
0.1675588, -0.008896, 1.42425, -0.0032349, 1.42425, -1.0053711, 1.42425, -0.1321411, 1.42425, 2.1679389, 1.42425, 0.5954198, 1.42425, -2.6335878
0.1683529, -0.0035248, 1.431, -0.0041504, 1.431, -1.0026245, 1.431, -0.1340942, 1.431, 2.1145039, 1.431, 0.389313, 1.431, -2.5267177
0.1691471, -0.0058747, 1.43775, -0.0050049, 1.43775, -1.0036011, 1.43775, -0.1333618, 1.43775, 2, 1.43775, 0.6717557, 1.43775, -2.778626
0.1699412, -0.0087282, 1.4445, -0.0047607, 1.4445, -1.0046387, 1.4445, -0.1349487, 1.4445, 2.0610688, 1.4445, 0.6717557, 1.4445, -2.610687
0.1707353, -0.0078889, 1.45125, -0.0064697, 1.45125, -1.0033569, 1.45125, -0.1348877, 1.45125, 2.2290077, 1.45125, 0.7709923, 1.45125, -2.6717558
0.1715294, -0.0075532, 1.458, -0.008606, 1.458, -1.0030518, 1.458, -0.1355591, 1.458, 2.1068702, 1.458, 0.7709923, 1.458, -2.6030533
0.1723235, -0.0129244, 1.46475, -0.0064087, 1.46475, -1.0042114, 1.46475, -0.1380005, 1.46475, 1.9770992, 1.46475, 0.9465649, 1.46475, -2.6870229
0.1731176, -0.0179599, 1.4715, -0.0060425, 1.4715, -1.0038452, 1.4715, -0.135376, 1.4715, 2.2137403, 1.4715, 0.9389313, 1.4715, -2.6870229
0.1739118, -0.0216526, 1.47825, 0.0003052, 1.47825, -1.0048218, 1.47825, -0.1376953, 1.47825, 2.0458016, 1.47825, 0.9847328, 1.47825, -2.4961832
0.1747059, -0.0258488, 1.485, 0.00354, 1.485, -1.0042114, 1.485, -0.1351318, 1.485, 2.091603, 1.485, 1.3435115, 1.485, -2.5038168
0.1755, -0.0270237, 1.49175, 0.0009155, 1.49175, -1.0079956, 1.49175, -0.1365356, 1.49175, 2.2290077, 1.49175, 1.5725191, 1.49175, -2.3969467
0.1762941, -0.0229953, 1.4985, -0.0049438, 1.4985, -1.0083008, 1.4985, -0.1361694, 1.4985, 2.1068702, 1.4985, 1.8244275, 1.4985, -2.4427481
0.1770882, -0.0203098, 1.50525, -0.0061646, 1.50525, -1.0081787, 1.50525, -0.1351318, 1.50525, 2.1221373, 1.50525, 1.6335878, 1.50525, -2.4656489
0.1778824, -0.0182956, 1.512, -0.0036621, 1.512, -1.0055542, 1.512, -0.1312256, 1.512, 2.2061069, 1.512, 1.3664122, 1.512, -2.5267177
0.1786765, -0.0223239, 1.51875, -0.0049438, 1.51875, -1.0068359, 1.51875, -0.1318359, 1.51875, 2.3282442, 1.51875, 1.2748091, 1.51875, -2.5267177
0.1794706, -0.0229953, 1.5255, -0.0084229, 1.5255, -1.0080566, 1.5255, -0.1308594, 1.5255, 2.3435113, 1.5255, 0.9847328, 1.5255, -2.6870229
0.1802647, -0.0194705, 1.53225, -0.0101318, 1.53225, -1.0098267, 1.53225, -0.1282959, 1.53225, 2.1832061, 1.53225, 0.8625954, 1.53225, -2.7175572
0.1810588, -0.0169528, 1.539, -0.007019, 1.539, -1.0085449, 1.539, -0.12854, 1.539, 2.2824428, 1.539, 1.0534351, 1.539, -2.7251909
0.1818529, -0.0139315, 1.54575, -0.0064087, 1.54575, -1.0073242, 1.54575, -0.1286621, 1.54575, 2.1755726, 1.54575, 1.091603, 1.54575, -2.3969467
0.1826471, -0.0075532, 1.5525, -0.0094604, 1.5525, -1.005249, 1.5525, -0.1274414, 1.5525, 1.9847329, 1.5525, 1.1679389, 1.5525, -2.5343511
0.1834412, -0.0011749, 1.55925, -0.008667, 1.55925, -1.0062866, 1.55925, -0.1277466, 1.55925, 1.8396946, 1.55925, 1.2137405, 1.55925, -2.5496182
0.1842353, -0.0008392, 1.566, -0.0091553, 1.566, -1.0053101, 1.566, -0.12854, 1.566, 1.8931298, 1.566, 0.908397, 1.566, -2.6412213
0.1850294, -0.0015106, 1.57275, -0.0083008, 1.57275, -1.0050049, 1.57275, -0.1312866, 1.57275, 1.6717557, 1.57275, 0.8778626, 1.57275, -2.6717558
0.1858235, -0.0018463, 1.5795, -0.0046387, 1.5795, -1.0018921, 1.5795, -0.1322632, 1.5795, 1.870229, 1.5795, 0.7709923, 1.5795, -2.7938931
0.1866176, -0.0015106, 1.58625, -0.0057983, 1.58625, -1.0040894, 1.58625, -0.1334229, 1.58625, 1.9312977, 1.58625, 0.8854962, 1.58625, -2.7862597
0.1874118, -0.0052033, 1.593, -0.0079346, 1.593, -1.0047607, 1.593, -0.1323853, 1.593, 1.8320611, 1.593, 0.9694657, 1.593, -2.8015268
0.1882059, -0.012253, 1.59975, -0.0091553, 1.59975, -1.0053101, 1.59975, -0.1345825, 1.59975, 1.8473282, 1.59975, 1.0305344, 1.59975, -2.908397
0.189, -0.0206455, 1.6065, -0.0078735, 1.6065, -1.0063477, 1.6065, -0.1369629, 1.6065, 1.8167939, 1.6065, 0.9236641, 1.6065, -2.7175572
0.1897941, -0.0240024, 1.61325, -0.0084839, 1.61325, -1.0059814, 1.61325, -0.1331177, 1.61325, 2.0839694, 1.61325, 1.0305344, 1.61325, -2.8244274
0.1905882, -0.0236667, 1.62, -0.0070801, 1.62, -1.0047607, 1.62, -0.1283569, 1.62, 1.9694656, 1.62, 1.0229008, 1.62, -2.8854961
0.1913824, -0.0293736, 1.62675, -0.0056763, 1.62675, -1.003479, 1.62675, -0.1292725, 1.62675, 1.9312977, 1.62675, 1.0076336, 1.62675, -2.9389312
0.1921765, -0.0263523, 1.6335, -0.0045166, 1.6335, -1.0067749, 1.6335, -0.1312866, 1.6335, 1.9007634, 1.6335, 0.778626, 1.6335, -2.7938931
0.1929706, -0.0263523, 1.64025, -0.0057983, 1.64025, -1.0053101, 1.64025, -0.1325684, 1.64025, 1.7862595, 1.64025, 0.9007633, 1.64025, -2.8854961
0.1937647, -0.0270237, 1.647, -0.0042114, 1.647, -1.006897, 1.647, -0.1318359, 1.647, 1.8625954, 1.647, 1.3129771, 1.647, -2.8015268
0.1945588, -0.0226596, 1.65375, -0.0037842, 1.65375, -1.0101929, 1.65375, -0.1333008, 1.65375, 1.8167939, 1.65375, 1.6641221, 1.65375, -2.610687
0.1953529, -0.0270237, 1.6605, -0.0065308, 1.6605, -1.0067139, 1.6605, -0.1324463, 1.6605, 1.8320611, 1.6605, 1.6183206, 1.6605, -2.7709923
0.1961471, -0.0223239, 1.66725, -0.0089722, 1.66725, -1.008606, 1.66725, -0.1365967, 1.66725, 1.870229, 1.66725, 1.5572519, 1.66725, -2.7480917
0.1969412, -0.0182956, 1.674, -0.0037231, 1.674, -1.008728, 1.674, -0.1350098, 1.674, 1.9389313, 1.674, 1.3282443, 1.674, -2.648855
0.1977353, -0.0115816, 1.68075, -0.0031738, 1.68075, -1.0091553, 1.68075, -0.1320801, 1.68075, 2.0076337, 1.68075, 1.4351145, 1.68075, -2.6183207
0.1985294, -0.0068818, 1.6875, -0.0005493, 1.6875, -1.0089722, 1.6875, -0.1303101, 1.6875, 1.9389313, 1.6875, 1.6717557, 1.6875, -2.5572519
0.1993235, -0.0028534, 1.69425, -0.0063477, 1.69425, -1.0095215, 1.69425, -0.1270752, 1.69425, 1.7938931, 1.69425, 1.8778626, 1.69425, -2.5496182
0.2001176, 0.0008392, 1.701, -0.0057983, 1.701, -1.0066528, 1.701, -0.1247559, 1.701, 1.8091604, 1.701, 2.2137403, 1.701, -2.4503818
0.2009118, 0.0018463, 1.70775, -0.0114746, 1.70775, -1.0087891, 1.70775, -0.1255493, 1.70775, 1.908397, 1.70775, 1.7709924, 1.70775, -2.3664122
0.2017059, 0.0018463, 1.7145, -0.0092773, 1.7145, -1.0075073, 1.7145, -0.1262817, 1.7145, 2.129771, 1.7145, 1.6946565, 1.7145, -2.4351146
0.2025, -0.002182, 1.72125, -0.0070801, 1.72125, -1.006958, 1.72125, -0.1218872, 1.72125, 1.9694656, 1.72125, 1.519084, 1.72125, -2.519084
0.2032941, -0.005539, 1.728, -0.0056763, 1.728, -1.0039673, 1.728, -0.1228638, 1.728, 1.8931298, 1.728, 1.8091604, 1.728, -2.3206108
0.2040882, -0.0052033, 1.73475, -0.0094604, 1.73475, -1, 1.73475, -0.1243286, 1.73475, 1.7709924, 1.73475, 1.7938931, 1.73475, -2.4580152
0.2048824, -0.0102388, 1.7415, -0.0114136, 1.7415, -1.0024414, 1.7415, -0.125061, 1.7415, 1.8778626, 1.7415, 1.8549619, 1.7415, -2.5343511
0.2056765, -0.0109102, 1.74825, -0.0107422, 1.74825, -1.0072021, 1.74825, -0.1228027, 1.74825, 1.6717557, 1.74825, 1.648855, 1.74825, -2.3664122
0.2064706, -0.0146029, 1.755, -0.0059204, 1.755, -1.0077515, 1.755, -0.1206665, 1.755, 1.8167939, 1.755, 1.4961832, 1.755, -2.4656489
0.2072647, -0.0184634, 1.76175, -0.0030518, 1.76175, -1.0090942, 1.76175, -0.1175537, 1.76175, 1.908397, 1.76175, 1.4961832, 1.76175, -2.1526718
0.2080588, -0.0263523, 1.7685, -0.0071411, 1.7685, -1.0109253, 1.7685, -0.118103, 1.7685, 2.0610688, 1.7685, 1.8015267, 1.7685, -2.1755726
0.2088529, -0.0250095, 1.77525, -0.0061646, 1.77525, -1.0090942, 1.77525, -0.1204834, 1.77525, 2.1832061, 1.77525, 1.7099236, 1.77525, -2.1145039
0.2096471, -0.0223239, 1.782, -0.0077515, 1.782, -1.0080566, 1.782, -0.1234131, 1.782, 2.2061069, 1.782, 1.0687023, 1.782, -2.1755726
0.2104412, -0.0260166, 1.78875, -0.0067139, 1.78875, -1.0057983, 1.78875, -0.128418, 1.78875, 2.1374047, 1.78875, 0.5267175, 1.78875, -2.1603053
0.2112353, -0.0287022, 1.7955, -0.0056763, 1.7955, -1.0057983, 1.7955, -0.1304932, 1.7955, 2.091603, 1.7955, 0.351145, 1.7955, -2.3358779
0.2120294, -0.0276951, 1.80225, -0.0002441, 1.80225, -1.008667, 1.80225, -0.1303101, 1.80225, 2.038168, 1.80225, 0.4885496, 1.80225, -2.3129771
0.2128235, -0.0253452, 1.809, -0.0018921, 1.809, -1.0079346, 1.809, -0.1368408, 1.809, 1.8854961, 1.809, 0.6870229, 1.809, -2.4274809
0.2136176, -0.0213169, 1.81575, -0.0050049, 1.81575, -1.0061035, 1.81575, -0.1379395, 1.81575, 1.8549619, 1.81575, 1.3816794, 1.81575, -2.4580152
0.2144118, -0.0198062, 1.8225, -0.0081787, 1.8225, -1.0044556, 1.8225, -0.1375122, 1.8225, 1.8091604, 1.8225, 1.4198474, 1.8225, -2.3740458
0.2152059, -0.014435, 1.82925, -0.0076294, 1.82925, -1.0058594, 1.82925, -0.1289062, 1.82925, 2.1679389, 1.82925, 1.8167939, 1.82925, -2.1832061
0.216, -0.0085603, 1.836, -0.0092773, 1.836, -1.0014648, 1.836, -0.1295166, 1.836, 2.0076337, 1.836, 1.870229, 1.836, -2.3282442
0.2167941, 0.0003357, 1.84275, -0.0093384, 1.84275, -1.0039673, 1.84275, -0.1283569, 1.84275, 1.9923664, 1.84275, 1.9236641, 1.84275, -2.2366412
0.2175882, -0.0008392, 1.8495, -0.0094604, 1.8495, -1.0053711, 1.8495, -0.1253052, 1.8495, 2.0152671, 1.8495, 2.0763359, 1.8495, -2.4656489
0.2183824, 0.002182, 1.85625, -0.0117798, 1.85625, -1.0045166, 1.85625, -0.1281128, 1.85625, 1.9465649, 1.85625, 1.8931298, 1.85625, -2.519084
0.2191765, 0.0060426, 1.863, -0.0134888, 1.863, -1.005249, 1.863, -0.1291504, 1.863, 1.519084, 1.863, 1.7175573, 1.863, -2.5343511
0.2199706, 0.0043641, 1.86975, -0.0061646, 1.86975, -1.0053711, 1.86975, -0.1278076, 1.86975, 1.5877863, 1.86975, 1.6335878, 1.86975, -2.5114503
0.2207647, -0.0052033, 1.8765, -0.0067139, 1.8765, -1.0061646, 1.8765, -0.1218872, 1.8765, 1.5801526, 1.8765, 1.8091604, 1.8765, -2.648855
0.2215588, -0.0109102, 1.88325, -0.0118408, 1.88325, -1.0032349, 1.88325, -0.1229858, 1.88325, 1.351145, 1.88325, 1.9541985, 1.88325, -2.6641221
0.2223529, -0.008896, 1.89, -0.0144653, 1.89, -1.003418, 1.89, -0.1220703, 1.89, 1.2290076, 1.89, 1.6564885, 1.89, -2.6335878
0.2231471, -0.0125887, 1.89675, -0.0176392, 1.89675, -1.0036621, 1.89675, -0.1216431, 1.89675, 1.0687023, 1.89675, 1.4961832, 1.89675, -2.8320611
0.2239412, -0.0193027, 1.9035, -0.0183716, 1.9035, -0.9992065, 1.9035, -0.1210938, 1.9035, 0.8549618, 1.9035, 1.0992366, 1.9035, -2.8778627
0.2247353, -0.0224918, 1.91025, -0.0183716, 1.91025, -1.0026855, 1.91025, -0.1252441, 1.91025, 0.6259542, 1.91025, 0.4580153, 1.91025, -2.908397
0.2255294, -0.0236667, 1.917, -0.0195923, 1.917, -0.999939, 1.917, -0.1221924, 1.917, 0.4351145, 1.917, 0.2519084, 1.917, -3.0152671
0.2263235, -0.0240024, 1.92375, -0.0151978, 1.92375, -1.0078735, 1.92375, -0.1247559, 1.92375, 0.4198473, 1.92375, -0.3282443, 1.92375, -3.1832061
0.2271176, -0.0193027, 1.9305, -0.0127563, 1.9305, -1.0073853, 1.9305, -0.1265869, 1.9305, 0.259542, 1.9305, -0.5496183, 1.9305, -3.1832061
0.2279118, -0.0176242, 1.93725, -0.010376, 1.93725, -1.0049438, 1.93725, -0.1333008, 1.93725, 0.2519084, 1.93725, -0.3053435, 1.93725, -3.4198472
0.2287059, -0.0206455, 1.944, -0.010376, 1.944, -1.0040283, 1.944, -0.1360474, 1.944, -0.0305344, 1.944, 0.5114504, 1.944, -3.3053436
0.2295, -0.0219883, 1.95075, -0.0125122, 1.95075, -1.0078735, 1.95075, -0.1334839, 1.95075, -0.0763359, 1.95075, 1.1374046, 1.95075, -3.1374047
0.2302941, -0.0204776, 1.9575, -0.0102539, 1.9575, -1.010498, 1.9575, -0.1329346, 1.9575, -0.1221374, 1.9575, 1.1221374, 1.9575, -3.221374
0.2310882, -0.018967, 1.96425, -0.0082397, 1.96425, -1.0095215, 1.96425, -0.133728, 1.96425, 0.0229008, 1.96425, 1.3587786, 1.96425, -3.2442749
0.2318824, -0.0152743, 1.971, -0.0032349, 1.971, -1.0072632, 1.971, -0.1362305, 1.971, 0.0687023, 1.971, 2.0839694, 1.971, -3.1832061
0.2326765, -0.008896, 1.97775, -0.0061646, 1.97775, -1.0072021, 1.97775, -0.1295166, 1.97775, 0.1603053, 1.97775, 2.3358779, 1.97775, -3.0152671
0.2334706, -0.0035248, 1.9845, -0.0123291, 1.9845, -1.006958, 1.9845, -0.1248169, 1.9845, 0.1755725, 1.9845, 2.4198472, 1.9845, -3.1679389
0.2342647, -0.0011749, 1.99125, -0.0081177, 1.99125, -1.0053101, 1.99125, -0.1264648, 1.99125, -0.0992366, 1.99125, 1.740458, 1.99125, -3.1526718
0.2350588, 0.0003357, 1.998, -0.0081787, 1.998, -1.0043335, 1.998, -0.1279907, 1.998, 0.0458015, 1.998, 1.3358779, 1.998, -3.1450381
0.2358529, 0.0011749, 2.00475, -0.0092163, 2.00475, -1.0045166, 2.00475, -0.1291504, 2.00475, 0.0610687, 2.00475, 0.8320611, 2.00475, -3.480916
0.2366471, -0.0052033, 2.0115, -0.0075684, 2.0115, -1.0061646, 2.0115, -0.1268311, 2.0115, -0.0381679, 2.0115, 0.6793893, 2.0115, -3.4732823
0.2374412, -0.0112459, 2.01825, -0.0083618, 2.01825, -1.0015869, 2.01825, -0.12854, 2.01825, -0.2366412, 2.01825, 0.3282443, 2.01825, -3.4503818
0.2382353, -0.0105745, 2.025, -0.0108643, 2.025, -1.00177, 2.025, -0.1309204, 2.025, -0.1832061, 2.025, 0.1832061, 2.025, -3.4122138
0.2390294, -0.0129244, 2.03175, -0.0090332, 2.03175, -1.003418, 2.03175, -0.1315308, 2.03175, -0.1374046, 2.03175, 0.0305344, 2.03175, -3.480916
0.2398235, -0.0172885, 2.0385, -0.0099487, 2.0385, -1.0059204, 2.0385, -0.1273804, 2.0385, -0.0076336, 2.0385, 0.1221374, 2.0385, -3.4503818
0.2406176, -0.0219883, 2.04525, -0.0131226, 2.04525, -1.0050049, 2.04525, -0.1279297, 2.04525, -0.1450382, 2.04525, 0.1221374, 2.04525, -3.3969467
0.2414118, -0.023331, 2.052, -0.0123901, 2.052, -1.0053711, 2.052, -0.1333008, 2.052, -0.1526718, 2.052, 0.1450382, 2.052, -3.3969467
0.2422059, -0.0236667, 2.05875, -0.0137939, 2.05875, -1.0054932, 2.05875, -0.1345825, 2.05875, -0.3129771, 2.05875, 0.0305344, 2.05875, -3.4274809
0.243, -0.0236667, 2.0655, -0.0074463, 2.0655, -1.0055542, 2.0655, -0.1343384, 2.0655, -0.2671756, 2.0655, -0.0534351, 2.0655, -3.5267177
0.2437941, -0.0219883, 2.07225, -0.007019, 2.07225, -1.0080566, 2.07225, -0.1325073, 2.07225, -0.1679389, 2.07225, -0.0381679, 2.07225, -3.5648854
0.2445882, -0.024506, 2.079, -0.0109253, 2.079, -1.007019, 2.079, -0.12854, 2.079, -0.0610687, 2.079, 0.2137405, 2.079, -3.4351146
0.2453824, -0.0295415, 2.08575, -0.0123291, 2.08575, -1.0068359, 2.08575, -0.1300659, 2.08575, 0.0076336, 2.08575, 0.1450382, 2.08575, -3.389313
0.2461765, -0.0293736, 2.0925, -0.0147095, 2.0925, -1.0075684, 2.0925, -0.1298218, 2.0925, 0.0152672, 2.0925, -0.1603053, 2.0925, -3.6641221
0.2469706, -0.0273594, 2.09925, -0.0120239, 2.09925, -1.008667, 2.09925, -0.1256714, 2.09925, 0.0076336, 2.09925, -0.7175573, 2.09925, -3.6717558
0.2477647, -0.0203098, 2.106, -0.010498, 2.106, -1.010376, 2.106, -0.1297607, 2.106, -0.0839695, 2.106, -1.2061069, 2.106, -3.8091602
0.2485588, -0.0149386, 2.11275, -0.005188, 2.11275, -1.0091553, 2.11275, -0.1282959, 2.11275, -0.2366412, 2.11275, -1.5114504, 2.11275, -3.8396947
0.2493529, -0.0085603, 2.1195, -0.0043945, 2.1195, -1.0083618, 2.1195, -0.1300659, 2.1195, -0.1450382, 2.1195, -1.6335878, 2.1195, -3.8015268
0.2501471, -0.002182, 2.12625, -0.0093994, 2.12625, -1.0075684, 2.12625, -0.1327515, 2.12625, -0.2977099, 2.12625, -1.7175573, 2.12625, -3.8625953
0.2509412, 0.0023499, 2.133, -0.007019, 2.133, -1.0050049, 2.133, -0.1368408, 2.133, -0.2519084, 2.133, -2.0992367, 2.133, -3.8320611
0.2517353, 0.0038605, 2.13975, 0.0012207, 2.13975, -1.0032349, 2.13975, -0.1397095, 2.13975, -0.1984733, 2.13975, -2.2442749, 2.13975, -3.8396947
0.2525294, 0.0057069, 2.1465, 0.0004883, 2.1465, -1.0023193, 2.1465, -0.1403809, 2.1465, 0.1221374, 2.1465, -2.0610688, 2.1465, -3.8244274
0.2533235, -0.0005035, 2.15325, -0.0009155, 2.15325, -1.0025635, 2.15325, -0.1421509, 2.15325, -0.0687023, 2.15325, -1.3358779, 2.15325, -3.7099237
0.2541176, -0.0048676, 2.16, -0.0036621, 2.16, -1.0004272, 2.16, -0.1422729, 2.16, 0.0839695, 2.16, -0.9465649, 2.16, -3.8473282
0.2549118, -0.0095674, 2.16675, -0.006897, 2.16675, -1.0031738, 2.16675, -0.1430054, 2.16675, 0.2061069, 2.16675, -0.8244275, 2.16675, -3.6870229
0.2557059, -0.0119173, 2.1735, -0.0068359, 2.1735, -1.0032959, 2.1735, -0.1416016, 2.1735, 0.3969466, 2.1735, -0.8091603, 2.1735, -3.6870229
0.2565, -0.0182956, 2.18025, -0.0046387, 2.18025, -1.0037231, 2.18025, -0.1373901, 2.18025, 0.6183206, 2.18025, -0.6793893, 2.18025, -3.4427481
0.2572941, -0.0238346, 2.187, -0.0032349, 2.187, -1.0036621, 2.187, -0.1364136, 2.187, 0.4961832, 2.187, -0.5648855, 2.187, -3.5114503
0.2580882, -0.0276951, 2.19375, 0.0004272, 2.19375, -1.008606, 2.19375, -0.1384277, 2.19375, 0.6335878, 2.19375, -0.5877863, 2.19375, -3.3206108
0.2588824, -0.0250095, 2.2005, 0.0015259, 2.2005, -1.0066528, 2.2005, -0.1413574, 2.2005, 0.7480916, 2.2005, -0.6412213, 2.2005, -3.3206108
0.2596765, -0.0209812, 2.20725, 0.0046387, 2.20725, -1.0079346, 2.20725, -0.1384277, 2.20725, 0.870229, 2.20725, -0.259542, 2.20725, -3.3282442
0.2604706, -0.0213169, 2.214, 0.0037842, 2.214, -1.0073853, 2.214, -0.1362305, 2.214, 0.6946565, 2.214, 0.0763359, 2.214, -3.2748091
0.2612647, -0.0263523, 2.22075, -0.0061646, 2.22075, -1.0119629, 2.22075, -0.1332397, 2.22075, 0.8396947, 2.22075, 0.259542, 2.22075, -3.091603
0.2620588, -0.0253452, 2.2275, -0.0096436, 2.2275, -1.0092163, 2.2275, -0.1309814, 2.2275, 0.8320611, 2.2275, 0.2824427, 2.2275, -3.1221373
0.2628529, -0.0256809, 2.23425, -0.0109253, 2.23425, -1.0100098, 2.23425, -0.131958, 2.23425, 0.7251908, 2.23425, -0.259542, 2.23425, -3.2748091
0.2636471, -0.0253452, 2.241, -0.010437, 2.241, -1.0078125, 2.241, -0.130127, 2.241, 0.7099237, 2.241, -0.8854962, 2.241, -3.2061069
0.2644412, -0.0229953, 2.24775, -0.0064087, 2.24775, -1.006897, 2.24775, -0.1292725, 2.24775, 0.8396947, 2.24775, -1, 2.24775, -3.259542
0.2652353, -0.0218204, 2.2545, -0.006897, 2.2545, -1.0040283, 2.2545, -0.1308594, 2.2545, 0.8167939, 2.2545, -1.0458015, 2.2545, -3.1221373
0.2660294, -0.0169528, 2.26125, -0.0079346, 2.26125, -1.0012207, 2.26125, -0.1316528, 2.26125, 0.6030535, 2.26125, -0.9312977, 2.26125, -3.2977099
0.2668235, -0.0151064, 2.268, -0.0108032, 2.268, -1.0025635, 2.268, -0.1266479, 2.268, 0.5572519, 2.268, -0.5419847, 2.268, -3.3053436
0.2676176, -0.0129244, 2.27475, -0.0100098, 2.27475, -1.0023193, 2.27475, -0.12677, 2.27475, 0.6030535, 2.27475, -0.610687, 2.27475, -3.129771
0.2684118, -0.0099031, 2.2815, -0.0112305, 2.2815, -1.005249, 2.2815, -0.1262207, 2.2815, 0.6717557, 2.2815, -0.8778626, 2.2815, -3.2519083
0.2692059, -0.0062104, 2.28825, -0.0085449, 2.28825, -1.0062256, 2.28825, -0.1306763, 2.28825, 0.4732825, 2.28825, -0.8549618, 2.28825, -3.2137403
0.27, -0.0052033, 2.295, -0.0078125, 2.295, -1.0074463, 2.295, -0.1309814, 2.295, 0.3129771, 2.295, -0.8015267, 2.295, -3.0610688
0.2707941, -0.0050355, 2.30175, -0.0088501, 2.30175, -1.008728, 2.30175, -0.1304321, 2.30175, 0.2137405, 2.30175, -0.6335878, 2.30175, -3.0152671
0.2715882, -0.0092317, 2.3085, -0.0077515, 2.3085, -1.0094604, 2.3085, -0.1293335, 2.3085, 0.1526718, 2.3085, -0.8778626, 2.3085, -3.091603
0.2723824, -0.0142672, 2.31525, -0.0064697, 2.31525, -1.0068359, 2.31525, -0.1312256, 2.31525, -0.0229008, 2.31525, -1.1221374, 2.31525, -3.1221373
0.2731765, -0.01561, 2.322, -0.00177, 2.322, -1.0063477, 2.322, -0.1342773, 2.322, 0.0916031, 2.322, -1.0763359, 2.322, -3.2061069
0.2739706, -0.0172885, 2.32875, -0.0047607, 2.32875, -1.0063477, 2.32875, -0.1323242, 2.32875, 0.0839695, 2.32875, -1.1145039, 2.32875, -3.0687022
0.2747647, -0.0193027, 2.3355, -0.0075684, 2.3355, -1.0066528, 2.3355, -0.1306763, 2.3355, -0.129771, 2.3355, -0.9694657, 2.3355, -3.0534351
0.2755588, -0.0216526, 2.34225, -0.0129395, 2.34225, -1.0096436, 2.34225, -0.1295776, 2.34225, -0.2061069, 2.34225, -1.4198474, 2.34225, -3.1832061
0.2763529, -0.0213169, 2.349, -0.0115967, 2.349, -1.0078735, 2.349, -0.1320801, 2.349, -0.3358779, 2.349, -1.8244275, 2.349, -3.3053436
0.2771471, -0.0209812, 2.35575, -0.008728, 2.35575, -1.0083008, 2.35575, -0.1347046, 2.35575, -0.2137405, 2.35575, -2.4198472, 2.35575, -3.221374
0.2779412, -0.0209812, 2.3625, -0.0053711, 2.3625, -1.0094604, 2.3625, -0.1364136, 2.3625, -0.1908397, 2.3625, -2.7328243, 2.3625, -3.1908398
0.2787353, -0.0198062, 2.36925, -0.007019, 2.36925, -1.0039673, 2.36925, -0.1350098, 2.36925, -0.4274809, 2.36925, -2.1755726, 2.36925, -3.4580152
0.2795294, -0.0194705, 2.376, -0.013855, 2.376, -1.0092773, 2.376, -0.1324463, 2.376, -0.7480916, 2.376, -1.9389313, 2.376, -3.5877862
0.2803235, -0.0171206, 2.38275, -0.0171509, 2.38275, -1.0095825, 2.38275, -0.1326294, 2.38275, -0.610687, 2.38275, -1.9312977, 2.38275, -3.5877862
0.2811176, -0.018967, 2.3895, -0.0168457, 2.3895, -1.0079956, 2.3895, -0.1324463, 2.3895, -0.740458, 2.3895, -2.5801528, 2.3895, -3.519084
0.2819118, -0.0172885, 2.39625, -0.0134888, 2.39625, -1.0060425, 2.39625, -0.1364136, 2.39625, -0.6793893, 2.39625, -2.7480917, 2.39625, -3.7251909
0.2827059, -0.0102388, 2.403, -0.0087891, 2.403, -1.005188, 2.403, -0.1373901, 2.403, -0.778626, 2.403, -2.4656489, 2.403, -3.9312978
0.2835, -0.0075532, 2.40975, -0.0110474, 2.40975, -1.0087891, 2.40975, -0.1391602, 2.40975, -1.0076336, 2.40975, -2.1450381, 2.40975, -3.9694657
0.2842941, -0.0065461, 2.4165, -0.0142212, 2.4165, -1.0090942, 2.4165, -0.1374512, 2.4165, -0.8931298, 2.4165, -2.038168, 2.4165, -3.9541984
0.2850882, -0.0035248, 2.42325, -0.0166016, 2.42325, -1.0077515, 2.42325, -0.1350708, 2.42325, -0.9847328, 2.42325, -2.1450381, 2.42325, -4.0305343
0.2858824, -0.0018463, 2.43, -0.0160522, 2.43, -1.005188, 2.43, -0.1382446, 2.43, -1.1526718, 2.43, -2.4122138, 2.43, -4.2671757
0.2866765, -0.0001678, 2.43675, -0.0159912, 2.43675, -1.0078735, 2.43675, -0.1351318, 2.43675, -1.1145039, 2.43675, -2.4198472, 2.43675, -4.2519083
0.2874706, -0.0038605, 2.4435, -0.0125732, 2.4435, -1.006897, 2.4435, -0.1399536, 2.4435, -1.2137405, 2.4435, -2.519084, 2.4435, -4.2061067
0.2882647, -0.0109102, 2.45025, -0.0112915, 2.45025, -1.0062866, 2.45025, -0.1414795, 2.45025, -1.2137405, 2.45025, -2.9160306, 2.45025, -4.3740458
0.2890588, -0.0152743, 2.457, -0.008606, 2.457, -1.0029297, 2.457, -0.1410522, 2.457, -1.259542, 2.457, -2.6183207, 2.457, -4.6412215
0.2898529, -0.0162814, 2.46375, -0.0097656, 2.46375, -1.0039062, 2.46375, -0.1400146, 2.46375, -1.389313, 2.46375, -2.3740458, 2.46375, -4.6717558
0.2906471, -0.0204776, 2.4705, -0.012146, 2.4705, -1.0030518, 2.4705, -0.1448975, 2.4705, -1.2519084, 2.4705, -2.5877862, 2.4705, -4.8091602
0.2914412, -0.0224918, 2.47725, -0.008606, 2.47725, -1.0074463, 2.47725, -0.1526489, 2.47725, -1.1450381, 2.47725, -2.4885497, 2.47725, -5.038168
0.2922353, -0.0219883, 2.484, -0.0029907, 2.484, -1.0115356, 2.484, -0.1521606, 2.484, -0.9465649, 2.484, -1.8091604, 2.484, -4.9007635
0.2930294, -0.0209812, 2.49075, -0.0042114, 2.49075, -1.015564, 2.49075, -0.1565552, 2.49075, -0.8244275, 2.49075, -1.1832061, 2.49075, -5.1221375
0.2938235, -0.0243381, 2.4975, -0.0090332, 2.4975, -1.0120239, 2.4975, -0.1538086, 2.4975, -0.8167939, 2.4975, -0.7022901, 2.4975, -5.1603055
0.2946176, -0.0231632, 2.50425, -0.0109863, 2.50425, -1.0124512, 2.50425, -0.1555786, 2.50425, -0.8167939, 2.50425, -0.4503817, 2.50425, -5.259542
0.2954118, -0.0223239, 2.511, -0.0101929, 2.511, -1.0145264, 2.511, -0.1541138, 2.511, -0.5877863, 2.511, -0.2977099, 2.511, -5.4580154
0.2962059, -0.0206455, 2.51775, -0.0072632, 2.51775, -1.008667, 2.51775, -0.1555176, 2.51775, -0.4656489, 2.51775, -0.1526718, 2.51775, -5.5725193
0.297, -0.0179599, 2.5245, -0.0090942, 2.5245, -1.0076904, 2.5245, -0.1530151, 2.5245, -0.351145, 2.5245, -0.0534351, 2.5245, -5.7175574
0.2977941, -0.0151064, 2.53125, -0.0114136, 2.53125, -1.0081787, 2.53125, -0.1497192, 2.53125, -0.3053435, 2.53125, 0.1755725, 2.53125, -5.7862597
0.2985882, -0.0109102, 2.538, -0.0145874, 2.538, -1.006897, 2.538, -0.1516724, 2.538, -0.4351145, 2.538, 0.1908397, 2.538, -5.9312978
0.2993824, -0.0082246, 2.54475, -0.0102539, 2.54475, -1.0067749, 2.54475, -0.1525879, 2.54475, -0.2442748, 2.54475, 0.3435115, 2.54475, -6.2366414
0.3001765, -0.0068818, 2.5515, -0.0006714, 2.5515, -1.0064697, 2.5515, -0.1535034, 2.5515, -0.1450382, 2.5515, 0.2061069, 2.5515, -6.1908398
0.3009706, -0.0038605, 2.55825, 0.0053101, 2.55825, -1.0030518, 2.55825, -0.1537476, 2.55825, 0.0229008, 2.55825, 0.870229, 2.55825, -6.1908398
0.3017647, -0.0045319, 2.565, 0.0057373, 2.565, -1.0033569, 2.565, -0.1547241, 2.565, 0.0839695, 2.565, 1.8625954, 2.565, -6.3282442
0.3025588, -0.0015106, 2.57175, -0.0009766, 2.57175, -1.0065308, 2.57175, -0.1558228, 2.57175, 0.1755725, 2.57175, 2.7099237, 2.57175, -6.4122138
0.3033529, 0.0008392, 2.5785, -0.0067139, 2.5785, -1.0084229, 2.5785, -0.1513672, 2.5785, 0.2366412, 2.5785, 3.2671757, 2.5785, -6.3129773
0.3041471, -0.0015106, 2.58525, -0.005188, 2.58525, -1.008728, 2.58525, -0.1472778, 2.58525, 0.2900763, 2.58525, 3.0534351, 2.58525, -6.3511453
0.3049412, -0.0072175, 2.592, -0.0002441, 2.592, -1.010498, 2.592, -0.147583, 2.592, 0.6412213, 2.592, 3.2977099, 2.592, -6.2290077
0.3057353, -0.0095674, 2.59875, 0.0053711, 2.59875, -1.0083008, 2.59875, -0.1430664, 2.59875, 0.6183206, 2.59875, 3.778626, 2.59875, -6.2519083
0.3065294, -0.0149386, 2.6055, -0.0003052, 2.6055, -1.0061646, 2.6055, -0.1394653, 2.6055, 0.8931298, 2.6055, 4.6717558, 2.6055, -6.1603055
0.3073235, -0.0236667, 2.61225, -0.0042725, 2.61225, -1.0079956, 2.61225, -0.1416626, 2.61225, 0.9847328, 2.61225, 4.4198475, 2.61225, -5.9541984
0.3081176, -0.0229953, 2.619, -0.0074463, 2.619, -1.0050659, 2.619, -0.1430054, 2.619, 0.9236641, 2.619, 3.9007633, 2.619, -6.3435116
0.3089118, -0.0236667, 2.62575, -0.0061646, 2.62575, -1.008667, 2.62575, -0.1401978, 2.62575, 1.1374046, 2.62575, 3.2977099, 2.62575, -6.4503818
0.3097059, -0.0283665, 2.6325, -0.0067749, 2.6325, -1.012207, 2.6325, -0.1390991, 2.6325, 0.9465649, 2.6325, 2.8320611, 2.6325, -6.6183205
0.3105, -0.0290379, 2.63925, -0.0045166, 2.63925, -1.0092773, 2.63925, -0.1422119, 2.63925, 0.7099237, 2.63925, 2.5648854, 2.63925, -6.740458
0.3112941, -0.0263523, 2.646, -6.1E-05, 2.646, -1.0081787, 2.646, -0.1436157, 2.646, 0.9389313, 2.646, 2.648855, 2.646, -6.6641221
0.3120882, -0.0219883, 2.65275, 0.0025024, 2.65275, -1.0053711, 2.65275, -0.1450806, 2.65275, 1.0687023, 2.65275, 2.8473282, 2.65275, -6.5954199
0.3128824, -0.018967, 2.6595, 0.0030518, 2.6595, -1.0032349, 2.6595, -0.1471558, 2.6595, 1.0610687, 2.6595, 3.2290077, 2.6595, -6.8167939
0.3136765, -0.0149386, 2.66625, 0.0010986, 2.66625, -1.0007324, 2.66625, -0.1461792, 2.66625, 0.8931298, 2.66625, 3.5496182, 2.66625, -6.7175574
0.3144706, -0.0142672, 2.673, 0.0028076, 2.673, -1.0029907, 2.673, -0.1453857, 2.673, 1, 2.673, 3.9465649, 2.673, -6.7862597
0.3152647, -0.0139315, 2.67975, 0.0021362, 2.67975, -1.0045166, 2.67975, -0.1513062, 2.67975, 1.0610687, 2.67975, 4.1908398, 2.67975, -6.7022901
0.3160588, -0.0075532, 2.6865, 0.0009766, 2.6865, -1.0061646, 2.6865, -0.1489868, 2.6865, 1.1221374, 2.6865, 4.3740458, 2.6865, -6.5572519
0.3168529, -0.0038605, 2.69325, -0.0010376, 2.69325, -1.0081787, 2.69325, -0.1505737, 2.69325, 1.2061069, 2.69325, 4.3740458, 2.69325, -6.9389315
0.3176471, -0.0028534, 2.7, 0.0019531, 2.7, -1.0092773, 2.7, -0.1501465, 2.7, 1.389313, 2.7, 4.1374044, 2.7, -6.6717558
0.3184412, -0.0005035, 2.70675, 0.0039062, 2.70675, -1.0072021, 2.70675, -0.145874, 2.70675, 1.5801526, 2.70675, 3.7557251, 2.70675, -6.7328243
0.3192353, 0.0005035, 2.7135, 0.0059204, 2.7135, -1.0084839, 2.7135, -0.145752, 2.7135, 1.7862595, 2.7135, 3.351145, 2.7135, -6.7557254
0.3200294, 0.0001678, 2.72025, 0.00177, 2.72025, -1.007019, 2.72025, -0.1461182, 2.72025, 1.778626, 2.72025, 2.9236641, 2.72025, -7.0763359
0.3208235, -0.0062104, 2.727, -0.0007935, 2.727, -1.0055542, 2.727, -0.1434326, 2.727, 1.6564885, 2.727, 2.3282442, 2.727, -6.9847326
0.3216176, -0.0102388, 2.73375, 0.0009155, 2.73375, -1.006897, 2.73375, -0.1415405, 2.73375, 1.648855, 2.73375, 1.7633588, 2.73375, -7.2137403
0.3224118, -0.0139315, 2.7405, 0.0064087, 2.7405, -1.0056152, 2.7405, -0.1430054, 2.7405, 1.6793894, 2.7405, 1.3435115, 2.7405, -7.2900763
0.3232059, -0.0135958, 2.74725, 0.0054321, 2.74725, -1.0053101, 2.74725, -0.1380615, 2.74725, 1.648855, 2.74725, 1.2442749, 2.74725, -7.1679387
0.324, -0.018967, 2.754, 0.0030518, 2.754, -1.0020752, 2.754, -0.1362915, 2.754, 1.480916, 2.754, 0.9923664, 2.754, -7.1908398
0.3247941, -0.0204776, 2.76075, 0.0032959, 2.76075, -1.0056763, 2.76075, -0.1373291, 2.76075, 1.4885496, 2.76075, 0.908397, 2.76075, -7.2977099
0.3255882, -0.0219883, 2.7675, 0.0016479, 2.7675, -1.0021362, 2.7675, -0.1359253, 2.7675, 1.3740458, 2.7675, 0.4732825, 2.7675, -7.3282442
0.3263824, -0.0276951, 2.77425, 0.0011597, 2.77425, -0.9976807, 2.77425, -0.1342163, 2.77425, 1.0687023, 2.77425, 0.1450382, 2.77425, -7.4351144
0.3271765, -0.0265202, 2.781, 0.005249, 2.781, -1.0050049, 2.781, -0.1317749, 2.781, 0.8778626, 2.781, 0.0839695, 2.781, -7.4885497
0.3279706, -0.0273594, 2.78775, 0.0078735, 2.78775, -1.0021362, 2.78775, -0.1376343, 2.78775, 0.4885496, 2.78775, 0.4961832, 2.78775, -7.6106873
0.3287647, -0.0318914, 2.7945, 0.0037842, 2.7945, -1.0037231, 2.7945, -0.1342163, 2.7945, 0.1450382, 2.7945, 0.4122137, 2.7945, -7.2519083
0.3295588, -0.0307164, 2.80125, 0.0031738, 2.80125, -1.0113525, 2.80125, -0.1366577, 2.80125, 0.0381679, 2.80125, 0.4351145, 2.80125, -7.2137403
0.3303529, -0.0293736, 2.808, 0.0098267, 2.808, -1.008606, 2.808, -0.1389771, 2.808, -0.0305344, 2.808, -0.1679389, 2.808, -7.3587785
0.3311471, -0.0256809, 2.81475, 0.0122681, 2.81475, -1.0066528, 2.81475, -0.1390381, 2.81475, 0.0229008, 2.81475, -0.5496183, 2.81475, -7.1832061
0.3319412, -0.0204776, 2.8215, 0.0148315, 2.8215, -1.0067749, 2.8215, -0.1415405, 2.8215, 0.0610687, 2.8215, -0.9465649, 2.8215, -7.2900763
0.3327353, -0.0119173, 2.82825, 0.0125732, 2.82825, -1.005249, 2.82825, -0.1397705, 2.82825, 0.221374, 2.82825, -0.9465649, 2.82825, -7.2137403
0.3335294, -0.0028534, 2.835, 0.0194092, 2.835, -1.0078125, 2.835, -0.1380615, 2.835, 0.389313, 2.835, -1.129771, 2.835, -7.3129773
0.3343235, 0.0011749, 2.84175, 0.0171509, 2.84175, -1.0073853, 2.84175, -0.1401978, 2.84175, 0.519084, 2.84175, -1.5419847, 2.84175, -7.3129773
0.3351176, 0.0048676, 2.8485, 0.0183716, 2.8485, -1.0054932, 2.8485, -0.1416016, 2.8485, 0.5801527, 2.8485, -1.8549619, 2.8485, -7.3053436
0.3359118, 0.005539, 2.85525, 0.0231934, 2.85525, -1.0074463, 2.85525, -0.144043, 2.85525, 0.6870229, 2.85525, -2.2824428, 2.85525, -7.3664122
0.3367059, 0.0031891, 2.862, 0.019165, 2.862, -1.0067139, 2.862, -0.1436768, 2.862, 0.8244275, 2.862, -2.0076337, 2.862, -7.3511453
0.3375, -0.0008392, 2.86875, 0.0196533, 2.86875, -1.0079956, 2.86875, -0.1442261, 2.86875, 0.6259542, 2.86875, -2.0076337, 2.86875, -7.2290077
0.3382941, -0.0052033, 2.8755, 0.0178833, 2.8755, -1.005249, 2.8755, -0.1387939, 2.8755, 0.4656489, 2.8755, -2.2900763, 2.8755, -7.0610685
0.3390882, -0.0095674, 2.88225, 0.0230103, 2.88225, -1.0055542, 2.88225, -0.1403809, 2.88225, 0.7633588, 2.88225, -2.480916, 2.88225, -7.1755724
0.3398824, -0.0179599, 2.889, 0.0233154, 2.889, -1.0025024, 2.889, -0.1445923, 2.889, 0.8091603, 2.889, -2.6259542, 2.889, -7.0916033
0.3406765, -0.0169528, 2.89575, 0.0209961, 2.89575, -1.0033569, 2.89575, -0.1412354, 2.89575, 0.7480916, 2.89575, -2.480916, 2.89575, -7.2671757
0.3414706, -0.0176242, 2.9025, 0.022644, 2.9025, -1.0067139, 2.9025, -0.1416016, 2.9025, 0.7557252, 2.9025, -2.2900763, 2.9025, -7.1679387
0.3422647, -0.0229953, 2.90925, 0.0211182, 2.90925, -1.0120239, 2.90925, -0.1461182, 2.90925, 0.7557252, 2.90925, -2.2137403, 2.90925, -7.0839696
0.3430588, -0.0246738, 2.916, 0.0222168, 2.916, -1.0080566, 2.916, -0.145752, 2.916, 0.961832, 2.916, -2.2900763, 2.916, -6.9694657
0.3438529, -0.0236667, 2.92275, 0.0217285, 2.92275, -1.0075684, 2.92275, -0.1453857, 2.92275, 1.0992366, 2.92275, -2.2366412, 2.92275, -7.0763359
0.3446471, -0.0203098, 2.9295, 0.0247803, 2.9295, -1.006897, 2.9295, -0.1487427, 2.9295, 1.2290076, 2.9295, -2.1832061, 2.9295, -6.9312978
0.3454412, -0.0223239, 2.93625, 0.0274048, 2.93625, -1.0068359, 2.93625, -0.1533813, 2.93625, 1.259542, 2.93625, -1.8091604, 2.93625, -6.8473282
0.3462353, -0.0203098, 2.943, 0.0214233, 2.943, -1.0044556, 2.943, -0.1511841, 2.943, 1.259542, 2.943, -1.1832061, 2.943, -6.7709923
0.3470294, -0.0135958, 2.94975, 0.0203857, 2.94975, -1.0105591, 2.94975, -0.1501465, 2.94975, 1.3664122, 2.94975, -1.2137405, 2.94975, -6.7557254
0.3478235, -0.0119173, 2.9565, 0.0210571, 2.9565, -1.0126343, 2.9565, -0.1471558, 2.9565, 1.3435115, 2.9565, -0.9541985, 2.9565, -6.8473282
0.3486176, -0.0135958, 2.96325, 0.0206299, 2.96325, -1.0123901, 2.96325, -0.1490479, 2.96325, 1.3664122, 2.96325, -1.1603054, 2.96325, -6.8854961
0.3494118, -0.0090639, 2.97, 0.022583, 2.97, -1.0093384, 2.97, -0.147583, 2.97, 1.4961832, 2.97, -0.9312977, 2.97, -6.8549619
0.3502059, -0.0036927, 2.97675, 0.0284424, 2.97675, -1.0061646, 2.97675, -0.1463013, 2.97675, 1.2977099, 2.97675, -1.0152671, 2.97675, -6.8778625
0.351, -0.0041962, 2.9835, 0.0320435, 2.9835, -1.0038452, 2.9835, -0.1420288, 2.9835, 1.2900764, 2.9835, -0.740458, 2.9835, -6.6641221
0.3517941, -0.0038605, 2.99025, 0.0343628, 2.99025, -1.0045166, 2.99025, -0.1446533, 2.99025, 1.480916, 2.99025, -0.6030535, 2.99025, -6.7328243
0.3525882, -0.0025177, 2.997, 0.0363159, 2.997, -1.0073853, 2.997, -0.1451416, 2.997, 1.648855, 2.997, -0.351145, 2.997, -6.6106873
0.3533824, -0.0057069, 3.00375, 0.0394897, 3.00375, -1.0062866, 3.00375, -0.1448975, 3.00375, 1.6870229, 3.00375, -0.2137405, 3.00375, -6.6106873
0.3541765, -0.0072175, 3.0105, 0.0391846, 3.0105, -1.0073853, 3.0105, -0.1505737, 3.0105, 1.870229, 3.0105, -0.4503817, 3.0105, -6.6106873
0.3549706, -0.0130922, 3.01725, 0.0352173, 3.01725, -1.00177, 3.01725, -0.1477661, 3.01725, 1.519084, 3.01725, -0.2442748, 3.01725, -6.4885497
0.3557647, -0.0229953, 3.024, 0.0326538, 3.024, -1.001709, 3.024, -0.1442871, 3.024, 1.2671756, 3.024, 0.1221374, 3.024, -6.5648856
0.3565588, -0.0250095, 3.03075, 0.0254517, 3.03075, -1.0020752, 3.03075, -0.1417847, 3.03075, 1.3053435, 3.03075, 0.0992366, 3.03075, -6.4503818
0.3573529, -0.0248417, 3.0375, 0.0206299, 3.0375, -1.0039062, 3.0375, -0.1418457, 3.0375, 0.961832, 3.0375, -0.0534351, 3.0375, -6.2824426
0.3581471, -0.0250095, 3.04425, 0.0220337, 3.04425, -1.0022583, 3.04425, -0.1369019, 3.04425, 0.9694657, 3.04425, -0.4351145, 3.04425, -6.2671757
0.3589412, -0.0273594, 3.051, 0.026001, 3.051, -1.0054321, 3.051, -0.1315308, 3.051, 0.8015267, 3.051, -0.7099237, 3.051, -6.4503818
0.3597353, -0.0270237, 3.05775, 0.0345459, 3.05775, -1.0023804, 3.05775, -0.1363525, 3.05775, 0.8931298, 3.05775, -0.7175573, 3.05775, -6.2748094
0.3605294, -0.03122, 3.0645, 0.0379028, 3.0645, -0.9995728, 3.0645, -0.1389771, 3.0645, 0.740458, 3.0645, -0.480916, 3.0645, -6.259542
0.3613235, -0.0303807, 3.07125, 0.0352783, 3.07125, -1.0010376, 3.07125, -0.1394653, 3.07125, 0.4045801, 3.07125, 0.221374, 3.07125, -6.2748094
0.3621176, -0.0246738, 3.078, 0.0333862, 3.078, -1.0032349, 3.078, -0.1399536, 3.078, 0.2290076, 3.078, 0.9770992, 3.078, -6.038168
0.3629118, -0.0229953, 3.08475, 0.0333252, 3.08475, -1.0062256, 3.08475, -0.1410522, 3.08475, 0.1603053, 3.08475, 1.4427481, 3.08475, -6.0076337
0.3637059, -0.0203098, 3.0915, 0.0335083, 3.0915, -1.0032959, 3.0915, -0.1403198, 3.0915, 0.0076336, 3.0915, 1.7328244, 3.0915, -6.0152674
0.3645, -0.0209812, 3.09825, 0.0336914, 3.09825, -1.0014038, 3.09825, -0.1378174, 3.09825, -0.129771, 3.09825, 2.129771, 3.09825, -5.7938933
0.3652941, -0.0149386, 3.105, 0.0293579, 3.105, -1.0029297, 3.105, -0.1382446, 3.105, 0.0381679, 3.105, 2.3587787, 3.105, -5.6641221
0.3660882, -0.0102388, 3.11175, 0.0283203, 3.11175, -1.0077515, 3.11175, -0.138916, 3.11175, 0.0458015, 3.11175, 2.3587787, 3.11175, -5.8091602
0.3668824, -0.0058747, 3.1185, 0.0341797, 3.1185, -1.0109863, 3.1185, -0.1435547, 3.1185, 0.0839695, 3.1185, 2.6030533, 3.1185, -5.7099237
0.3676765, -0.0008392, 3.12525, 0.0352173, 3.12525, -1.0068359, 3.12525, -0.1472168, 3.12525, -0.1450382, 3.12525, 2.3206108, 3.12525, -5.7099237
0.3684706, 0.0011749, 3.132, 0.0402222, 3.132, -1.0099487, 3.132, -0.1461182, 3.132, -0.1145038, 3.132, 2.1984732, 3.132, -5.6870227
0.3692647, -0.0031891, 3.13875, 0.0420532, 3.13875, -1.0059814, 3.13875, -0.1472168, 3.13875, 0.0229008, 3.13875, 2.2366412, 3.13875, -5.740458
0.3700588, -0.0035248, 3.1455, 0.0418091, 3.1455, -1.0024414, 3.1455, -0.1515503, 3.1455, -0.0458015, 3.1455, 2.4427481, 3.1455, -5.7175574
0.3708529, -0.0068818, 3.15225, 0.0388794, 3.15225, -1.0065918, 3.15225, -0.1509399, 3.15225, -0.0916031, 3.15225, 2.5877862, 3.15225, -5.6335878
0.3716471, -0.0068818, 3.159, 0.0404053, 3.159, -1.0061646, 3.159, -0.1511841, 3.159, -0.0763359, 3.159, 2.6793892, 3.159, -5.6946564
0.3724412, -0.0135958, 3.16575, 0.039978, 3.16575, -1.0041504, 3.16575, -0.1513672, 3.16575, -0.0687023, 3.16575, 2.4656489, 3.16575, -5.5725193
0.3732353, -0.018967, 3.1725, 0.0424805, 3.1725, -1.0075073, 3.1725, -0.1516113, 3.1725, -0.2366412, 3.1725, 2.5343511, 3.1725, -5.5114503
0.3740294, -0.0206455, 3.17925, 0.041687, 3.17925, -1.0032959, 3.17925, -0.1582642, 3.17925, -0.4961832, 3.17925, 3.5419848, 3.17925, -5.5877862
0.3748235, -0.0256809, 3.186, 0.0410767, 3.186, -1.0012817, 3.186, -0.1555176, 3.186, -0.5725191, 3.186, 4.1450381, 3.186, -5.3358779
0.3756176, -0.0253452, 3.19275, 0.0372925, 3.19275, -1.0023804, 3.19275, -0.152832, 3.19275, -0.7022901, 3.19275, 4.6412215, 3.19275, -5.2290077
0.3764118, -0.0238346, 3.1995, 0.0333252, 3.1995, -1.007019, 3.1995, -0.1505737, 3.1995, -0.8778626, 3.1995, 5.2748094, 3.1995, -5.0763359
0.3772059, -0.0238346, 3.20625, 0.0267334, 3.20625, -1.0021973, 3.20625, -0.1480713, 3.20625, -0.8320611, 3.20625, 5.4580154, 3.20625, -5.2290077
0.378, -0.0270237, 3.213, 0.0255737, 3.213, -1.0043945, 3.213, -0.1465454, 3.213, -0.6946565, 3.213, 5.4580154, 3.213, -5.2977099
0.3787941, -0.0270237, 3.21975, 0.0246582, 3.21975, -1.0039673, 3.21975, -0.1460571, 3.21975, -0.6793893, 3.21975, 5.3969464, 3.21975, -5.2748094
0.3795882, -0.0263523, 3.2265, 0.0256958, 3.2265, -1.0009766, 3.2265, -0.1464233, 3.2265, -0.3740458, 3.2265, 5.1832061, 3.2265, -5.3435116
0.3803824, -0.0199741, 3.23325, 0.0267944, 3.23325, -1.0010376, 3.23325, -0.1445312, 3.23325, -0.3816794, 3.23325, 4.8625956, 3.23325, -5.4427481
0.3811765, -0.0152743, 3.24, 0.0327759, 3.24, -1.0037842, 3.24, -0.1494141, 3.24, -0.2824427, 3.24, 4.4885497, 3.24, -5.4351144
0.3819706, -0.0129244, 3.24675, 0.0349121, 3.24675, -1.0048218, 3.24675, -0.145752, 3.24675, -0.0381679, 3.24675, 4.7633586, 3.24675, -5.5725193
0.3827647, -0.005539, 3.2535, 0.0344849, 3.2535, -1.0054321, 3.2535, -0.1445312, 3.2535, 0.2442748, 3.2535, 4.3129773, 3.2535, -5.4961834
0.3835588, -0.0036927, 3.26025, 0.0351562, 3.26025, -1.0083618, 3.26025, -0.1499634, 3.26025, 0.2748092, 3.26025, 4.1145039, 3.26025, -5.6183205
0.3843529, -0.0041962, 3.267, 0.0386963, 3.267, -1.0032959, 3.267, -0.1502686, 3.267, 0.5038168, 3.267, 4.038168, 3.267, -5.8091602
0.3851471, -0.0052033, 3.27375, 0.0357056, 3.27375, -1.0046387, 3.27375, -0.1461182, 3.27375, 0.3587786, 3.27375, 3.9770992, 3.27375, -5.9312978
0.3859412, -0.0010071, 3.2805, 0.0350952, 3.2805, -1.0053101, 3.2805, -0.1497803, 3.2805, 0.2366412, 3.2805, 3.6412213, 3.2805, -5.9236641
0.3867353, -0.0031891, 3.28725, 0.0358887, 3.28725, -1.0011597, 3.28725, -0.1481934, 3.28725, 0.4961832, 3.28725, 3.4961832, 3.28725, -6.0458016
0.3875294, -0.0018463, 3.294, 0.0343628, 3.294, -1.0072021, 3.294, -0.1439209, 3.294, 0.4656489, 3.294, 3.1908398, 3.294, -6.0305343
0.3883235, -0.0028534, 3.30075, 0.031189, 3.30075, -1.0065308, 3.30075, -0.1452026, 3.30075, 0.6183206, 3.30075, 2.870229, 3.30075, -5.7862597
0.3891176, -0.0075532, 3.3075, 0.034729, 3.3075, -1.0011597, 3.3075, -0.1503296, 3.3075, 0.4580153, 3.3075, 2.6183207, 3.3075, -5.961832
0.3899118, -0.0152743, 3.31425, 0.0388184, 3.31425, -0.9998169, 3.31425, -0.151123, 3.31425, 0.1755725, 3.31425, 2.2366412, 3.31425, -6.1221375
0.3907059, -0.0194705, 3.321, 0.0375977, 3.321, -1.0009766, 3.321, -0.1495972, 3.321, 0.4961832, 3.321, 2.1450381, 3.321, -6.1297708
0.3915, -0.0224918, 3.32775, 0.0365601, 3.32775, -1.0020752, 3.32775, -0.1446533, 3.32775, 0.351145, 3.32775, 1.7938931, 3.32775, -6.0992365
0.3922941, -0.0250095, 3.3345, 0.0349731, 3.3345, -1.0016479, 3.3345, -0.145874, 3.3345, 0.3435115, 3.3345, 1.4274809, 3.3345, -6.221374
0.3930882, -0.0265202, 3.34125, 0.0348511, 3.34125, -1.0025024, 3.34125, -0.145752, 3.34125, 0.259542, 3.34125, 0.9694657, 3.34125, -6.2290077
0.3938824, -0.0260166, 3.348, 0.0373535, 3.348, -1.0029297, 3.348, -0.1455688, 3.348, 0.3816794, 3.348, 0.2748092, 3.348, -6.1374044
0.3946765, -0.0246738, 3.35475, 0.0394287, 3.35475, -1.0110474, 3.35475, -0.1429443, 3.35475, 0.2137405, 3.35475, -0.2366412, 3.35475, -6.2671757
0.3954706, -0.0199741, 3.3615, 0.0465698, 3.3615, -1.0080566, 3.3615, -0.1436157, 3.3615, 0.1221374, 3.3615, -0.5801527, 3.3615, -6.2290077
0.3962647, -0.0229953, 3.36825, 0.0450439, 3.36825, -1.0073853, 3.36825, -0.1443481, 3.36825, -0.0305344, 3.36825, -0.9541985, 3.36825, -6.1679387
0.3970588, -0.0223239, 3.375, 0.0448608, 3.375, -1.0100098, 3.375, -0.1430054, 3.375, 0.1145038, 3.375, -1.0610687, 3.375, -6.1603055
0.3978529, -0.0149386, 3.38175, 0.0494385, 3.38175, -1.0062256, 3.38175, -0.1421509, 3.38175, 0.0305344, 3.38175, -1.1984733, 3.38175, -6.221374
0.3986471, -0.0092317, 3.3885, 0.0464478, 3.3885, -1.0056152, 3.3885, -0.1433716, 3.3885, -0.0992366, 3.3885, -1.3740458, 3.3885, -6.1984735
0.3994412, -0.0043641, 3.39525, 0.0463867, 3.39525, -1.0062866, 3.39525, -0.1453857, 3.39525, -0.2290076, 3.39525, -1.5114504, 3.39525, -6.1145039
0.4002353, -0.0015106, 3.402, 0.0452881, 3.402, -1.0081177, 3.402, -0.1425171, 3.402, -0.2366412, 3.402, -1.6335878, 3.402, -6.1374044
0.4010294, 0.002182, 3.40875, 0.0480957, 3.40875, -1.0101318, 3.40875, -0.1470337, 3.40875, -0.3740458, 3.40875, -2.0076337, 3.40875, -6.1908398
0.4018235, 0.0011749, 3.4155, 0.0465698, 3.4155, -1.0101318, 3.4155, -0.1471558, 3.4155, -0.4503817, 3.4155, -2.4274809, 3.4155, -6.0992365
0.4026176, -0.0005035, 3.42225, 0.0523682, 3.42225, -1.0061646, 3.42225, -0.1507568, 3.42225, -0.5572519, 3.42225, -2.8091602, 3.42225, -6.0916033
0.4034118, -0.0011749, 3.429, 0.0563354, 3.429, -1.0048218, 3.429, -0.1580811, 3.429, -0.7175573, 3.429, -2.8625953, 3.429, -5.8473282
0.4042059, -0.0001678, 3.43575, 0.0577393, 3.43575, -1.0063477, 3.43575, -0.1559448, 3.43575, -0.9389313, 3.43575, -2.7328243, 3.43575, -5.9312978
0.405, -0.0075532, 3.4425, 0.0579224, 3.4425, -1.0065918, 3.4425, -0.1560059, 3.4425, -1.1068702, 3.4425, -2.9389312, 3.4425, -5.7938933
0.4057941, -0.0129244, 3.44925, 0.0568237, 3.44925, -1.0080566, 3.44925, -0.161438, 3.44925, -0.8244275, 3.44925, -2.6717558, 3.44925, -5.7099237
0.4065882, -0.0135958, 3.456, 0.0626831, 3.456, -1.0075684, 3.456, -0.1681519, 3.456, -0.5725191, 3.456, -2.5725191, 3.456, -5.5419846
0.4073824, -0.01561, 3.46275, 0.0611572, 3.46275, -1.0076904, 3.46275, -0.1624756, 3.46275, -0.3587786, 3.46275, -1.9160305, 3.46275, -5.3740458
0.4081765, -0.0209812, 3.4695, 0.0613403, 3.4695, -1.0078125, 3.4695, -0.1594849, 3.4695, -0.0687023, 3.4695, -1.1145039, 3.4695, -5.3740458
0.4089706, -0.0201419, 3.47625, 0.059082, 3.47625, -1.0039673, 3.47625, -0.164856, 3.47625, 0.0763359, 3.47625, -0.8091603, 3.47625, -5.1374044
0.4097647, -0.0199741, 3.483, 0.0612793, 3.483, -1.0044556, 3.483, -0.1650391, 3.483, -0.0534351, 3.483, -0.3206107, 3.483, -5.1679387
0.4105588, -0.023331, 3.48975, 0.0581665, 3.48975, -0.9987183, 3.48975, -0.1654663, 3.48975, 0.0381679, 3.48975, -0.0305344, 3.48975, -5.0305343
0.4113529, -0.0240024, 3.4965, 0.0584106, 3.4965, -1, 3.4965, -0.1635742, 3.4965, 0.0839695, 3.4965, 0.3664122, 3.4965, -5.0152674
0.4121471, -0.0263523, 3.50325, 0.053833, 3.50325, -0.9980469, 3.50325, -0.1607056, 3.50325, 0.3358779, 3.50325, 0.9236641, 3.50325, -4.9770994
0.4129412, -0.0280308, 3.51, 0.0494385, 3.51, -0.9966431, 3.51, -0.1567383, 3.51, 0.3282443, 3.51, 1.2442749, 3.51, -4.9389315
0.4137353, -0.0223239, 3.51675, 0.0441895, 3.51675, -0.9981079, 3.51675, -0.152832, 3.51675, 0.1755725, 3.51675, 0.8854962, 3.51675, -4.8854961
0.4145294, -0.0186313, 3.5235, 0.0405884, 3.5235, -0.9943848, 3.5235, -0.152832, 3.5235, -0.1374046, 3.5235, 1.2900764, 3.5235, -4.8931298
0.4153235, -0.0191348, 3.53025, 0.0378418, 3.53025, -0.9943848, 3.53025, -0.1444702, 3.53025, -0.2519084, 3.53025, 1.1145039, 3.53025, -4.8625956
0.4161176, -0.0139315, 3.537, 0.038208, 3.537, -0.9984741, 3.537, -0.1490479, 3.537, -0.4198473, 3.537, 1.2442749, 3.537, -5.0305343
0.4169118, -0.0082246, 3.54375, 0.0385132, 3.54375, -1.0010986, 3.54375, -0.1496582, 3.54375, -0.5877863, 3.54375, 1.0687023, 3.54375, -5.0458016
0.4177059, -0.0008392, 3.5505, 0.0383911, 3.5505, -0.9985962, 3.5505, -0.1499634, 3.5505, -0.480916, 3.5505, 0.7709923, 3.5505, -5.1297708
0.4185, 0.0015106, 3.55725, 0.0390625, 3.55725, -1.0038452, 3.55725, -0.1531372, 3.55725, -0.3206107, 3.55725, 0.8396947, 3.55725, -5.2366414
0.4192941, -0.0001678, 3.564, 0.0444946, 3.564, -1.0078125, 3.564, -0.1517334, 3.564, -0.1679389, 3.564, 0.3435115, 3.564, -5.2290077
0.4200882, -0.0082246, 3.57075, 0.0535889, 3.57075, -1.008606, 3.57075, -0.1570435, 3.57075, 0.1526718, 3.57075, 0.3587786, 3.57075, -5.259542
0.4208824, -0.0082246, 3.5775, 0.0548706, 3.5775, -1.0029907, 3.5775, -0.1599121, 3.5775, 0.2824427, 3.5775, 1.0076336, 3.5775, -5.1755724
0.4216765, -0.0085603, 3.58425, 0.0526123, 3.58425, -1.0054932, 3.58425, -0.1601562, 3.58425, 0.3435115, 3.58425, 1.3740458, 3.58425, -5.1068702
0.4224706, -0.0130922, 3.591, 0.0507812, 3.591, -1.0050659, 3.591, -0.1575928, 3.591, 0.1603053, 3.591, 1.6335878, 3.591, -5.1526718
0.4232647, -0.0191348, 3.59775, 0.050293, 3.59775, -1.0061646, 3.59775, -0.1589966, 3.59775, 0.2290076, 3.59775, 1.519084, 3.59775, -5.1526718
0.4240588, -0.0206455, 3.6045, 0.0474243, 3.6045, -1.0056763, 3.6045, -0.1541138, 3.6045, 0.0839695, 3.6045, 1.0534351, 3.6045, -5.3053436
0.4248529, -0.0213169, 3.61125, 0.0496216, 3.61125, -1.0044556, 3.61125, -0.1503906, 3.61125, 0.1221374, 3.61125, 0.908397, 3.61125, -5.3435116
0.4256471, -0.0243381, 3.618, 0.0475464, 3.618, -1.0018311, 3.618, -0.1505127, 3.618, 0.2519084, 3.618, 0.2442748, 3.618, -5.4961834
0.4264412, -0.0256809, 3.62475, 0.0498657, 3.62475, -1.0001221, 3.62475, -0.1480713, 3.62475, -0.0687023, 3.62475, -0.0076336, 3.62475, -5.4656487
0.4272353, -0.0253452, 3.6315, 0.0507812, 3.6315, -0.9993896, 3.6315, -0.1483765, 3.6315, -0.1908397, 3.6315, 0.4503817, 3.6315, -5.3358779
0.4280294, -0.026688, 3.63825, 0.0530396, 3.63825, -1.0020142, 3.63825, -0.149231, 3.63825, -0.8854962, 3.63825, 0.2977099, 3.63825, -5.3358779
0.4288235, -0.0260166, 3.645, 0.0514526, 3.645, -1.0021973, 3.645, -0.1537476, 3.645, -1.0229008, 3.645, 0.2977099, 3.645, -5.4351144
0.4296176, -0.0224918, 3.65175, 0.0553589, 3.65175, -0.999939, 3.65175, -0.1565552, 3.65175, -1.3740458, 3.65175, -0.0305344, 3.65175, -5.6106873
0.4304118, -0.0203098, 3.6585, 0.0578003, 3.6585, -1.0007935, 3.6585, -0.1584473, 3.6585, -1.1374046, 3.6585, -0.5801527, 3.6585, -5.5038166
0.4312059, -0.0169528, 3.66525, 0.0585938, 3.66525, -0.9987793, 3.66525, -0.1618042, 3.66525, -1.038168, 3.66525, -0.5114504, 3.66525, -5.4045801
0.432, -0.0129244, 3.672, 0.0579834, 3.672, -1.0038452, 3.672, -0.1588135, 3.672, -1.0229008, 3.672, -0.5343512, 3.672, -5.259542
0.4327941, -0.0085603, 3.67875, 0.0628662, 3.67875, -1.0048218, 3.67875, -0.1594849, 3.67875, -1.0458015, 3.67875, -0.6335878, 3.67875, -5.2900763
0.4335882, -0.0058747, 3.6855, 0.0661011, 3.6855, -1.0065918, 3.6855, -0.1694946, 3.6855, -0.8931298, 3.6855, -0.7480916, 3.6855, -5.2366414
0.4343824, -0.0038605, 3.69225, 0.0653076, 3.69225, -1.0062866, 3.69225, -0.1670532, 3.69225, -0.5496183, 3.69225, -0.3053435, 3.69225, -5.2366414
0.4351765, -0.0035248, 3.699, 0.067688, 3.699, -1.0055542, 3.699, -0.1644897, 3.699, -0.3435115, 3.699, -0.0763359, 3.699, -5.0610685
0.4359706, -0.0011749, 3.70575, 0.0639038, 3.70575, -1.0036011, 3.70575, -0.1670532, 3.70575, -0.3358779, 3.70575, 0.0687023, 3.70575, -5.0687022
0.4367647, -0.0018463, 3.7125, 0.0654297, 3.7125, -1.00177, 3.7125, -0.166626, 3.7125, -0.5343512, 3.7125, 0.7480916, 3.7125, -4.9083967
0.4375588, -0.0062104, 3.71925, 0.0608521, 3.71925, -1.0045776, 3.71925, -0.1705933, 3.71925, -0.0687023, 3.71925, 1.4961832, 3.71925, -4.7251906
0.4383529, -0.0065461, 3.726, 0.0616455, 3.726, -1.003479, 3.726, -0.1741333, 3.726, -0.0839695, 3.726, 2.4656489, 3.726, -4.6106873
0.4391471, -0.0077211, 3.73275, 0.0592651, 3.73275, -1.0015869, 3.73275, -0.1664429, 3.73275, -0.4961832, 3.73275, 2.9236641, 3.73275, -4.5038166
0.4399412, -0.0109102, 3.7395, 0.0566406, 3.7395, -1.0014648, 3.7395, -0.1692505, 3.7395, -0.4885496, 3.7395, 2.9694657, 3.7395, -4.8015265
0.4407353, -0.01561, 3.74625, 0.0544434, 3.74625, -1.0059204, 3.74625, -0.1668701, 3.74625, -0.1221374, 3.74625, 2.6564887, 3.74625, -4.6106873
0.4415294, -0.0149386, 3.753, 0.055542, 3.753, -1.005127, 3.753, -0.1616211, 3.753, 0.2061069, 3.753, 2.3816793, 3.753, -4.6946564
0.4423235, -0.0182956, 3.75975, 0.0577393, 3.75975, -1.0048218, 3.75975, -0.1625366, 3.75975, 0.259542, 3.75975, 2.2137403, 3.75975, -4.7022901
0.4431176, -0.0236667, 3.7665, 0.0613403, 3.7665, -1.0027466, 3.7665, -0.1724854, 3.7665, 0.2519084, 3.7665, 1.9007634, 3.7665, -4.7175574
0.4439118, -0.024506, 3.77325, 0.0636597, 3.77325, -1.0020142, 3.77325, -0.1716309, 3.77325, 0.2824427, 3.77325, 1.6870229, 3.77325, -4.6717558
0.4447059, -0.0191348, 3.78, 0.0643921, 3.78, -1.0036011, 3.78, -0.1652222, 3.78, 0.0381679, 3.78, 1.8778626, 3.78, -4.778626
0.4455, -0.0209812, 3.78675, 0.0631714, 3.78675, -1.0025635, 3.78675, -0.1654663, 3.78675, -0.3053435, 3.78675, 2.480916, 3.78675, -4.3816795
0.4462941, -0.0214847, 3.7935, 0.0595093, 3.7935, -0.9980469, 3.7935, -0.1612549, 3.7935, -0.8931298, 3.7935, 3.5114503, 3.7935, -4.3893127
0.4470882, -0.0176242, 3.80025, 0.055542, 3.80025, -0.9967651, 3.80025, -0.1662598, 3.80025, -1.0839695, 3.80025, 4.0763359, 3.80025, -4.3511453
0.4478824, -0.011078, 3.807, 0.057251, 3.807, -1.0007935, 3.807, -0.1660156, 3.807, -1.1603054, 3.807, 4.0992365, 3.807, -4.2748094
0.4486765, -0.0075532, 3.81375, 0.0581665, 3.81375, -1.0053101, 3.81375, -0.1595459, 3.81375, -1.0534351, 3.81375, 3.7099237, 3.81375, -4.3969464
0.4494706, -0.0082246, 3.8205, 0.0549316, 3.8205, -1.0075684, 3.8205, -0.1599121, 3.8205, -0.5419847, 3.8205, 3.129771, 3.8205, -4.3435116
0.4502647, -0.0030213, 3.82725, 0.0582275, 3.82725, -1.0040894, 3.82725, -0.1665039, 3.82725, 0.1526718, 3.82725, 2.610687, 3.82725, -4.2748094
0.4510588, -0.0025177, 3.834, 0.0651245, 3.834, -1.005127, 3.834, -0.1668091, 3.834, 0.5038168, 3.834, 2.8625953, 3.834, -4.5267177
0.4518529, -0.0008392, 3.84075, 0.0601196, 3.84075, -1.0056763, 3.84075, -0.1692505, 3.84075, 0.7022901, 3.84075, 2.8396947, 3.84075, -4.4351144
0.4526471, -0.0015106, 3.8475, 0.0621948, 3.8475, -1.003479, 3.8475, -0.1692505, 3.8475, 0.9847328, 3.8475, 2.5877862, 3.8475, -4.3816795
0.4534412, -0.0065461, 3.85425, 0.0587158, 3.85425, -1.0056763, 3.85425, -0.1654663, 3.85425, 1.0534351, 3.85425, 2.4656489, 3.85425, -4.3969464
0.4542353, -0.0075532, 3.861, 0.0582275, 3.861, -1.0059814, 3.861, -0.1659546, 3.861, 0.8396947, 3.861, 2.5038168, 3.861, -4.5648856
0.4550294, -0.0095674, 3.86775, 0.057312, 3.86775, -1.0056152, 3.86775, -0.1668701, 3.86775, 1, 3.86775, 2.2824428, 3.86775, -4.5343513
0.4558235, -0.0137636, 3.8745, 0.0571899, 3.8745, -1.0072632, 3.8745, -0.1604004, 3.8745, 1, 3.8745, 1.961832, 3.8745, -4.7557254
0.4566176, -0.0182956, 3.88125, 0.0609741, 3.88125, -1.0061035, 3.88125, -0.1656494, 3.88125, 1.2366412, 3.88125, 1.9312977, 3.88125, -4.9007635
0.4574118, -0.0206455, 3.888, 0.0619507, 3.888, -1.0032959, 3.888, -0.168396, 3.888, 1.2442749, 3.888, 1.4198474, 3.888, -4.8244276
0.4582059, -0.0265202, 3.89475, 0.0636597, 3.89475, -1.0028076, 3.89475, -0.1629028, 3.89475, 1.8625954, 3.89475, 1.3587786, 3.89475, -4.7557254
0.459, -0.030045, 3.9015, 0.0629883, 3.9015, -1.0026245, 3.9015, -0.1636353, 3.9015, 2.0610688, 3.9015, 1.7022901, 3.9015, -4.7709923
0.4597941, -0.0320592, 3.90825, 0.062561, 3.90825, -1.0015869, 3.90825, -0.1577759, 3.90825, 2.3129771, 3.90825, 1.5725191, 3.90825, -4.6793895
0.4605882, -0.0288701, 3.915, 0.0618286, 3.915, -1.0020752, 3.915, -0.1641846, 3.915, 2.9160306, 3.915, 1.6641221, 3.915, -4.3358779
0.4613824, -0.0313878, 3.92175, 0.0646973, 3.92175, -1.0005493, 3.92175, -0.1678467, 3.92175, 3.0076337, 3.92175, 1.6183206, 3.92175, -4.4045801
0.4621765, -0.0313878, 3.9285, 0.0630493, 3.9285, -1.0037842, 3.9285, -0.1647339, 3.9285, 2.4656489, 3.9285, 1.9236641, 3.9285, -4.3511453
0.4629706, -0.0275273, 3.93525, 0.0640259, 3.93525, -1.0016479, 3.93525, -0.163269, 3.93525, 2.2061069, 3.93525, 2.1374047, 3.93525, -4.2900763
0.4637647, -0.0223239, 3.942, 0.0653076, 3.942, -1.0028076, 3.942, -0.1593628, 3.942, 2.2442749, 3.942, 1.9923664, 3.942, -4.3664122
0.4645588, -0.0166171, 3.94875, 0.0686035, 3.94875, -1.0031738, 3.94875, -0.1616821, 3.94875, 2.3816793, 3.94875, 1.8091604, 3.94875, -4.4580154
0.4653529, -0.0139315, 3.9555, 0.0651855, 3.9555, -1.005249, 3.9555, -0.1628418, 3.9555, 2.5343511, 3.9555, 1.7022901, 3.9555, -4.3129773
0.4661471, -0.0077211, 3.96225, 0.0645142, 3.96225, -1.0061646, 3.96225, -0.1610107, 3.96225, 2.6641221, 3.96225, 1.6335878, 3.96225, -4.3664122
0.4669412, -0.0035248, 3.969, 0.0655518, 3.969, -1.0048828, 3.969, -0.1594238, 3.969, 2.8320611, 3.969, 1.0534351, 3.969, -4.3282442
0.4677353, -0.0045319, 3.97575, 0.0672607, 3.97575, -1.0054932, 3.97575, -0.1590576, 3.97575, 2.7862597, 3.97575, 0.870229, 3.97575, -4.5496182
0.4685294, -0.0028534, 3.9825, 0.0682983, 3.9825, -1.0009766, 3.9825, -0.1538696, 3.9825, 2.6259542, 3.9825, 0.6870229, 3.9825, -4.480916
0.4693235, -0.0065461, 3.98925, 0.0669556, 3.98925, -1.0048828, 3.98925, -0.1566162, 3.98925, 2.4427481, 3.98925, 0.4885496, 3.98925, -4.3435116
0.4701176, -0.0016785, 3.996, 0.0640869, 3.996, -1.0056152, 3.996, -0.1539917, 3.996, 2.3969467, 3.996, 0.3129771, 3.996, -4.3816795
0.4709118, -0.0038605, 4.00275, 0.0638428, 4.00275, -1.0039062, 4.00275, -0.1525879, 4.00275, 2.5343511, 4.00275, 0.1450382, 4.00275, -4.4961834
0.4717059, -0.0082246, 4.0095, 0.065918, 4.0095, -1.0003662, 4.0095, -0.1530762, 4.0095, 2.4122138, 4.0095, 0.1450382, 4.0095, -4.2442746
0.4725, -0.0095674, 4.01625, 0.0670166, 4.01625, -0.9985352, 4.01625, -0.1551514, 4.01625, 2.259542, 4.01625, 0.1145038, 4.01625, -4.1297708
0.4732941, -0.0127565, 4.023, 0.0683594, 4.023, -0.9985962, 4.023, -0.1498413, 4.023, 2.3664122, 4.023, 0.3129771, 4.023, -4.2671757
0.4740882, -0.0162814, 4.02975, 0.0639648, 4.02975, -0.9975586, 4.02975, -0.1541748, 4.02975, 2.4732823, 4.02975, 0.5038168, 4.02975, -4.1526718
0.4748824, -0.0199741, 4.0365, 0.0626221, 4.0365, -0.9949341, 4.0365, -0.1594238, 4.0365, 2.3740458, 4.0365, 0.4351145, 4.0365, -4.2137403
0.4756765, -0.0273594, 4.04325, 0.0620728, 4.04325, -1, 4.04325, -0.1591187, 4.04325, 1.961832, 4.04325, 0.778626, 4.04325, -4.0610685
0.4764706, -0.0271916, 4.05, 0.0621338, 4.05, -1.0032959, 4.05, -0.1578979, 4.05, 1.8549619, 4.05, 1.0229008, 4.05, -4.0839696
0.4772647, -0.0270237, 4.05675, 0.064209, 4.05675, -0.9978027, 4.05675, -0.1620483, 4.05675, 1.870229, 4.05675, 0.5648855, 4.05675, -4.0458016
0.4780588, -0.030045, 4.0635, 0.0653687, 4.0635, -0.9974365, 4.0635, -0.1599121, 4.0635, 1.7557251, 4.0635, 0.3740458, 4.0635, -4.1068702
0.4788529, -0.0270237, 4.07025, 0.0667725, 4.07025, -0.9992676, 4.07025, -0.1554565, 4.07025, 1.8015267, 4.07025, 0.6183206, 4.07025, -4.0687022
0.4796471, -0.024506, 4.077, 0.0701904, 4.077, -1.0026855, 4.077, -0.1572266, 4.077, 1.8549619, 4.077, 0.7480916, 4.077, -3.9541984
0.4804412, -0.0256809, 4.08375, 0.0753784, 4.08375, -1.005249, 4.08375, -0.1551514, 4.08375, 1.7480916, 4.08375, 0.3282443, 4.08375, -4.038168
0.4812353, -0.0194705, 4.0905, 0.0747681, 4.0905, -1.0054321, 4.0905, -0.1560059, 4.0905, 1.8015267, 4.0905, 0.3969466, 4.0905, -4.1221375
0.4820294, -0.0172885, 4.09725, 0.0760498, 4.09725, -1.0016479, 4.09725, -0.1586304, 4.09725, 1.8625954, 4.09725, 0.7251908, 4.09725, -4.0152674
0.4828235, -0.012253, 4.104, 0.072937, 4.104, -1.0026855, 4.104, -0.1575317, 4.104, 1.9541985, 4.104, 0.8549618, 4.104, -3.961832
0.4836176, -0.0062104, 4.11075, 0.0662842, 4.11075, -1.003418, 4.11075, -0.1535034, 4.11075, 1.7251909, 4.11075, 1.0458015, 4.11075, -3.7709923
0.4844118, -0.0035248, 4.1175, 0.0595703, 4.1175, -1.0037231, 4.1175, -0.1591187, 4.1175, 1.5954199, 4.1175, 0.6641222, 4.1175, -3.7709923
0.4852059, 0.002182, 4.12425, 0.0575562, 4.12425, -1.0020142, 4.12425, -0.1578369, 4.12425, 1.6870229, 4.12425, 0.0992366, 4.12425, -3.6030533
0.486, 0.0052033, 4.131, 0.0621338, 4.131, -1.0009766, 4.131, -0.1588135, 4.131, 1.5572519, 4.131, 0.1832061, 4.131, -3.6793892
0.4867941, 0.0018463, 4.13775, 0.0645142, 4.13775, -1.000061, 4.13775, -0.1569214, 4.13775, 1.6335878, 4.13775, -0.2519084, 4.13775, -3.7175572
0.4875882, -0.003357, 4.1445, 0.0690918, 4.1445, -1.003418, 4.1445, -0.1586914, 4.1445, 1.7328244, 4.1445, -0.5801527, 4.1445, -3.6564887
0.4883824, -0.0072175, 4.15125, 0.0740356, 4.15125, -1.0016479, 4.15125, -0.1618652, 4.15125, 1.8244275, 4.15125, -0.480916, 4.15125, -3.8320611
0.4891765, -0.0135958, 4.158, 0.078064, 4.158, -0.9976807, 4.158, -0.1589966, 4.158, 1.8778626, 4.158, 0.4198473, 4.158, -3.519084
0.4899706, -0.0129244, 4.16475, 0.0748901, 4.16475, -1.0006104, 4.16475, -0.1600952, 4.16475, 1.7709924, 4.16475, 0.9465649, 4.16475, -3.3816793
0.4907647, -0.0186313, 4.1715, 0.0722046, 4.1715, -0.9997559, 4.1715, -0.1616211, 4.1715, 1.8320611, 4.1715, 1.2519084, 4.1715, -3.3129771
0.4915588, -0.0243381, 4.17825, 0.0703125, 4.17825, -1.0006104, 4.17825, -0.1607666, 4.17825, 1.8473282, 4.17825, 1.6183206, 4.17825, -3.221374
0.4923529, -0.0229953, 4.185, 0.0691528, 4.185, -1.0031128, 4.185, -0.1582642, 4.185, 1.8244275, 4.185, 1.3053435, 4.185, -3.2137403
0.4931471, -0.0199741, 4.19175, 0.062561, 4.19175, -0.9993286, 4.19175, -0.1542969, 4.19175, 1.9236641, 4.19175, 1.0534351, 4.19175, -3.3053436
0.4939412, -0.0194705, 4.1985, 0.0587158, 4.1985, -1.0015259, 4.1985, -0.1561279, 4.1985, 1.5419847, 4.1985, 0.7709923, 4.1985, -3.1908398
0.4947353, -0.0199741, 4.20525, 0.0648193, 4.20525, -1.0023193, 4.20525, -0.1560059, 4.20525, 1.4045801, 4.20525, 0.2137405, 4.20525, -3.0839694
0.4955294, -0.0193027, 4.212, 0.0703735, 4.212, -1.0048218, 4.212, -0.1495361, 4.212, 1.2977099, 4.212, -0.2366412, 4.212, -3.1526718
0.4963235, -0.0224918, 4.21875, 0.0725708, 4.21875, -1.0007935, 4.21875, -0.1550903, 4.21875, 1.259542, 4.21875, -0.2671756, 4.21875, -3.2442749
0.4971176, -0.018967, 4.2255, 0.0758057, 4.2255, -0.9995117, 4.2255, -0.1573486, 4.2255, 0.8931298, 4.2255, -0.4198473, 4.2255, -3.1755726
0.4979118, -0.0162814, 4.23225, 0.0714722, 4.23225, -1.0073242, 4.23225, -0.1581421, 4.23225, 0.6564885, 4.23225, -0.4198473, 4.23225, -3.2519083
0.4987059, -0.0132601, 4.239, 0.072937, 4.239, -1.0040283, 4.239, -0.1589355, 4.239, 0.6793893, 4.239, -0.2366412, 4.239, -3.0229008
0.4995, -0.0115816, 4.24575, 0.0707397, 4.24575, -1.0015259, 4.24575, -0.1602173, 4.24575, 0.4427481, 4.24575, -0.4427481, 4.24575, -3.2137403
0.5002941, -0.0105745, 4.2525, 0.0681763, 4.2525, -1.006897, 4.2525, -0.1594849, 4.2525, 0.6259542, 4.2525, -0.1145038, 4.2525, -3.1450381
0.5010882, -0.0085603, 4.25925, 0.0665283, 4.25925, -1.00177, 4.25925, -0.1564331, 4.25925, 0.4885496, 4.25925, -0.1526718, 4.25925, -3.0534351
0.5018824, -0.0068818, 4.266, 0.0639648, 4.266, -0.9992676, 4.266, -0.1588135, 4.266, 0.5114504, 4.266, -0.4503817, 4.266, -3.0610688
0.5026765, -0.0035248, 4.27275, 0.0627441, 4.27275, -0.9959717, 4.27275, -0.1584473, 4.27275, 0.778626, 4.27275, -0.7022901, 4.27275, -3.0992367
0.5034706, -0.005539, 4.2795, 0.0614624, 4.2795, -0.9957886, 4.2795, -0.1572876, 4.2795, 0.6259542, 4.2795, -0.740458, 4.2795, -3.0152671
0.5042647, -0.0102388, 4.28625, 0.0644531, 4.28625, -0.9987793, 4.28625, -0.1599121, 4.28625, 0.4503817, 4.28625, -0.5572519, 4.28625, -2.8625953
0.5050588, -0.0129244, 4.293, 0.0638428, 4.293, -0.9984741, 4.293, -0.1559448, 4.293, 0.5648855, 4.293, -0.3740458, 4.293, -3.0610688
0.5058529, -0.0149386, 4.29975, 0.0665283, 4.29975, -0.9967041, 4.29975, -0.1546021, 4.29975, 0.5419847, 4.29975, -0.3587786, 4.29975, -2.8015268
0.5066471, -0.0213169, 4.3065, 0.067627, 4.3065, -0.9973755, 4.3065, -0.1567383, 4.3065, 0.5419847, 4.3065, -0.2061069, 4.3065, -2.8320611
0.5074412, -0.023331, 4.31325, 0.0669556, 4.31325, -0.9996338, 4.31325, -0.1560059, 4.31325, 0.5343512, 4.31325, -0.2519084, 4.31325, -2.6564887
0.5082353, -0.0290379, 4.32, 0.0664673, 4.32, -0.9985352, 4.32, -0.1547241, 4.32, 0.5343512, 4.32, -0.2519084, 4.32, -2.4885497
0.5090294, -0.0297093, 4.32675, 0.0651245, 4.32675, -0.9991455, 4.32675, -0.1556396, 4.32675, 0.7175573, 4.32675, -0.2671756, 4.32675, -2.7175572
0.5098235, -0.026688, 4.3335, 0.0696411, 4.3335, -0.998291, 4.3335, -0.1607666, 4.3335, 0.740458, 4.3335, -0.1679389, 4.3335, -2.8549619
0.5106176, -0.0270237, 4.34025, 0.0703735, 4.34025, -0.9921265, 4.34025, -0.1554565, 4.34025, 0.6717557, 4.34025, -0.3435115, 4.34025, -2.7175572
0.5114118, -0.0276951, 4.347, 0.0663452, 4.347, -0.9904785, 4.347, -0.1575317, 4.347, 0.778626, 4.347, -0.221374, 4.347, -2.5877862
0.5122059, -0.0276951, 4.35375, 0.0664673, 4.35375, -0.9866333, 4.35375, -0.1616821, 4.35375, 0.9389313, 4.35375, -0.4351145, 4.35375, -2.4503818
0.513, -0.0260166, 4.3605, 0.0684814, 4.3605, -0.9829102, 4.3605, -0.1651611, 4.3605, 1.4427481, 4.3605, -0.2900763, 4.3605, -2.4351146
0.5137941, -0.0216526, 4.36725, 0.0691528, 4.36725, -0.9767456, 4.36725, -0.1653442, 4.36725, 1.6564885, 4.36725, 0.1908397, 4.36725, -2.2290077
0.5145882, -0.0228275, 4.374, 0.0726929, 4.374, -0.9821167, 4.374, -0.1653442, 4.374, 1.9770992, 4.374, 0.1450382, 4.374, -2
0.5153824, -0.0208133, 4.38075, 0.0673828, 4.38075, -0.9962769, 4.38075, -0.164978, 4.38075, 2.0687022, 4.38075, 0.5801527, 4.38075, -1.6564885
0.5161765, -0.0073854, 4.3875, 0.0700073, 4.3875, -1.0111084, 4.3875, -0.1640015, 4.3875, 2.0076337, 4.3875, 0.8549618, 4.3875, -1.5496184
0.5169706, 0.0008392, 4.39425, 0.0714722, 4.39425, -1.0188599, 4.39425, -0.1581421, 4.39425, 2.1908398, 4.39425, 0.9847328, 4.39425, -1.7251909
0.5177647, 0.0003357, 4.401, 0.0731201, 4.401, -1.0204468, 4.401, -0.1588135, 4.401, 2.1908398, 4.401, 0.5572519, 4.401, -1.7709924
0.5185588, 0.0038605, 4.40775, 0.0784912, 4.40775, -1.0195312, 4.40775, -0.1587524, 4.40775, 2.1068702, 4.40775, 0.7175573, 4.40775, -1.5877863
0.5193529, 0.005539, 4.4145, 0.0820923, 4.4145, -1.0244141, 4.4145, -0.1537476, 4.4145, 1.9923664, 4.4145, 1.1679389, 4.4145, -1.4885496
0.5201471, 0.0011749, 4.42125, 0.0829468, 4.42125, -1.0166016, 4.42125, -0.1573486, 4.42125, 2, 4.42125, 1.5267175, 4.42125, -1.3740458
0.5209412, -0.0025177, 4.428, 0.0779419, 4.428, -1.0070801, 4.428, -0.156189, 4.428, 1.7557251, 4.428, 1.870229, 4.428, -1.3358779
0.5217353, -0.0085603, 4.43475, 0.0682983, 4.43475, -1.0042725, 4.43475, -0.1528931, 4.43475, 1.4656489, 4.43475, 2.1526718, 4.43475, -1.5496184
0.5225294, -0.0075532, 4.4415, 0.0588989, 4.4415, -1.0028687, 4.4415, -0.149353, 4.4415, 0.9007633, 4.4415, 1.8015267, 4.4415, -1.3129771
0.5233235, -0.0125887, 4.44825, 0.0499268, 4.44825, -1.0054321, 4.44825, -0.1465454, 4.44825, 0.519084, 4.44825, 1.0610687, 4.44825, -1.5648855
0.5241176, -0.0164492, 4.455, 0.0448608, 4.455, -1.0098877, 4.455, -0.1430054, 4.455, 0.3435115, 4.455, 0.1526718, 4.455, -1.5114504
0.5249118, -0.0196384, 4.46175, 0.0449829, 4.46175, -1.0160522, 4.46175, -0.1436157, 4.46175, 0.221374, 4.46175, -0.1984733, 4.46175, -1.5954199
0.5257059, -0.0250095, 4.4685, 0.0542603, 4.4685, -1.0099487, 4.4685, -0.1486206, 4.4685, -0.0763359, 4.4685, -1.3816794, 4.4685, -1.8320611
0.5265, -0.0231632, 4.47525, 0.0581665, 4.47525, -1.0055542, 4.47525, -0.1524658, 4.47525, -0.2061069, 4.47525, -1.961832, 4.47525, -1.8854961
0.5272941, -0.0209812, 4.482, 0.0638428, 4.482, -1.0072632, 4.482, -0.1546021, 4.482, -0.0610687, 4.482, -2.1450381, 4.482, -1.8778626
0.5280882, -0.0231632, 4.48875, 0.0669556, 4.48875, -1.0042725, 4.48875, -0.1586304, 4.48875, -0.1068702, 4.48875, -1.3969465, 4.48875, -1.8396946
0.5288824, -0.0283665, 4.4955, 0.067749, 4.4955, -1.0054932, 4.4955, -0.164917, 4.4955, -0.3282443, 4.4955, -0.7709923, 4.4955, -1.8320611
0.5296765, -0.023331, 4.50225, 0.0612793, 4.50225, -1.0061035, 4.50225, -0.1672363, 4.50225, -0.1603053, 4.50225, -0.1068702, 4.50225, -1.8396946
0.5304706, -0.0186313, 4.509, 0.0578003, 4.509, -1.0068359, 4.509, -0.1664429, 4.509, 0.1068702, 4.509, 0.2442748, 4.509, -1.9465649
0.5312647, -0.0176242, 4.51575, 0.0528564, 4.51575, -1.0045166, 4.51575, -0.1690063, 4.51575, -0.0152672, 4.51575, 0.129771, 4.51575, -1.8244275
0.5320588, -0.0152743, 4.5225, 0.0497437, 4.5225, -1.007019, 4.5225, -0.1712036, 4.5225, 0.3053435, 4.5225, -0.3129771, 4.5225, -2.1221373
0.5328529, -0.012253, 4.52925, 0.0523682, 4.52925, -1.0072021, 4.52925, -0.1670532, 4.52925, 0.2290076, 4.52925, -0.5419847, 4.52925, -2.2442749
0.5336471, -0.0075532, 4.536, 0.0523682, 4.536, -1.0030518, 4.536, -0.1644287, 4.536, 0.4503817, 4.536, -0.7633588, 4.536, -2.1679389
0.5344412, 0.0005035, 4.54275, 0.0557861, 4.54275, -1.0012207, 4.54275, -0.166626, 4.54275, 0.4885496, 4.54275, -0.6412213, 4.54275, -2.3282442
0.5352353, -0.0008392, 4.5495, 0.0547485, 4.5495, -1.0044556, 4.5495, -0.1680908, 4.5495, 0.3816794, 4.5495, -0.5648855, 4.5495, -2.4045801
0.5360294, -0.0001678, 4.55625, 0.0576782, 4.55625, -1.0040894, 4.55625, -0.1652222, 4.55625, 0.389313, 4.55625, -0.5725191, 4.55625, -2.4656489
0.5368235, -0.002182, 4.563, 0.0568237, 4.563, -1.0007935, 4.563, -0.1713257, 4.563, 0.8778626, 4.563, -0.6946565, 4.563, -2.351145
0.5376176, 0.0005035, 4.56975, 0.0554199, 4.56975, -0.9997559, 4.56975, -0.1732178, 4.56975, 0.9236641, 4.56975, -0.610687, 4.56975, -2.5954199
0.5384118, -0.0073854, 4.5765, 0.0569458, 4.5765, -1.0021362, 4.5765, -0.1732178, 4.5765, 0.9541985, 4.5765, -0.4351145, 4.5765, -2.5496182
0.5392059, -0.0142672, 4.58325, 0.0549927, 4.58325, -1.0054932, 4.58325, -0.1713257, 4.58325, 0.9694657, 4.58325, -0.5801527, 4.58325, -2.6641221
0.54, -0.0176242, 4.59, 0.052002, 4.59, -1.0081787, 4.59, -0.1710205, 4.59, 1.1450381, 4.59, -0.9007633, 4.59, -2.7099237
0.5407941, -0.0223239, 4.59675, 0.0543213, 4.59675, -1.0125732, 4.59675, -0.1726685, 4.59675, 1.1755725, 4.59675, -1.5419847, 4.59675, -2.8473282
0.5415882, -0.0218204, 4.6035, 0.0582275, 4.6035, -1.0114746, 4.6035, -0.1698608, 4.6035, 1.4351145, 4.6035, -1.7557251, 4.6035, -2.8015268
0.5423824, -0.0231632, 4.61025, 0.0665283, 4.61025, -1.0101929, 4.61025, -0.1673584, 4.61025, 1.4274809, 4.61025, -1.9923664, 4.61025, -2.8625953
0.5431765, -0.0193027, 4.617, 0.0713501, 4.617, -1.0109863, 4.617, -0.1694946, 4.617, 1.4503816, 4.617, -2.0229008, 4.617, -3.038168
0.5439706, -0.0186313, 4.62375, 0.0733643, 4.62375, -1.006958, 4.62375, -0.1687012, 4.62375, 1.8549619, 4.62375, -1.8396946, 4.62375, -3.0305343
0.5447647, -0.0231632, 4.6305, 0.0717773, 4.6305, -1.0029907, 4.6305, -0.168335, 4.6305, 2.1145039, 4.6305, -1.1526718, 4.6305, -2.8854961
0.5455588, -0.0186313, 4.63725, 0.0665283, 4.63725, -1.0024414, 4.63725, -0.1685791, 4.63725, 2.0610688, 4.63725, -0.4961832, 4.63725, -2.7022901
0.5463529, -0.0164492, 4.644, 0.0592651, 4.644, -0.9997559, 4.644, -0.1676025, 4.644, 1.8396946, 4.644, -0.0916031, 4.644, -2.7099237
0.5471471, -0.0142672, 4.65075, 0.0543213, 4.65075, -1.0015869, 4.65075, -0.1644897, 4.65075, 2.0839694, 4.65075, -0.2366412, 4.65075, -2.5572519
0.5479412, -0.0129244, 4.6575, 0.0502319, 4.6575, -1.0006714, 4.6575, -0.1628418, 4.6575, 2.2900763, 4.6575, -0.480916, 4.6575, -2.6183207
0.5487353, -0.0109102, 4.66425, 0.0559082, 4.66425, -0.9998169, 4.66425, -0.1636353, 4.66425, 2.3129771, 4.66425, -0.519084, 4.66425, -2.7862597
0.5495294, -0.0068818, 4.671, 0.0593872, 4.671, -1.0004272, 4.671, -0.1622314, 4.671, 2.4885497, 4.671, -0.3053435, 4.671, -2.5572519
0.5503235, -0.0068818, 4.67775, 0.0608521, 4.67775, -1.0003052, 4.67775, -0.1629028, 4.67775, 2.610687, 4.67775, 0.2061069, 4.67775, -2.4045801
0.5511176, -0.0030213, 4.6845, 0.0637817, 4.6845, -1.0043335, 4.6845, -0.1661987, 4.6845, 2.7709923, 4.6845, 0.5419847, 4.6845, -2.4732823
0.5519118, -0.0028534, 4.69125, 0.0668335, 4.69125, -1.005249, 4.69125, -0.1657715, 4.69125, 2.5725191, 4.69125, 0.870229, 4.69125, -2.3129771
0.5527059, -0.0025177, 4.698, 0.065979, 4.698, -1.0093384, 4.698, -0.1635132, 4.698, 2.8015268, 4.698, 1.1679389, 4.698, -2.4045801
0.5535, -0.0095674, 4.70475, 0.0664062, 4.70475, -1.0059204, 4.70475, -0.1644287, 4.70475, 2.7251909, 4.70475, 1.4351145, 4.70475, -2.4580152
0.5542941, -0.0102388, 4.7115, 0.0626221, 4.7115, -1.005188, 4.7115, -0.1607056, 4.7115, 2.8931298, 4.7115, 1.6335878, 4.7115, -2.3740458
0.5550882, -0.012253, 4.71825, 0.0639648, 4.71825, -1.0013428, 4.71825, -0.1604614, 4.71825, 2.870229, 4.71825, 1.7709924, 4.71825, -2.3740458
0.5558824, -0.0149386, 4.725, 0.0601807, 4.725, -1.0059814, 4.725, -0.1593628, 4.725, 2.8625953, 4.725, 2, 4.725, -2.3435113
0.5566765, -0.0172885, 4.73175, 0.0596924, 4.73175, -1.0042725, 4.73175, -0.1582642, 4.73175, 3.1145039, 4.73175, 2.1526718, 4.73175, -2.2290077
0.5574706, -0.0204776, 4.7385, 0.0574341, 4.7385, -1.0042114, 4.7385, -0.1533203, 4.7385, 2.8625953, 4.7385, 1.908397, 4.7385, -2.3816793
0.5582647, -0.0231632, 4.74525, 0.0547485, 4.74525, -1.0040894, 4.74525, -0.1518555, 4.74525, 2.6412213, 4.74525, 1.2671756, 4.74525, -2.519084
0.5590588, -0.0253452, 4.752, 0.0530396, 4.752, -1.0064087, 4.752, -0.147583, 4.752, 2.5343511, 4.752, 1.2442749, 4.752, -2.5801528
0.5598529, -0.026688, 4.75875, 0.0482788, 4.75875, -1.0047607, 4.75875, -0.1427002, 4.75875, 2.3282442, 4.75875, 0.9312977, 4.75875, -2.7175572
0.5606471, -0.0253452, 4.7655, 0.0429077, 4.7655, -1.0061646, 4.7655, -0.1434326, 4.7655, 2.1145039, 4.7655, 0.3664122, 4.7655, -2.8549619
0.5614412, -0.0260166, 4.77225, 0.0465698, 4.77225, -1.0084229, 4.77225, -0.1486206, 4.77225, 2.1908398, 4.77225, 0.0839695, 4.77225, -2.9465649
0.5622353, -0.0231632, 4.779, 0.0527954, 4.779, -1.0029297, 4.779, -0.1470337, 4.779, 2.091603, 4.779, -0.0458015, 4.779, -2.9389312
0.5630294, -0.0219883, 4.78575, 0.0517578, 4.78575, -1.0048828, 4.78575, -0.1428223, 4.78575, 1.8931298, 4.78575, -0.0152672, 4.78575, -3.038168
0.5638235, -0.0216526, 4.7925, 0.0532227, 4.7925, -1.0020752, 4.7925, -0.1433105, 4.7925, 1.351145, 4.7925, 0.4198473, 4.7925, -3.2442749
0.5646176, -0.0179599, 4.79925, 0.0528564, 4.79925, -1.0031128, 4.79925, -0.1439209, 4.79925, 1.2977099, 4.79925, 0.3816794, 4.79925, -3.0534351
0.5654118, -0.0102388, 4.806, 0.0491333, 4.806, -1.0011597, 4.806, -0.1418457, 4.806, 1.0839695, 4.806, 0.3816794, 4.806, -3.2137403
0.5662059, -0.005539, 4.81275, 0.0533447, 4.81275, -1.0003662, 4.81275, -0.1432495, 4.81275, 0.8931298, 4.81275, 0.5877863, 4.81275, -3.1221373
0.567, -0.0072175, 4.8195, 0.0542603, 4.8195, -0.9983521, 4.8195, -0.1419678, 4.8195, 0.8015267, 4.8195, 0.4885496, 4.8195, -3.1526718
0.5677941, -0.0063783, 4.82625, 0.0491943, 4.82625, -1.0001221, 4.82625, -0.1444702, 4.82625, 0.7862595, 4.82625, 0.389313, 4.82625, -3.2061069
0.5685882, -0.005539, 4.833, 0.0505371, 4.833, -0.9920044, 4.833, -0.1448975, 4.833, 0.6259542, 4.833, 0.1450382, 4.833, -3.351145
0.5693824, -0.0038605, 4.83975, 0.0550537, 4.83975, -0.9857178, 4.83975, -0.1514893, 4.83975, 0.5419847, 4.83975, -0.0076336, 4.83975, -3.5343511
0.5701765, -0.0065461, 4.8465, 0.0544434, 4.8465, -0.9889526, 4.8465, -0.1500244, 4.8465, 0.5572519, 4.8465, 0.0763359, 4.8465, -3.5038168
0.5709706, -0.0078889, 4.85325, 0.0528564, 4.85325, -0.9910889, 4.85325, -0.1549683, 4.85325, 0.5038168, 4.85325, 0.221374, 4.85325, -3.5954199
0.5717647, -0.0083925, 4.86, 0.0494995, 4.86, -0.9926147, 4.86, -0.1549683, 4.86, 0.2900763, 4.86, 0.1450382, 4.86, -3.5801528
0.5725588, -0.008896, 4.86675, 0.046814, 4.86675, -0.9942017, 4.86675, -0.1540527, 4.86675, 0.1603053, 4.86675, 0.1679389, 4.86675, -3.6717558
0.5733529, -0.0152743, 4.8735, 0.0419312, 4.8735, -1.0049438, 4.8735, -0.1548462, 4.8735, 0.0458015, 4.8735, 0.0534351, 4.8735, -3.7862597
0.5741471, -0.0187991, 4.88025, 0.0435181, 4.88025, -1.0078125, 4.88025, -0.1502686, 4.88025, -0.1450382, 4.88025, -0.2748092, 4.88025, -3.8625953
0.5749412, -0.0223239, 4.887, 0.0477295, 4.887, -1.0070801, 4.887, -0.1496582, 4.887, -0.129771, 4.887, -0.6793893, 4.887, -3.8549619
0.5757353, -0.0223239, 4.89375, 0.0495605, 4.89375, -1.0124512, 4.89375, -0.1488647, 4.89375, -0.1145038, 4.89375, -0.9694657, 4.89375, -4.2290077
0.5765294, -0.0240024, 4.9005, 0.0541992, 4.9005, -1.0165405, 4.9005, -0.1495972, 4.9005, -0.0992366, 4.9005, -1.1374046, 4.9005, -4.0992365
0.5773235, -0.0287022, 4.90725, 0.0544434, 4.90725, -1.0144043, 4.90725, -0.1503906, 4.90725, -0.0152672, 4.90725, -1.0076336, 4.90725, -4.4274807
0.5781176, -0.0229953, 4.914, 0.0549927, 4.914, -1.010437, 4.914, -0.1495972, 4.914, -0.2671756, 4.914, -1.0076336, 4.914, -4.4580154
0.5789118, -0.0199741, 4.92075, 0.0534668, 4.92075, -1.0066528, 4.92075, -0.1517334, 4.92075, -0.4351145, 4.92075, -1.0534351, 4.92075, -4.3053436
0.5797059, -0.0203098, 4.9275, 0.0516357, 4.9275, -1.0048828, 4.9275, -0.1535034, 4.9275, -0.5877863, 4.9275, -1.2061069, 4.9275, -4.5801525
0.5805, -0.0169528, 4.93425, 0.0550537, 4.93425, -0.9990234, 4.93425, -0.1575928, 4.93425, -0.7938932, 4.93425, -1.5725191, 4.93425, -4.4580154
0.5812941, -0.01561, 4.941, 0.0600586, 4.941, -0.9943848, 4.941, -0.1633911, 4.941, -0.740458, 4.941, -1.8625954, 4.941, -4.5496182
0.5820882, -0.0135958, 4.94775, 0.0614624, 4.94775, -0.994812, 4.94775, -0.1643066, 4.94775, -0.8778626, 4.94775, -2.091603, 4.94775, -4.4885497
0.5828824, -0.0068818, 4.9545, 0.0615234, 4.9545, -0.9868774, 4.9545, -0.1685181, 4.9545, -0.9007633, 4.9545, -2.4351146, 4.9545, -4.4274807
0.5836765, -0.0015106, 4.96125, 0.0626221, 4.96125, -0.9833984, 4.96125, -0.1716309, 4.96125, -0.6717557, 4.96125, -2.1221373, 4.96125, -4.4274807
0.5844706, 0.0011749, 4.968, 0.0609131, 4.968, -0.993042, 4.968, -0.1714478, 4.968, -0.5419847, 4.968, -1.8931298, 4.968, -4.4580154
0.5852647, -0.0018463, 4.97475, 0.0550537, 4.97475, -1.0084839, 4.97475, -0.171875, 4.97475, -0.3282443, 4.97475, -2.038168, 4.97475, -4.5038166
0.5860588, -0.0048676, 4.9815, 0.0527344, 4.9815, -1.0163574, 4.9815, -0.1727295, 4.9815, -0.4045801, 4.9815, -2.8396947, 4.9815, -4.480916
0.5868529, -0.0041962, 4.98825, 0.0585938, 4.98825, -1.0163574, 4.98825, -0.1720581, 4.98825, -0.3129771, 4.98825, -3.4045801, 4.98825, -4.5572519
0.5876471, -0.0048676, 4.995, 0.0715942, 4.995, -1.0112305, 4.995, -0.1681519, 4.995, 0.0152672, 4.995, -3.4732823, 4.995, -4.5954199
0.5884412, -0.0092317, 5.00175, 0.0774536, 5.00175, -1.0131226, 5.00175, -0.1663208, 5.00175, 0.3282443, 5.00175, -3.2748091, 5.00175, -4.3358779
0.5892353, -0.0115816, 5.0085, 0.0755615, 5.0085, -1.008728, 5.0085, -0.1696167, 5.0085, 0.1908397, 5.0085, -2.8625953, 5.0085, -4.2977099
0.5900294, -0.0135958, 5.01525, 0.0744629, 5.01525, -1.0087891, 5.01525, -0.1608276, 5.01525, 0.0458015, 5.01525, -1.8396946, 5.01525, -4.3358779
0.5908235, -0.0152743, 5.022, 0.0689697, 5.022, -1.0105591, 5.022, -0.1593628, 5.022, 0.0534351, 5.022, -1.610687, 5.022, -4.1068702
0.5916176, -0.0187991, 5.02875, 0.0648804, 5.02875, -1.0117798, 5.02875, -0.1542358, 5.02875, 0.0076336, 5.02875, -1.4656489, 5.02875, -4.0839696
0.5924118, -0.0196384, 5.0355, 0.0599365, 5.0355, -1.010437, 5.0355, -0.1539917, 5.0355, -0.0763359, 5.0355, -1.5954199, 5.0355, -4.038168
0.5932059, -0.0218204, 5.04225, 0.0594482, 5.04225, -1.0113525, 5.04225, -0.1560059, 5.04225, -0.389313, 5.04225, -1.8396946, 5.04225, -3.9465649
0.594, -0.0250095, 5.049, 0.0664673, 5.049, -1.0102539, 5.049, -0.1605225, 5.049, -0.3282443, 5.049, -2.1450381, 5.049, -3.778626
0.5947941, -0.0275273, 5.05575, 0.069519, 5.05575, -1.0098267, 5.05575, -0.1622925, 5.05575, -0.1145038, 5.05575, -2.091603, 5.05575, -3.648855
0.5955882, -0.0240024, 5.0625, 0.0789795, 5.0625, -1.010437, 5.0625, -0.1687012, 5.0625, -0.1068702, 5.0625, -1.5648855, 5.0625, -3.4503818
0.5963824, -0.0204776, 5.06925, 0.083313, 5.06925, -1.0064697, 5.06925, -0.1734009, 5.06925, -0.1450382, 5.06925, -0.7175573, 5.06925, -3.2824428
0.5971765, -0.0179599, 5.076, 0.0842896, 5.076, -1.0075073, 5.076, -0.1796265, 5.076, 0.2442748, 5.076, 0.1984733, 5.076, -3.1374047
0.5979706, -0.0151064, 5.08275, 0.085022, 5.08275, -1.0001221, 5.08275, -0.1818848, 5.08275, 0.351145, 5.08275, 0.7633588, 5.08275, -2.5648854
0.5987647, -0.0139315, 5.0895, 0.0778809, 5.0895, -1.0020142, 5.0895, -0.1843262, 5.0895, 0.5877863, 5.0895, 1.0458015, 5.0895, -2.6183207
0.5995588, -0.0140993, 5.09625, 0.0761719, 5.09625, -1.0031738, 5.09625, -0.1812134, 5.09625, 0.8854962, 5.09625, 1.7557251, 5.09625, -2.5267177
0.6003529, -0.0102388, 5.103, 0.0758667, 5.103, -1.0025024, 5.103, -0.1777954, 5.103, 1.091603, 5.103, 2.1068702, 5.103, -2.4580152
0.6011471, -0.0048676, 5.10975, 0.0689697, 5.10975, -0.9992065, 5.10975, -0.1771851, 5.10975, 1.2442749, 5.10975, 2.1679389, 5.10975, -2.1908398
0.6019412, -0.0038605, 5.1165, 0.0662231, 5.1165, -0.9970093, 5.1165, -0.171875, 5.1165, 1.5114504, 5.1165, 2.1526718, 5.1165, -2.2900763
0.6027353, -0.0020142, 5.12325, 0.0652466, 5.12325, -0.9966431, 5.12325, -0.1694336, 5.12325, 1.4045801, 5.12325, 1.7709924, 5.12325, -2.3053436
0.6035294, -0.0030213, 5.13, 0.064209, 5.13, -1.0015259, 5.13, -0.1663208, 5.13, 1.7557251, 5.13, 1.6946565, 5.13, -2.2900763
0.6043235, -0.0095674, 5.13675, 0.0650635, 5.13675, -0.9994507, 5.13675, -0.1635742, 5.13675, 1.6030535, 5.13675, 1.9694656, 5.13675, -2.0610688
0.6051176, -0.0125887, 5.1435, 0.0647583, 5.1435, -1.0026245, 5.1435, -0.1627197, 5.1435, 1.6717557, 5.1435, 2.129771, 5.1435, -2.1832061
0.6059118, -0.0142672, 5.15025, 0.0611572, 5.15025, -1.0057373, 5.15025, -0.1630249, 5.15025, 1.6412214, 5.15025, 2.480916, 5.15025, -2.0839694
0.6067059, -0.0172885, 5.157, 0.0614014, 5.157, -1.0072632, 5.157, -0.1628418, 5.157, 1.5877863, 5.157, 2.7557251, 5.157, -2.0534351
0.6075, -0.0246738, 5.16375, 0.0588379, 5.16375, -1.0075073, 5.16375, -0.1619873, 5.16375, 1.6335878, 5.16375, 2.8473282, 5.16375, -1.9541985
0.6082941, -0.0290379, 5.1705, 0.0567627, 5.1705, -1.008667, 5.1705, -0.163269, 5.1705, 1.5648855, 5.1705, 2.7099237, 5.1705, -2
0.6090882, -0.026688, 5.17725, 0.059082, 5.17725, -1.010498, 5.17725, -0.1674805, 5.17725, 1.8931298, 5.17725, 2.6030533, 5.17725, -2.3053436
0.6098824, -0.0219883, 5.184, 0.0582275, 5.184, -1.0097656, 5.184, -0.164978, 5.184, 1.648855, 5.184, 2.5725191, 5.184, -2.0229008
0.6106765, -0.0218204, 5.19075, 0.0546875, 5.19075, -1.0092773, 5.19075, -0.1652222, 5.19075, 1.9007634, 5.19075, 2.480916, 5.19075, -2.2824428
0.6114706, -0.0229953, 5.1975, 0.0510864, 5.1975, -1.0065308, 5.1975, -0.1644897, 5.1975, 1.8167939, 5.1975, 2.351145, 5.1975, -2.3816793
0.6122647, -0.0226596, 5.20425, 0.0513306, 5.20425, -1.0038452, 5.20425, -0.1654663, 5.20425, 1.8778626, 5.20425, 2.1984732, 5.20425, -2.610687
0.6130588, -0.0243381, 5.211, 0.050293, 5.211, -1.0023804, 5.211, -0.1653442, 5.211, 1.9312977, 5.211, 1.9465649, 5.211, -2.6183207
0.6138529, -0.0209812, 5.21775, 0.0507202, 5.21775, -1.0043335, 5.21775, -0.1657715, 5.21775, 1.9770992, 5.21775, 1.778626, 5.21775, -2.6946564
0.6146471, -0.0206455, 5.2245, 0.0515747, 5.2245, -0.9978638, 5.2245, -0.1640015, 5.2245, 1.870229, 5.2245, 1.4885496, 5.2245, -2.778626
0.6154412, -0.0129244, 5.23125, 0.0518188, 5.23125, -1.001709, 5.23125, -0.1627808, 5.23125, 1.9389313, 5.23125, 1.6717557, 5.23125, -2.7480917
0.6162353, -0.0115816, 5.238, 0.0478516, 5.238, -0.9991455, 5.238, -0.1592407, 5.238, 2.0610688, 5.238, 1.7251909, 5.238, -2.8778627
0.6170294, -0.0107424, 5.24475, 0.0498657, 5.24475, -0.9998169, 5.24475, -0.1588745, 5.24475, 2.0229008, 5.24475, 1.5954199, 5.24475, -2.9312978
0.6178235, -0.0058747, 5.2515, 0.0509033, 5.2515, -1.0021362, 5.2515, -0.1594849, 5.2515, 1.9160305, 5.2515, 1.4885496, 5.2515, -3.0534351
0.6186176, -0.003357, 5.25825, 0.0529785, 5.25825, -1.0057983, 5.25825, -0.1583862, 5.25825, 2.1221373, 5.25825, 1.1984733, 5.25825, -3.1755726
0.6194118, -0.0045319, 5.265, 0.0552979, 5.265, -1.0031128, 5.265, -0.1620483, 5.265, 1.908397, 5.265, 1.1908396, 5.265, -3.0458016
0.6202059, -0.0041962, 5.27175, 0.0587769, 5.27175, -1.0047607, 5.27175, -0.1630859, 5.27175, 1.9007634, 5.27175, 1.4732825, 5.27175, -3.1832061
0.621, -0.0129244, 5.2785, 0.0591431, 5.2785, -1.0028687, 5.2785, -0.1567383, 5.2785, 1.648855, 5.2785, 1.7251909, 5.2785, -3.0763359
0.6217941, -0.0142672, 5.28525, 0.0569458, 5.28525, -0.9996948, 5.28525, -0.1583862, 5.28525, 1.6793894, 5.28525, 1.8015267, 5.28525, -3.2137403
0.6225882, -0.0125887, 5.292, 0.0600586, 5.292, -0.9988403, 5.292, -0.1586304, 5.292, 1.5572519, 5.292, 1.7938931, 5.292, -3.129771
0.6233824, -0.0149386, 5.29875, 0.0546265, 5.29875, -1.001709, 5.29875, -0.1538696, 5.29875, 1.5496184, 5.29875, 1.5419847, 5.29875, -3.1374047
0.6241765, -0.0166171, 5.3055, 0.0560303, 5.3055, -0.9992676, 5.3055, -0.1539307, 5.3055, 1.5877863, 5.3055, 1.3053435, 5.3055, -3.3358779
0.6249706, -0.0219883, 5.31225, 0.0545044, 5.31225, -1.0010986, 5.31225, -0.1513672, 5.31225, 1.5343511, 5.31225, 1.0687023, 5.31225, -3.351145
0.6257647, -0.0224918, 5.319, 0.0571899, 5.319, -1.0031738, 5.319, -0.1536865, 5.319, 1.4351145, 5.319, 0.9236641, 5.319, -3.3358779
0.6265588, -0.0209812, 5.32575, 0.0552368, 5.32575, -1.0045776, 5.32575, -0.1568604, 5.32575, 1.3053435, 5.32575, 0.7709923, 5.32575, -3.2748091
0.6273529, -0.0203098, 5.3325, 0.0544434, 5.3325, -1.0058594, 5.3325, -0.1553955, 5.3325, 1.1755725, 5.3325, 0.7328244, 5.3325, -3.3129771
0.6281471, -0.0199741, 5.33925, 0.0526733, 5.33925, -1.0064087, 5.33925, -0.1517944, 5.33925, 1.038168, 5.33925, 0.519084, 5.33925, -3.519084
0.6289412, -0.0224918, 5.346, 0.0582886, 5.346, -1.0059814, 5.346, -0.1542969, 5.346, 0.8015267, 5.346, 0.221374, 5.346, -3.3969467
0.6297353, -0.0199741, 5.35275, 0.05896, 5.35275, -1.0028687, 5.35275, -0.1578369, 5.35275, 0.6030535, 5.35275, 0.1374046, 5.35275, -3.5419848
0.6305294, -0.0142672, 5.3595, 0.0614014, 5.3595, -1.0045776, 5.3595, -0.1555176, 5.3595, 0.6335878, 5.3595, 0.1984733, 5.3595, -3.648855
0.6313235, -0.0159457, 5.36625, 0.0613403, 5.36625, -1.0007935, 5.36625, -0.15625, 5.36625, 0.3053435, 5.36625, 0.3206107, 5.36625, -3.6946564
0.6321176, -0.0099031, 5.373, 0.0601196, 5.373, -1.0015259, 5.373, -0.1586914, 5.373, 0.3740458, 5.373, 0.3206107, 5.373, -3.5343511
0.6329118, -0.0041962, 5.37975, 0.0545044, 5.37975, -1.0023804, 5.37975, -0.1613159, 5.37975, 0.3129771, 5.37975, 0.2671756, 5.37975, -3.6030533
0.6337059, 0.0023499, 5.3865, 0.0507812, 5.3865, -1.003479, 5.3865, -0.156311, 5.3865, 0.2977099, 5.3865, 0.0610687, 5.3865, -3.9007633
0.6345, 0.0028534, 5.39325, 0.0516357, 5.39325, -0.9992065, 5.39325, -0.1593628, 5.39325, 0.4198473, 5.39325, -0.5114504, 5.39325, -3.961832
0.6352941, 0.0023499, 5.4, 0.0522461, 5.4, -0.9962158, 5.4, -0.1630859, 5.4, 0.259542, 5.4, -0.6793893, 5.4, -4.0839696
0.6360882, -0.0001678, 5.40675, 0.0541992, 5.40675, -0.9987183, 5.40675, -0.1663818, 5.40675, 0.1526718, 5.40675, -0.8778626, 5.40675, -3.8320611
0.6368824, -0.0035248, 5.4135, 0.0546265, 5.4135, -1.0006714, 5.4135, -0.1655273, 5.4135, 0.1526718, 5.4135, -0.6259542, 5.4135, -3.9389312
0.6376765, -0.0104067, 5.42025, 0.0563354, 5.42025, -1.0006104, 5.42025, -0.1657715, 5.42025, 0.1832061, 5.42025, -0.4198473, 5.42025, -3.8091602
0.6384706, -0.0149386, 5.427, 0.0594482, 5.427, -1.0045776, 5.427, -0.1647949, 5.427, 0.5419847, 5.427, -0.0916031, 5.427, -3.961832
0.6392647, -0.0213169, 5.43375, 0.0635986, 5.43375, -1.0009766, 5.43375, -0.1730347, 5.43375, 0.6259542, 5.43375, 0.1832061, 5.43375, -3.7480917
0.6400588, -0.0250095, 5.4405, 0.0668945, 5.4405, -0.9993896, 5.4405, -0.1724243, 5.4405, 0.7557252, 5.4405, 0.908397, 5.4405, -3.648855
0.6408529, -0.0231632, 5.44725, 0.0661621, 5.44725, -1.0009766, 5.44725, -0.1710815, 5.44725, 0.7633588, 5.44725, 1.519084, 5.44725, -3.7633588
0.6416471, -0.0181277, 5.454, 0.0670166, 5.454, -0.9989624, 5.454, -0.1703491, 5.454, 0.5725191, 5.454, 2.1832061, 5.454, -3.5725191
0.6424412, -0.0193027, 5.46075, 0.0662231, 5.46075, -0.991394, 5.46075, -0.1751709, 5.46075, 0.7022901, 5.46075, 2.4198472, 5.46075, -3.351145
0.6432353, -0.0263523, 5.4675, 0.0706177, 5.4675, -0.9894409, 5.4675, -0.1829224, 5.4675, 1.0992366, 5.4675, 2.5496182, 5.4675, -3.1068702
0.6440294, -0.0256809, 5.47425, 0.0727539, 5.47425, -0.9923706, 5.47425, -0.1799316, 5.47425, 1.1374046, 5.47425, 3.0229008, 5.47425, -3.1832061
0.6448235, -0.0246738, 5.481, 0.071167, 5.481, -0.9927979, 5.481, -0.1773071, 5.481, 1.1526718, 5.481, 3.7938931, 5.481, -3.0458016
0.6456176, -0.0270237, 5.48775, 0.0707397, 5.48775, -0.9984131, 5.48775, -0.1747437, 5.48775, 1.3816794, 5.48775, 4.3893127, 5.48775, -2.9312978
0.6464118, -0.0236667, 5.4945, 0.069397, 5.4945, -0.9945068, 5.4945, -0.171936, 5.4945, 1.5572519, 5.4945, 4.5954199, 5.4945, -3.0076337
0.6472059, -0.0193027, 5.50125, 0.0674438, 5.50125, -0.9938965, 5.50125, -0.1660767, 5.50125, 1.9236641, 5.50125, 4.6946564, 5.50125, -2.7328243
0.648, -0.0182956, 5.508, 0.065918, 5.508, -0.9977417, 5.508, -0.1586304, 5.508, 2.0305343, 5.508, 4.7175574, 5.508, -2.7938931
0.6487941, -0.0142672, 5.51475, 0.0565796, 5.51475, -0.9984741, 5.51475, -0.1508789, 5.51475, 1.8167939, 5.51475, 4.2061067, 5.51475, -2.7938931
0.6495882, -0.008896, 5.5215, 0.0523071, 5.5215, -1.0026245, 5.5215, -0.144104, 5.5215, 1.778626, 5.5215, 3.740458, 5.5215, -2.9541984
0.6503824, -0.0030213, 5.52825, 0.048645, 5.52825, -1.0073242, 5.52825, -0.1431885, 5.52825, 1.7862595, 5.52825, 2.870229, 5.52825, -2.9389312
0.6511765, 0.0005035, 5.535, 0.0484009, 5.535, -1.0122681, 5.535, -0.1427612, 5.535, 1.6030535, 5.535, 1.7557251, 5.535, -3.2442749
0.6519706, -0.0028534, 5.54175, 0.0512695, 5.54175, -1.0093994, 5.54175, -0.1438599, 5.54175, 1.480916, 5.54175, 0.9160305, 5.54175, -3.480916
0.6527647, -0.0043641, 5.5485, 0.0615845, 5.5485, -1.0036011, 5.5485, -0.1413574, 5.5485, 1.129771, 5.5485, 0.8091603, 5.5485, -3.3816793
0.6535588, -0.0058747, 5.55525, 0.0639038, 5.55525, -0.9976807, 5.55525, -0.1455078, 5.55525, 0.8473282, 5.55525, 0.6870229, 5.55525, -3.3740458
0.6543529, -0.0062104, 5.562, 0.0687256, 5.562, -0.9880981, 5.562, -0.1485596, 5.562, 0.7709923, 5.562, 0.8244275, 5.562, -3.259542
0.6551471, -0.0119173, 5.56875, 0.0707397, 5.56875, -0.9837646, 5.56875, -0.151123, 5.56875, 0.389313, 5.56875, 1.1832061, 5.56875, -3.0839694
0.6559412, -0.01561, 5.5755, 0.0700073, 5.5755, -0.9707642, 5.5755, -0.1553955, 5.5755, 0.1755725, 5.5755, 1.9007634, 5.5755, -2.740458
0.6567353, -0.0164492, 5.58225, 0.0719604, 5.58225, -0.9640503, 5.58225, -0.154541, 5.58225, -0.0076336, 5.58225, 2.4198472, 5.58225, -2.7557251
0.6575294, -0.0193027, 5.589, 0.0604248, 5.589, -0.9620972, 5.589, -0.1509399, 5.589, 0.0458015, 5.589, 2.6717558, 5.589, -2.480916
0.6583235, -0.0193027, 5.59575, 0.0496826, 5.59575, -0.9777832, 5.59575, -0.1433716, 5.59575, 0.0152672, 5.59575, 1.9007634, 5.59575, -2.5725191
0.6591176, -0.0199741, 5.6025, 0.0437012, 5.6025, -0.9989014, 5.6025, -0.1455078, 5.6025, 0.0152672, 5.6025, 1.0610687, 5.6025, -2.8625953
0.6599118, -0.0253452, 5.60925, 0.0406494, 5.60925, -1.022522, 5.60925, -0.1387939, 5.60925, 0.0458015, 5.60925, -0.0687023, 5.60925, -3.0610688
0.6607059, -0.0270237, 5.616, 0.0490112, 5.616, -1.0457764, 5.616, -0.1403809, 5.616, -0.2748092, 5.616, -1.4122137, 5.616, -3.0839694
0.6615, -0.0250095, 5.62275, 0.0639648, 5.62275, -1.0489502, 5.62275, -0.1459351, 5.62275, -0.2137405, 5.62275, -2.480916, 5.62275, -3.038168
0.6622941, -0.0203098, 5.6295, 0.0814819, 5.6295, -1.0422363, 5.6295, -0.1494141, 5.6295, -0.4198473, 5.6295, -2.6870229, 5.6295, -3.129771
0.6630882, -0.0203098, 5.63625, 0.0895386, 5.63625, -1.0356445, 5.63625, -0.1554565, 5.63625, -0.6870229, 5.63625, -2.4122138, 5.63625, -3.0458016
0.6638824, -0.0191348, 5.643, 0.0857544, 5.643, -1.0183716, 5.643, -0.1517334, 5.643, -1.0687023, 5.643, -1.0839695, 5.643, -2.9389312
0.6646765, -0.01561, 5.64975, 0.0792236, 5.64975, -1.0142822, 5.64975, -0.1505127, 5.64975, -1.7099236, 5.64975, -0.0152672, 5.64975, -2.6870229
0.6654706, -0.0132601, 5.6565, 0.0618896, 5.6565, -1.0057983, 5.6565, -0.1447144, 5.6565, -2.2671757, 5.6565, 0.1984733, 5.6565, -2.5343511
0.6662647, -0.0099031, 5.66325, 0.0550537, 5.66325, -1.0025635, 5.66325, -0.1400146, 5.66325, -2.5801528, 5.66325, -0.0839695, 5.66325, -2.5954199
0.6670588, -0.002182, 5.67, 0.0448608, 5.67, -1.0040283, 5.67, -0.1400146, 5.67, -2.8854961, 5.67, -1.3816794, 5.67, -2.5343511
0.6678529, -0.0001678, 5.67675, 0.0452881, 5.67675, -0.9984131, 5.67675, -0.1386719, 5.67675, -3.2671757, 5.67675, -2.7480917, 5.67675, -2.740458
0.6686471, 0.0005035, 5.6835, 0.0454712, 5.6835, -0.99646, 5.6835, -0.1511841, 5.6835, -3.5496182, 5.6835, -4.1297708, 5.6835, -2.5496182
0.6694412, 0.0011749, 5.69025, 0.0551147, 5.69025, -0.9941406, 5.69025, -0.15802, 5.69025, -3.7557251, 5.69025, -5.1984735, 5.69025, -2.7022901
0.6702353, -0.0030213, 5.697, 0.0615845, 5.697, -0.9946289, 5.697, -0.1680298, 5.697, -3.7862597, 5.697, -5.4503818, 5.697, -2.648855
0.6710294, -0.0030213, 5.70375, 0.0654297, 5.70375, -0.9941406, 5.70375, -0.1831665, 5.70375, -3.8396947, 5.70375, -5.6335878, 5.70375, -2.6717558
0.6718235, -0.0052033, 5.7105, 0.0700073, 5.7105, -0.9991455, 5.7105, -0.1924438, 5.7105, -3.7175572, 5.7105, -5.4122138, 5.7105, -2.5114503
0.6726176, -0.0068818, 5.71725, 0.072937, 5.71725, -1.0042114, 5.71725, -0.1966553, 5.71725, -3.3053436, 5.71725, -4.6335878, 5.71725, -2.2748091
0.6734118, -0.0095674, 5.724, 0.0727539, 5.724, -1.0056152, 5.724, -0.1981812, 5.724, -2.8931298, 5.724, -3.7709923, 5.724, -2.1984732
0.6742059, -0.012253, 5.73075, 0.0750122, 5.73075, -1.0043945, 5.73075, -0.2015381, 5.73075, -2.5496182, 5.73075, -2.7709923, 5.73075, -1.9694656
0.675, -0.01561, 5.7375, 0.0792847, 5.7375, -1.0071411, 5.7375, -0.2052612, 5.7375, -2.4045801, 5.7375, -1.3664122, 5.7375, -1.7022901
0.6757941, -0.0172885, 5.74425, 0.0762329, 5.74425, -1.0056152, 5.74425, -0.1973267, 5.74425, -1.9007634, 5.74425, -0.3129771, 5.74425, -1.5496184
0.6765882, -0.0229953, 5.751, 0.0766602, 5.751, -1.0038452, 5.751, -0.1941528, 5.751, -1.6030535, 5.751, 0.8625954, 5.751, -1.2748091
