Application:, Trigno Discover (1.7.0)
Date/Time:, 2026/9/9 上午 10:42:25
Collection Length (seconds):, 42.093
Avanti Sensor 11 (69574)
sensor mode: 50
EMG 1 Time Series (s), EMG 1 (mV), ACC X Time Series (s), ACC X (G), ACC Y Time Series (s), ACC Y (G), ACC Z Time Series (s), ACC Z (G), GYRO X Time Series (s), GYRO X (deg/s), GYRO Y Time Series (s), GYRO Y (deg/s), GYRO Z Time Series (s), GYRO Z (deg/s)
, 1259.2593 Hz, , 148.1481 Hz, , 148.1481 Hz, , 148.1481 Hz, , 148.1481 Hz, , 148.1481 Hz, , 148.1481 Hz
0, -0.0011749, 0, -0.0186157, 0, -1.0039062, 0, -0.147522, 0, 2.2366412, 0, 1.2061069, 0, -3.0687022
0.0007941, -0.0031891, 0.00675, -0.0167236, 0.00675, -1.0013428, 0.00675, -0.1433716, 0.00675, 2.4045801, 0.00675, 1.1908396, 0.00675, -3.2061069
0.0015882, -0.0045319, 0.0135, -0.0288086, 0.0135, -1.0032349, 0.0135, -0.1462402, 0.0135, 2.3664122, 0.0135, 0.8091603, 0.0135, -2.9389312
0.0023824, -0.0018463, 0.02025, -0.0305176, 0.02025, -1.0032349, 0.02025, -0.149353, 0.02025, 2.1832061, 0.02025, 0.351145, 0.02025, -3.0458016
0.0031765, -0.0018463, 0.027, -0.0310669, 0.027, -1.0054321, 0.027, -0.1445312, 0.027, 2.2061069, 0.027, 0.1832061, 0.027, -3.1603053
0.0039706, -0.0041962, 0.03375, -0.0266113, 0.03375, -1.0042114, 0.03375, -0.1411743, 0.03375, 2.1450381, 0.03375, -0.0534351, 0.03375, -2.9694657
0.0047647, -0.012253, 0.0405, -0.0239258, 0.0405, -1.0049438, 0.0405, -0.1434937, 0.0405, 2.0687022, 0.0405, -0.0229008, 0.0405, -3.1145039
0.0055588, -0.0176242, 0.04725, -0.0244751, 0.04725, -1.0040894, 0.04725, -0.1448364, 0.04725, 2.091603, 0.04725, -0.3129771, 0.04725, -3.2519083
0.0063529, -0.0142672, 0.054, -0.0244141, 0.054, -1.0031738, 0.054, -0.1497192, 0.054, 1.961832, 0.054, -0.1145038, 0.054, -2.9236641
0.0071471, -0.0152743, 0.06075, -0.0211182, 0.06075, -0.9997559, 0.06075, -0.1455078, 0.06075, 1.6412214, 0.06075, 0.1221374, 0.06075, -2.961832
0.0079412, -0.0182956, 0.0675, -0.0206299, 0.0675, -1.007019, 0.0675, -0.1469727, 0.0675, 1.6259542, 0.0675, 0.1374046, 0.0675, -3.0839694
0.0087353, -0.0139315, 0.07425, -0.0218506, 0.07425, -1.005249, 0.07425, -0.1456299, 0.07425, 1.5419847, 0.07425, 0.1068702, 0.07425, -3.0152671
0.0095294, -0.0095674, 0.081, -0.0215454, 0.081, -1.0062866, 0.081, -0.1482544, 0.081, 1.519084, 0.081, 0.1221374, 0.081, -2.9770992
0.0103235, -0.0095674, 0.08775, -0.020874, 0.08775, -1.0021973, 0.08775, -0.1452026, 0.08775, 1.5877863, 0.08775, 0.2366412, 0.08775, -2.9312978
0.0111176, -0.0124208, 0.0945, -0.0187378, 0.0945, -1.0043335, 0.0945, -0.1469727, 0.0945, 1.6564885, 0.0945, 0.3435115, 0.0945, -2.8549619
0.0119118, -0.01561, 0.10125, -0.017395, 0.10125, -1.0021973, 0.10125, -0.1477661, 0.10125, 1.7480916, 0.10125, 0.3129771, 0.10125, -3.1068702
0.0127059, -0.0125887, 0.108, -0.0137939, 0.108, -1.0021973, 0.108, -0.1502075, 0.108, 1.6030535, 0.108, 0.1450382, 0.108, -2.9923663
0.0135, -0.0132601, 0.11475, -0.0130005, 0.11475, -1.0021362, 0.11475, -0.1455078, 0.11475, 1.3587786, 0.11475, 0.1908397, 0.11475, -3.0839694
0.0142941, -0.0129244, 0.1215, -0.0123901, 0.1215, -1.0021973, 0.1215, -0.1453247, 0.1215, 1.351145, 0.1215, 0.6412213, 0.1215, -2.7328243
0.0150882, -0.0105745, 0.12825, -0.0153198, 0.12825, -1.0048828, 0.12825, -0.145874, 0.12825, 1.3435115, 0.12825, 0.9007633, 0.12825, -2.7022901
0.0158824, -0.0095674, 0.135, -0.0164185, 0.135, -1.0064697, 0.135, -0.1439819, 0.135, 1.4732825, 0.135, 1.1068702, 0.135, -2.6946564
0.0166765, -0.0095674, 0.14175, -0.0172729, 0.14175, -1.0083618, 0.14175, -0.1392822, 0.14175, 1.6335878, 0.14175, 1.1450381, 0.14175, -2.7709923
0.0174706, -0.0105745, 0.1485, -0.0222778, 0.1485, -1.0019531, 0.1485, -0.1431885, 0.1485, 1.4656489, 0.1485, 1.351145, 0.1485, -2.9312978
0.0182647, -0.012253, 0.15525, -0.0231323, 0.15525, -1.0046387, 0.15525, -0.1470947, 0.15525, 1.3206106, 0.15525, 1.0687023, 0.15525, -2.8091602
0.0190588, -0.0149386, 0.162, -0.0238647, 0.162, -1.0061035, 0.162, -0.1499023, 0.162, 1.3587786, 0.162, 1.1068702, 0.162, -2.8091602
0.0198529, -0.0193027, 0.16875, -0.0215454, 0.16875, -1.0056763, 0.16875, -0.1466064, 0.16875, 1.5725191, 0.16875, 1.0458015, 0.16875, -2.7938931
0.0206471, -0.0216526, 0.1755, -0.0213623, 0.1755, -1.0048218, 0.1755, -0.145813, 0.1755, 1.5954199, 0.1755, 0.9007633, 0.1755, -2.908397
0.0214412, -0.0182956, 0.18225, -0.0238037, 0.18225, -1.0066528, 0.18225, -0.1455078, 0.18225, 1.4503816, 0.18225, 0.9160305, 0.18225, -2.6717558
0.0222353, -0.0191348, 0.189, -0.0238647, 0.189, -1.0045166, 0.189, -0.1469727, 0.189, 1.4580153, 0.189, 1.0305344, 0.189, -2.7938931
0.0230294, -0.0213169, 0.19575, -0.0229492, 0.19575, -1.0056152, 0.19575, -0.1497192, 0.19575, 1.2748091, 0.19575, 0.8473282, 0.19575, -2.5877862
0.0238235, -0.0236667, 0.2025, -0.0198364, 0.2025, -1.003418, 0.2025, -0.1482544, 0.2025, 1.3282443, 0.2025, 0.4656489, 0.2025, -2.5954199
0.0246176, -0.0243381, 0.20925, -0.0186768, 0.20925, -1.0053711, 0.20925, -0.1467896, 0.20925, 1.259542, 0.20925, 0.4885496, 0.20925, -2.6564887
0.0254118, -0.0229953, 0.216, -0.0178223, 0.216, -1.0066528, 0.216, -0.1463623, 0.216, 1.1068702, 0.216, 0.389313, 0.216, -2.8015268
0.0262059, -0.018967, 0.22275, -0.0164185, 0.22275, -1.0095825, 0.22275, -0.1453857, 0.22275, 0.9541985, 0.22275, 0.7480916, 0.22275, -2.4885497
0.027, -0.0149386, 0.2295, -0.0162354, 0.2295, -1.0080566, 0.2295, -0.1463013, 0.2295, 0.8473282, 0.2295, 0.9847328, 0.2295, -2.6259542
0.0277941, -0.01561, 0.23625, -0.0174561, 0.23625, -1.0067749, 0.23625, -0.1455078, 0.23625, 0.9236641, 0.23625, 0.519084, 0.23625, -2.6717558
0.0285882, -0.018967, 0.243, -0.0188599, 0.243, -1.0072021, 0.243, -0.1383057, 0.243, 0.8320611, 0.243, 0.4732825, 0.243, -2.5954199
0.0293824, -0.0182956, 0.24975, -0.0224609, 0.24975, -1.0078735, 0.24975, -0.1430664, 0.24975, 0.8854962, 0.24975, 0.7022901, 0.24975, -2.5419848
0.0301765, -0.0169528, 0.2565, -0.0203247, 0.2565, -1.0059204, 0.2565, -0.1471558, 0.2565, 1.1450381, 0.2565, 1.1221374, 0.2565, -2.4351146
0.0309706, -0.0174563, 0.26325, -0.0183105, 0.26325, -1.005188, 0.26325, -0.1532593, 0.26325, 1.091603, 0.26325, 1.221374, 0.26325, -2.6259542
0.0317647, -0.0152743, 0.27, -0.0205078, 0.27, -1.005188, 0.27, -0.149231, 0.27, 0.9160305, 0.27, 1.0458015, 0.27, -2.519084
0.0325588, -0.0151064, 0.27675, -0.022522, 0.27675, -1.003418, 0.27675, -0.1517944, 0.27675, 0.8167939, 0.27675, 0.8931298, 0.27675, -2.6030533
0.0333529, -0.01561, 0.2835, -0.0253296, 0.2835, -1.0045166, 0.2835, -0.1442261, 0.2835, 0.7480916, 0.2835, 0.961832, 0.2835, -2.7328243
0.0341471, -0.0179599, 0.29025, -0.024231, 0.29025, -1.0073242, 0.29025, -0.1450806, 0.29025, 0.8625954, 0.29025, 0.9007633, 0.29025, -2.6259542
0.0349412, -0.0179599, 0.297, -0.0262451, 0.297, -1.0028076, 0.297, -0.149292, 0.297, 1.1908396, 0.297, 0.9923664, 0.297, -2.4198472
0.0357353, -0.0159457, 0.30375, -0.0230103, 0.30375, -1.0048828, 0.30375, -0.1459961, 0.30375, 1.221374, 0.30375, 0.9160305, 0.30375, -2.5496182
0.0365294, -0.0137636, 0.3105, -0.0234375, 0.3105, -1.0048218, 0.3105, -0.1446533, 0.3105, 1.0839695, 0.3105, 0.8015267, 0.3105, -2.5343511
0.0373235, -0.0169528, 0.31725, -0.0237427, 0.31725, -1.0053711, 0.31725, -0.1463013, 0.31725, 0.961832, 0.31725, 0.7862595, 0.31725, -2.4580152
0.0381176, -0.0171206, 0.324, -0.024292, 0.324, -1.0074463, 0.324, -0.1483154, 0.324, 1.0763359, 0.324, 0.9007633, 0.324, -2.5038168
0.0389118, -0.0149386, 0.33075, -0.0275879, 0.33075, -1.0076294, 0.33075, -0.1451416, 0.33075, 1.1526718, 0.33075, 0.8549618, 0.33075, -2.6183207
0.0397059, -0.0169528, 0.3375, -0.0240479, 0.3375, -1.0056763, 0.3375, -0.1465454, 0.3375, 1.1984733, 0.3375, 0.9236641, 0.3375, -2.5877862
0.0405, -0.0172885, 0.34425, -0.024353, 0.34425, -1.0056763, 0.34425, -0.1480103, 0.34425, 1.2824427, 0.34425, 0.8625954, 0.34425, -2.6946564
0.0412941, -0.0169528, 0.351, -0.0254517, 0.351, -1.0042725, 0.351, -0.1453857, 0.351, 1.3282443, 0.351, 0.8778626, 0.351, -2.6183207
0.0420882, -0.0132601, 0.35775, -0.0249023, 0.35775, -1.0085449, 0.35775, -0.1499023, 0.35775, 1.2366412, 0.35775, 0.7099237, 0.35775, -2.5343511
0.0428824, -0.0124208, 0.3645, -0.0272217, 0.3645, -1.0085449, 0.3645, -0.1506348, 0.3645, 1.2137405, 0.3645, 0.5114504, 0.3645, -2.6183207
0.0436765, -0.01561, 0.37125, -0.0220947, 0.37125, -1.0075073, 0.37125, -0.1477051, 0.37125, 1.1755725, 0.37125, 0.6335878, 0.37125, -2.4885497
0.0444706, -0.0147707, 0.378, -0.0206909, 0.378, -1.0074463, 0.378, -0.1466675, 0.378, 1.0458015, 0.378, 0.4732825, 0.378, -2.6259542
0.0452647, -0.01561, 0.38475, -0.0230713, 0.38475, -1.0044556, 0.38475, -0.1452026, 0.38475, 0.9847328, 0.38475, 0.5954198, 0.38475, -2.3969467
0.0460588, -0.0193027, 0.3915, -0.0235596, 0.3915, -1.0056763, 0.3915, -0.1466675, 0.3915, 0.8549618, 0.3915, 0.5954198, 0.3915, -2.351145
0.0468529, -0.0182956, 0.39825, -0.0222778, 0.39825, -1.0028076, 0.39825, -0.147522, 0.39825, 0.6793893, 0.39825, 0.7480916, 0.39825, -2.4885497
0.0476471, -0.0129244, 0.405, -0.0222168, 0.405, -1.0046997, 0.405, -0.1467285, 0.405, 0.7251908, 0.405, 0.6259542, 0.405, -2.7175572
0.0484412, -0.012253, 0.41175, -0.0231323, 0.41175, -1.0059814, 0.41175, -0.1516724, 0.41175, 0.778626, 0.41175, 0.7480916, 0.41175, -2.5572519
0.0492353, -0.0119173, 0.4185, -0.0236816, 0.4185, -1.0061646, 0.4185, -0.1490479, 0.4185, 0.7480916, 0.4185, 0.7709923, 0.4185, -2.480916
0.0500294, -0.0083925, 0.42525, -0.0229492, 0.42525, -1.0050659, 0.42525, -0.1471558, 0.42525, 0.7633588, 0.42525, 0.9694657, 0.42525, -2.4732823
0.0508235, -0.0083925, 0.432, -0.0238647, 0.432, -1.0064087, 0.432, -0.1495972, 0.432, 0.7251908, 0.432, 1.2977099, 0.432, -2.519084
0.0516176, -0.0095674, 0.43875, -0.026001, 0.43875, -1.0018921, 0.43875, -0.147522, 0.43875, 0.7633588, 0.43875, 1.0229008, 0.43875, -2.4351146
0.0524118, -0.0031891, 0.4455, -0.0289917, 0.4455, -1.0022583, 0.4455, -0.1450195, 0.4455, 0.9160305, 0.4455, 1.1679389, 0.4455, -2.4732823
0.0532059, -0.0058747, 0.45225, -0.0280762, 0.45225, -1.0062256, 0.45225, -0.1450806, 0.45225, 0.7175573, 0.45225, 0.8320611, 0.45225, -2.4122138
0.054, -0.0132601, 0.459, -0.0280762, 0.459, -1.0059204, 0.459, -0.147583, 0.459, 0.9770992, 0.459, 0.8854962, 0.459, -2.5572519
0.0547941, -0.0172885, 0.46575, -0.0245972, 0.46575, -1.0067749, 0.46575, -0.1496582, 0.46575, 0.961832, 0.46575, 0.870229, 0.46575, -2.648855
0.0555882, -0.0184634, 0.4725, -0.024353, 0.4725, -1.0064697, 0.4725, -0.1489258, 0.4725, 0.7633588, 0.4725, 0.8473282, 0.4725, -2.5877862
0.0563824, -0.0176242, 0.47925, -0.0230103, 0.47925, -1.0078735, 0.47925, -0.1498413, 0.47925, 1.1526718, 0.47925, 1.0305344, 0.47925, -2.3435113
0.0571765, -0.0172885, 0.486, -0.0252686, 0.486, -1.0062866, 0.486, -0.1509399, 0.486, 1.2671756, 0.486, 1.1679389, 0.486, -2.5648854
0.0579706, -0.0186313, 0.49275, -0.0267334, 0.49275, -1.0102539, 0.49275, -0.1481934, 0.49275, 1.2061069, 0.49275, 1.1221374, 0.49275, -2.4885497
0.0587647, -0.0139315, 0.4995, -0.0291748, 0.4995, -1.0046387, 0.4995, -0.1501465, 0.4995, 1.259542, 0.4995, 1.0229008, 0.4995, -2.7022901
0.0595588, -0.0129244, 0.50625, -0.0284424, 0.50625, -1.0029297, 0.50625, -0.1512451, 0.50625, 0.9007633, 0.50625, 0.8091603, 0.50625, -2.7022901
0.0603529, -0.0179599, 0.513, -0.0302124, 0.513, -1.0060425, 0.513, -0.149231, 0.513, 0.9389313, 0.513, 1, 0.513, -2.6030533
0.0611471, -0.018967, 0.51975, -0.0274048, 0.51975, -1.0062256, 0.51975, -0.1505127, 0.51975, 1.0992366, 0.51975, 0.9236641, 0.51975, -2.5725191
0.0619412, -0.0216526, 0.5265, -0.0278931, 0.5265, -1.007019, 0.5265, -0.1497803, 0.5265, 1.2748091, 0.5265, 0.8320611, 0.5265, -2.6717558
0.0627353, -0.0164492, 0.53325, -0.0301514, 0.53325, -1.0058594, 0.53325, -0.147583, 0.53325, 1.2671756, 0.53325, 1, 0.53325, -2.7022901
0.0635294, -0.0135958, 0.54, -0.0253906, 0.54, -1.0059814, 0.54, -0.1489258, 0.54, 0.8167939, 0.54, 0.9770992, 0.54, -2.6717558
0.0643235, -0.0117494, 0.54675, -0.0238647, 0.54675, -1.0046997, 0.54675, -0.1469727, 0.54675, 1.0305344, 0.54675, 1.3129771, 0.54675, -2.6335878
0.0651176, -0.008896, 0.5535, -0.0255127, 0.5535, -1.0038452, 0.5535, -0.1507568, 0.5535, 1.1145039, 0.5535, 1.2900764, 0.5535, -2.5572519
0.0659118, -0.0082246, 0.56025, -0.0276489, 0.56025, -1.0050659, 0.56025, -0.149292, 0.56025, 1.1068702, 0.56025, 1.091603, 0.56025, -2.610687
0.0667059, -0.0048676, 0.567, -0.0288086, 0.567, -1.0036011, 0.567, -0.1448364, 0.567, 1.2748091, 0.567, 1.0610687, 0.567, -2.6946564
0.0675, -0.0070497, 0.57375, -0.0272827, 0.57375, -1.0050049, 0.57375, -0.1439819, 0.57375, 1.3816794, 0.57375, 1.1984733, 0.57375, -2.6412213
0.0682941, -0.014435, 0.5805, -0.0255127, 0.5805, -1.0042114, 0.5805, -0.1479492, 0.5805, 1.2977099, 0.5805, 1.1832061, 0.5805, -2.6259542
0.0690882, -0.0159457, 0.58725, -0.0258789, 0.58725, -1.0029907, 0.58725, -0.1531372, 0.58725, 1.4274809, 0.58725, 1.4198474, 0.58725, -2.7557251
0.0698824, -0.0157778, 0.594, -0.0275879, 0.594, -1.0046997, 0.594, -0.1524658, 0.594, 1.4045801, 0.594, 1.1832061, 0.594, -2.6564887
0.0706765, -0.0157778, 0.60075, -0.0285645, 0.60075, -1.0082397, 0.60075, -0.1484375, 0.60075, 1.1145039, 0.60075, 1.2900764, 0.60075, -2.6335878
0.0714706, -0.0159457, 0.6075, -0.0336914, 0.6075, -1.0062256, 0.6075, -0.1436157, 0.6075, 1.1832061, 0.6075, 1.1755725, 0.6075, -2.7328243
0.0722647, -0.0176242, 0.61425, -0.03302, 0.61425, -1.0056152, 0.61425, -0.1429443, 0.61425, 1.0992366, 0.61425, 1.2290076, 0.61425, -2.6564887
0.0730588, -0.0166171, 0.621, -0.0268555, 0.621, -1.0049438, 0.621, -0.1460571, 0.621, 0.9770992, 0.621, 1.038168, 0.621, -2.6870229
0.0738529, -0.0151064, 0.62775, -0.0284424, 0.62775, -1.0055542, 0.62775, -0.1503296, 0.62775, 1.1526718, 0.62775, 0.908397, 0.62775, -2.5877862
0.0746471, -0.0154421, 0.6345, -0.0283813, 0.6345, -1.0064697, 0.6345, -0.1442871, 0.6345, 0.9541985, 0.6345, 0.9770992, 0.6345, -2.6946564
0.0754412, -0.01561, 0.64125, -0.024231, 0.64125, -1.0071411, 0.64125, -0.1453857, 0.64125, 0.9541985, 0.64125, 0.7862595, 0.64125, -2.7175572
0.0762353, -0.0167849, 0.648, -0.0240479, 0.648, -1.0054932, 0.648, -0.1474609, 0.648, 1.2137405, 0.648, 1.0229008, 0.648, -2.6641221
0.0770294, -0.0176242, 0.65475, -0.0241699, 0.65475, -1.0054932, 0.65475, -0.1483154, 0.65475, 1.2442749, 0.65475, 1.0534351, 0.65475, -2.648855
0.0778235, -0.0179599, 0.6615, -0.0248413, 0.6615, -1.0059814, 0.6615, -0.1499634, 0.6615, 1.2671756, 0.6615, 0.9312977, 0.6615, -2.8320611
0.0786176, -0.0149386, 0.66825, -0.0276489, 0.66825, -1.0076294, 0.66825, -0.1490479, 0.66825, 1.3435115, 0.66825, 0.9236641, 0.66825, -2.8091602
0.0794118, -0.01561, 0.675, -0.0308838, 0.675, -1.0033569, 0.675, -0.1500854, 0.675, 1.2061069, 0.675, 1.1145039, 0.675, -2.6793892
0.0802059, -0.0137636, 0.68175, -0.0344238, 0.68175, -1.006958, 0.68175, -0.1463013, 0.68175, 1.0229008, 0.68175, 1.1068702, 0.68175, -2.7099237
0.081, -0.0129244, 0.6885, -0.031311, 0.6885, -1.0050049, 0.6885, -0.1494751, 0.6885, 1, 0.6885, 0.7938932, 0.6885, -2.8320611
0.0817941, -0.01561, 0.69525, -0.0318604, 0.69525, -1.0043945, 0.69525, -0.1495361, 0.69525, 0.9160305, 0.69525, 0.6259542, 0.69525, -2.8091602
0.0825882, -0.0152743, 0.702, -0.0286865, 0.702, -1.0042725, 0.702, -0.1436157, 0.702, 0.9847328, 0.702, 0.7175573, 0.702, -2.7175572
0.0833824, -0.01561, 0.70875, -0.0263062, 0.70875, -1.0049438, 0.70875, -0.1428223, 0.70875, 1.1984733, 0.70875, 0.7175573, 0.70875, -2.7557251
0.0841765, -0.0164492, 0.7155, -0.0256348, 0.7155, -1.0016479, 0.7155, -0.1444092, 0.7155, 1.2824427, 0.7155, 0.8015267, 0.7155, -2.8091602
0.0849706, -0.012253, 0.72225, -0.0272217, 0.72225, -1.0014038, 0.72225, -0.1464233, 0.72225, 1.4885496, 0.72225, 0.8091603, 0.72225, -2.9847329
0.0857647, -0.0135958, 0.729, -0.0301514, 0.729, -1.0050049, 0.729, -0.1465454, 0.729, 1.3282443, 0.729, 0.7251908, 0.729, -3.0076337
0.0865588, -0.0149386, 0.73575, -0.0303345, 0.73575, -1.0057373, 0.73575, -0.1450806, 0.73575, 1.1145039, 0.73575, 0.8473282, 0.73575, -2.908397
0.0873529, -0.0134279, 0.7425, -0.0274658, 0.7425, -1.0065918, 0.7425, -0.1466675, 0.7425, 1.2824427, 0.7425, 0.9694657, 0.7425, -2.908397
0.0881471, -0.0152743, 0.74925, -0.0272827, 0.74925, -1.0048828, 0.74925, -0.1445923, 0.74925, 1.4045801, 0.74925, 0.961832, 0.74925, -2.9389312
0.0889412, -0.0146029, 0.756, -0.0283203, 0.756, -1.0074463, 0.756, -0.1497803, 0.756, 1.2442749, 0.756, 1.129771, 0.756, -3.2137403
0.0897353, -0.0142672, 0.76275, -0.0288696, 0.76275, -1.0068359, 0.76275, -0.1483765, 0.76275, 1.0305344, 0.76275, 1.1984733, 0.76275, -3.0076337
0.0905294, -0.0139315, 0.7695, -0.0322876, 0.7695, -1.0059204, 0.7695, -0.1508789, 0.7695, 1.2061069, 0.7695, 1.5572519, 0.7695, -2.8854961
0.0913235, -0.0139315, 0.77625, -0.0269775, 0.77625, -1.0047607, 0.77625, -0.151062, 0.77625, 0.9465649, 0.77625, 1.3282443, 0.77625, -2.778626
0.0921176, -0.0129244, 0.783, -0.0267334, 0.783, -1.0059814, 0.783, -0.1473389, 0.783, 0.870229, 0.783, 0.6870229, 0.783, -2.9389312
0.0929118, -0.0099031, 0.78975, -0.0321655, 0.78975, -1.0022583, 0.78975, -0.1459961, 0.78975, 0.8244275, 0.78975, 0.6030535, 0.78975, -2.9389312
0.0937059, -0.0078889, 0.7965, -0.0314331, 0.7965, -1.0064697, 0.7965, -0.1461182, 0.7965, 1.038168, 0.7965, 0.5496183, 0.7965, -3.0458016
0.0945, -0.0075532, 0.80325, -0.0283203, 0.80325, -1.0056152, 0.80325, -0.1443481, 0.80325, 1.1145039, 0.80325, 0.4198473, 0.80325, -2.9923663
0.0952941, -0.0105745, 0.81, -0.0252686, 0.81, -1.0093384, 0.81, -0.1444092, 0.81, 1.2366412, 0.81, 0.7557252, 0.81, -3.0152671
0.0960882, -0.012253, 0.81675, -0.027771, 0.81675, -1.0068359, 0.81675, -0.1435547, 0.81675, 1.1374046, 0.81675, 0.7938932, 0.81675, -3.0839694
0.0968824, -0.0149386, 0.8235, -0.0313721, 0.8235, -1.0025024, 0.8235, -0.1485596, 0.8235, 1.0229008, 0.8235, 0.9389313, 0.8235, -3.221374
0.0976765, -0.0142672, 0.83025, -0.0313721, 0.83025, -1.0009766, 0.83025, -0.1498413, 0.83025, 1.0076336, 0.83025, 0.9389313, 0.83025, -3.1068702
0.0984706, -0.0135958, 0.837, -0.0310669, 0.837, -1.0014648, 0.837, -0.1477051, 0.837, 0.9007633, 0.837, 0.9694657, 0.837, -3.0763359
0.0992647, -0.0159457, 0.84375, -0.0330811, 0.84375, -1.0043335, 0.84375, -0.1477661, 0.84375, 1.091603, 0.84375, 0.7938932, 0.84375, -3.0763359
0.1000588, -0.0172885, 0.8505, -0.0325317, 0.8505, -1.00354, 0.8505, -0.1490479, 0.8505, 1.1145039, 0.8505, 0.6259542, 0.8505, -3.2442749
0.1008529, -0.0130922, 0.85725, -0.0333252, 0.85725, -1.0036621, 0.85725, -0.1439209, 0.85725, 1.0152671, 0.85725, 0.480916, 0.85725, -3.4274809
0.1016471, -0.0102388, 0.864, -0.0339355, 0.864, -1.0057373, 0.864, -0.1484985, 0.864, 0.9770992, 0.864, 0.5801527, 0.864, -3.3129771
0.1024412, -0.0125887, 0.87075, -0.0336304, 0.87075, -1.0020752, 0.87075, -0.1481934, 0.87075, 1.1908396, 0.87075, 0.6259542, 0.87075, -3.4198472
0.1032353, -0.0135958, 0.8775, -0.0267334, 0.8775, -1.0045776, 0.8775, -0.1445312, 0.8775, 1.129771, 0.8775, 0.8549618, 0.8775, -3.4198472
0.1040294, -0.0095674, 0.88425, -0.024231, 0.88425, -1.0042725, 0.88425, -0.1430054, 0.88425, 1.0305344, 0.88425, 0.9007633, 0.88425, -3.3587787
0.1048235, -0.0125887, 0.891, -0.0251465, 0.891, -1.0046387, 0.891, -0.1469116, 0.891, 1.1679389, 0.891, 0.9312977, 0.891, -3.3740458
0.1056176, -0.0139315, 0.89775, -0.0280151, 0.89775, -1.0056763, 0.89775, -0.149231, 0.89775, 1.2748091, 0.89775, 1.1603054, 0.89775, -3.3435113
0.1064118, -0.011078, 0.9045, -0.0272827, 0.9045, -1.0072021, 0.9045, -0.1482544, 0.9045, 1.1755725, 0.9045, 1.389313, 0.9045, -3.4045801
0.1072059, -0.0139315, 0.91125, -0.0273438, 0.91125, -1.0059814, 0.91125, -0.1474609, 0.91125, 1.0458015, 0.91125, 1.0534351, 0.91125, -3.3358779
0.108, -0.0161135, 0.918, -0.0250854, 0.918, -1.0043945, 0.918, -0.1503296, 0.918, 0.9847328, 0.918, 0.870229, 0.918, -3.4427481
0.1087941, -0.0162814, 0.92475, -0.0306396, 0.92475, -1.0076294, 0.92475, -0.1515503, 0.92475, 0.8931298, 0.92475, 0.7862595, 0.92475, -3.4274809
0.1095882, -0.0149386, 0.9315, -0.0322266, 0.9315, -1.0059814, 0.9315, -0.1468506, 0.9315, 0.8854962, 0.9315, 0.7862595, 0.9315, -3.4961832
0.1103824, -0.0135958, 0.93825, -0.0291748, 0.93825, -1.0076904, 0.93825, -0.1472778, 0.93825, 1.1145039, 0.93825, 0.6335878, 0.93825, -3.3816793
0.1111765, -0.014435, 0.945, -0.0330811, 0.945, -1.0067139, 0.945, -0.1461182, 0.945, 1.0687023, 0.945, 0.5954198, 0.945, -3.3435113
0.1119706, -0.0182956, 0.95175, -0.0308838, 0.95175, -1.0030518, 0.95175, -0.1486816, 0.95175, 0.9923664, 0.95175, 0.4122137, 0.95175, -3.3816793
0.1127647, -0.0182956, 0.9585, -0.03125, 0.9585, -1.0026245, 0.9585, -0.1503906, 0.9585, 1.038168, 0.9585, 0.2671756, 0.9585, -3.5038168
0.1135588, -0.0206455, 0.96525, -0.0281372, 0.96525, -1.0077515, 0.96525, -0.1499023, 0.96525, 0.8015267, 0.96525, 0.3206107, 0.96525, -3.4274809
0.1143529, -0.0223239, 0.972, -0.0281372, 0.972, -1.0066528, 0.972, -0.1456909, 0.972, 0.4885496, 0.972, 0.4274809, 0.972, -3.3282442
0.1151471, -0.0206455, 0.97875, -0.0259399, 0.97875, -1.0095825, 0.97875, -0.1422729, 0.97875, 0.6335878, 0.97875, 0.3358779, 0.97875, -3.2977099
0.1159412, -0.0206455, 0.9855, -0.0300293, 0.9855, -1.0076904, 0.9855, -0.1434326, 0.9855, 0.8167939, 0.9855, 0.4045801, 0.9855, -3.6717558
0.1167353, -0.023331, 0.99225, -0.0275879, 0.99225, -1.0066528, 0.99225, -0.1469727, 0.99225, 0.9389313, 0.99225, 0.5267175, 0.99225, -3.6030533
0.1175294, -0.0213169, 0.999, -0.0303955, 0.999, -1.0039673, 0.999, -0.1497803, 0.999, 0.8320611, 0.999, 0.7251908, 0.999, -3.3969467
0.1183235, -0.0196384, 1.00575, -0.0315552, 1.00575, -1.0018921, 1.00575, -0.1504517, 1.00575, 0.9389313, 1.00575, 0.480916, 1.00575, -3.389313
0.1191176, -0.0206455, 1.0125, -0.0328979, 1.0125, -1.0031128, 1.0125, -0.151062, 1.0125, 0.8931298, 1.0125, 0.6564885, 1.0125, -3.221374
0.1199118, -0.0176242, 1.01925, -0.0307007, 1.01925, -1.0059204, 1.01925, -0.1485596, 1.01925, 0.9847328, 1.01925, 0.4656489, 1.01925, -3.3816793
0.1207059, -0.0162814, 1.026, -0.0293579, 1.026, -1.0040894, 1.026, -0.1503296, 1.026, 1, 1.026, 0.4656489, 1.026, -3.4580152
0.1215, -0.0142672, 1.03275, -0.0302124, 1.03275, -1.006958, 1.03275, -0.1484375, 1.03275, 0.9770992, 1.03275, 0.2519084, 1.03275, -3.5038168
0.1222941, -0.0105745, 1.0395, -0.0265503, 1.0395, -1.0094604, 1.0395, -0.1488647, 1.0395, 0.9236641, 1.0395, 0.351145, 1.0395, -3.4656489
0.1230882, -0.0062104, 1.04625, -0.0253296, 1.04625, -1.0061646, 1.04625, -0.1479492, 1.04625, 1.1526718, 1.04625, 0.1908397, 1.04625, -3.4580152
0.1238824, -0.0095674, 1.053, -0.022522, 1.053, -1.0018921, 1.053, -0.1500244, 1.053, 1.221374, 1.053, 0.351145, 1.053, -3.4961832
0.1246765, -0.0082246, 1.05975, -0.0239258, 1.05975, -1.0048218, 1.05975, -0.1501465, 1.05975, 0.961832, 1.05975, 0.4427481, 1.05975, -3.3282442
0.1254706, -0.0099031, 1.0665, -0.0197754, 1.0665, -1.006958, 1.0665, -0.1478882, 1.0665, 1.0152671, 1.0665, 0.1984733, 1.0665, -3.3740458
0.1262647, -0.0104067, 1.07325, -0.0220947, 1.07325, -1.0071411, 1.07325, -0.1439209, 1.07325, 0.8854962, 1.07325, 0.610687, 1.07325, -3.3816793
0.1270588, -0.0102388, 1.08, -0.0236816, 1.08, -1.0058594, 1.08, -0.1480103, 1.08, 1.2442749, 1.08, 0.7480916, 1.08, -3.2824428
0.1278529, -0.011078, 1.08675, -0.0245972, 1.08675, -1.0053101, 1.08675, -0.152771, 1.08675, 1.2366412, 1.08675, 0.870229, 1.08675, -3.3664122
0.1286471, -0.0119173, 1.0935, -0.0258789, 1.0935, -1.0050049, 1.0935, -0.1502075, 1.0935, 1.3435115, 1.0935, 1.0076336, 1.0935, -3.3969467
0.1294412, -0.0130922, 1.10025, -0.0303955, 1.10025, -1.0057983, 1.10025, -0.1490479, 1.10025, 1.1832061, 1.10025, 0.9770992, 1.10025, -3.3282442
0.1302353, -0.0134279, 1.107, -0.02771, 1.107, -1.0029297, 1.107, -0.1498413, 1.107, 1.2290076, 1.107, 0.8854962, 1.107, -3.2442749
0.1310294, -0.0132601, 1.11375, -0.0320435, 1.11375, -1.0062256, 1.11375, -0.1484985, 1.11375, 1.2290076, 1.11375, 0.778626, 1.11375, -3.1908398
0.1318235, -0.0115816, 1.1205, -0.0342407, 1.1205, -1.0066528, 1.1205, -0.1478882, 1.1205, 1.3816794, 1.1205, 0.7251908, 1.1205, -3.4580152
0.1326176, -0.0095674, 1.12725, -0.0357666, 1.12725, -1.0065918, 1.12725, -0.1455078, 1.12725, 1.4503816, 1.12725, 0.6412213, 1.12725, -3.4122138
0.1334118, -0.0095674, 1.134, -0.0333252, 1.134, -1.0037231, 1.134, -0.145874, 1.134, 1.4961832, 1.134, 0.4274809, 1.134, -3.5038168
0.1342059, -0.012253, 1.14075, -0.0344238, 1.14075, -1.0043945, 1.14075, -0.1482544, 1.14075, 1.3358779, 1.14075, 0.3740458, 1.14075, -3.5419848
0.135, -0.0109102, 1.1475, -0.0371094, 1.1475, -1.00354, 1.1475, -0.1513672, 1.1475, 1.2748091, 1.1475, 0.3740458, 1.1475, -3.648855
0.1357941, -0.0109102, 1.15425, -0.0322266, 1.15425, -1.0044556, 1.15425, -0.1491089, 1.15425, 1.259542, 1.15425, -0.0076336, 1.15425, -3.5877862
0.1365882, -0.0151064, 1.161, -0.0287476, 1.161, -1.0048218, 1.161, -0.1460571, 1.161, 1.4045801, 1.161, 0.0076336, 1.161, -3.5496182
0.1373824, -0.0182956, 1.16775, -0.0269165, 1.16775, -1.0032349, 1.16775, -0.1470337, 1.16775, 1.3282443, 1.16775, 0.0763359, 1.16775, -3.4732823
0.1381765, -0.0206455, 1.1745, -0.0267944, 1.1745, -1.0036011, 1.1745, -0.1455078, 1.1745, 1.2442749, 1.1745, -0.0839695, 1.1745, -3.6870229
0.1389706, -0.018967, 1.18125, -0.0271606, 1.18125, -1.0050659, 1.18125, -0.1439209, 1.18125, 1.2671756, 1.18125, -0.1526718, 1.18125, -3.7557251
0.1397647, -0.0162814, 1.188, -0.0192261, 1.188, -1.0045776, 1.188, -0.1414795, 1.188, 1.3664122, 1.188, -0.1755725, 1.188, -3.6183207
0.1405588, -0.01561, 1.19475, -0.0204468, 1.19475, -1.0038452, 1.19475, -0.1413574, 1.19475, 1.259542, 1.19475, -0.1374046, 1.19475, -3.5725191
0.1413529, -0.0119173, 1.2015, -0.0231934, 1.2015, -1.0058594, 1.2015, -0.1455078, 1.2015, 1.3740458, 1.2015, 0.1068702, 1.2015, -3.6335878
0.1421471, -0.0068818, 1.20825, -0.0271606, 1.20825, -1.0054321, 1.20825, -0.1460571, 1.20825, 1.4961832, 1.20825, 0.1603053, 1.20825, -3.7022901
0.1429412, -0.0072175, 1.215, -0.0311279, 1.215, -1.0029907, 1.215, -0.1451416, 1.215, 1.351145, 1.215, 0.2519084, 1.215, -3.6870229
0.1437353, -0.0125887, 1.22175, -0.036438, 1.22175, -1.0023804, 1.22175, -0.1439819, 1.22175, 1.2671756, 1.22175, -0.1068702, 1.22175, -3.5954199
0.1445294, -0.0090639, 1.2285, -0.0368042, 1.2285, -1.0053711, 1.2285, -0.1463623, 1.2285, 1.2671756, 1.2285, -0.5038168, 1.2285, -3.7709923
0.1453235, -0.0038605, 1.23525, -0.0377197, 1.23525, -1.0037842, 1.23525, -0.1448364, 1.23525, 1.1755725, 1.23525, -0.9160305, 1.23525, -3.5648854
0.1461176, -0.0041962, 1.242, -0.0323486, 1.242, -1.0025024, 1.242, -0.1416016, 1.242, 1.1221374, 1.242, -1.2519084, 1.242, -3.6641221
0.1469118, -0.0043641, 1.24875, -0.0325317, 1.24875, -1.0031738, 1.24875, -0.1472168, 1.24875, 1.2137405, 1.24875, -1.3358779, 1.24875, -3.8244274
0.1477059, -0.0038605, 1.2555, -0.0264282, 1.2555, -1.0038452, 1.2555, -0.149353, 1.2555, 1.129771, 1.2555, -1.3206106, 1.2555, -3.778626
0.1485, -0.0105745, 1.26225, -0.0217285, 1.26225, -1.006897, 1.26225, -0.1488037, 1.26225, 1.0534351, 1.26225, -1.038168, 1.26225, -3.6946564
0.1492941, -0.0176242, 1.269, -0.0194702, 1.269, -1.0022583, 1.269, -0.1504517, 1.269, 1.2061069, 1.269, -0.9694657, 1.269, -3.6335878
0.1500882, -0.01561, 1.27575, -0.0199585, 1.27575, -1.0064087, 1.27575, -0.1486206, 1.27575, 1.1984733, 1.27575, -1.0076336, 1.27575, -3.6564887
0.1508824, -0.0139315, 1.2825, -0.0185547, 1.2825, -1.0101929, 1.2825, -0.1520996, 1.2825, 1.0305344, 1.2825, -1.0458015, 1.2825, -3.7862597
0.1516765, -0.0147707, 1.28925, -0.0188599, 1.28925, -1.0101929, 1.28925, -0.1535645, 1.28925, 0.9160305, 1.28925, -0.6183206, 1.28925, -3.6030533
0.1524706, -0.0137636, 1.296, -0.0199585, 1.296, -1.0067749, 1.296, -0.1535645, 1.296, 0.8015267, 1.296, -0.2748092, 1.296, -3.5038168
0.1532647, -0.0135958, 1.30275, -0.0150146, 1.30275, -1.0076904, 1.30275, -0.1530151, 1.30275, 0.7022901, 1.30275, -0.3816794, 1.30275, -3.519084
0.1540588, -0.011078, 1.3095, -0.0204468, 1.3095, -1.0081787, 1.3095, -0.1486816, 1.3095, 0.778626, 1.3095, -0.4198473, 1.3095, -3.6564887
0.1548529, -0.011078, 1.31625, -0.0217896, 1.31625, -1.0088501, 1.31625, -0.1473389, 1.31625, 0.5572519, 1.31625, -0.2290076, 1.31625, -3.4885497
0.1556471, -0.0159457, 1.323, -0.0205078, 1.323, -1.0081787, 1.323, -0.1448364, 1.323, 0.778626, 1.323, -0.0763359, 1.323, -3.6641221
0.1564412, -0.0152743, 1.32975, -0.0211792, 1.32975, -1.008667, 1.32975, -0.1447754, 1.32975, 0.9007633, 1.32975, 0.1145038, 1.32975, -3.6259542
0.1572353, -0.0186313, 1.3365, -0.0197144, 1.3365, -1.0076904, 1.3365, -0.1428223, 1.3365, 0.9541985, 1.3365, 0.3969466, 1.3365, -3.4351146
0.1580294, -0.0216526, 1.34325, -0.0197754, 1.34325, -1.0060425, 1.34325, -0.1439209, 1.34325, 0.7480916, 1.34325, 0.7175573, 1.34325, -3.3664122
0.1588235, -0.0250095, 1.35, -0.0209351, 1.35, -1.0028687, 1.35, -0.1413574, 1.35, 0.6183206, 1.35, 0.6717557, 1.35, -3.2137403
0.1596176, -0.0280308, 1.35675, -0.0197144, 1.35675, -1.0053711, 1.35675, -0.1370239, 1.35675, 0.5038168, 1.35675, 0.9160305, 1.35675, -3.3206108
0.1604118, -0.0260166, 1.3635, -0.0189209, 1.3635, -1.0079956, 1.3635, -0.1373901, 1.3635, 0.3816794, 1.3635, 1.1068702, 1.3635, -3.3740458
0.1612059, -0.0250095, 1.37025, -0.0195923, 1.37025, -1.0082397, 1.37025, -0.1380005, 1.37025, 0.2366412, 1.37025, 1.4885496, 1.37025, -3.0305343
0.162, -0.0260166, 1.377, -0.0180664, 1.377, -1.0074463, 1.377, -0.1387939, 1.377, 0.1068702, 1.377, 1.5038168, 1.377, -2.9923663
0.1627941, -0.0236667, 1.38375, -0.0220947, 1.38375, -1.0079346, 1.38375, -0.1405029, 1.38375, 0.2061069, 1.38375, 1.7251909, 1.38375, -3.2442749
0.1635882, -0.024506, 1.3905, -0.0206299, 1.3905, -1.0067139, 1.3905, -0.1403198, 1.3905, 0.1068702, 1.3905, 1.8320611, 1.3905, -3.1145039
0.1643824, -0.023331, 1.39725, -0.0211792, 1.39725, -1.0039062, 1.39725, -0.1403198, 1.39725, 0.3358779, 1.39725, 2.0839694, 1.39725, -3.1984732
0.1651765, -0.0176242, 1.404, -0.0230713, 1.404, -1.0061646, 1.404, -0.1489868, 1.404, 0.3664122, 1.404, 2.1755726, 1.404, -3.0992367
0.1659706, -0.0139315, 1.41075, -0.0265503, 1.41075, -1.0092163, 1.41075, -0.1460571, 1.41075, 0.1603053, 1.41075, 2.3282442, 1.41075, -3.0763359
0.1667647, -0.0129244, 1.4175, -0.0272217, 1.4175, -1.0079346, 1.4175, -0.144043, 1.4175, 0.2366412, 1.4175, 2.2290077, 1.4175, -3.1450381
0.1675588, -0.0149386, 1.42425, -0.0286865, 1.42425, -1.0053101, 1.42425, -0.1502686, 1.42425, 0.2977099, 1.42425, 2.3740458, 1.42425, -3.1908398
0.1683529, -0.0184634, 1.431, -0.0274658, 1.431, -1.0057983, 1.431, -0.1524048, 1.431, 0.0305344, 1.431, 2.8396947, 1.431, -2.961832
0.1691471, -0.0171206, 1.43775, -0.0255737, 1.43775, -1.0083008, 1.43775, -0.1547852, 1.43775, -0.3664122, 1.43775, 2.9007633, 1.43775, -3.0305343
0.1699412, -0.0181277, 1.4445, -0.0258179, 1.4445, -1.0092163, 1.4445, -0.1539307, 1.4445, -0.3053435, 1.4445, 2.9694657, 1.4445, -3.1145039
0.1707353, -0.0169528, 1.45125, -0.0233154, 1.45125, -1.0102539, 1.45125, -0.1517334, 1.45125, -0.6412213, 1.45125, 2.9465649, 1.45125, -3
0.1715294, -0.0181277, 1.458, -0.0238647, 1.458, -1.0064087, 1.458, -0.1531372, 1.458, -0.7099237, 1.458, 2.9923663, 1.458, -2.778626
0.1723235, -0.0125887, 1.46475, -0.0275269, 1.46475, -1.0073242, 1.46475, -0.1530762, 1.46475, -0.6793893, 1.46475, 3.091603, 1.46475, -3.0458016
0.1731176, -0.0099031, 1.4715, -0.0244141, 1.4715, -1.0082397, 1.4715, -0.1519775, 1.4715, -0.6717557, 1.4715, 3.091603, 1.4715, -3.0305343
0.1739118, -0.0119173, 1.47825, -0.0238037, 1.47825, -1.0083618, 1.47825, -0.1526489, 1.47825, -0.5954198, 1.47825, 3.1526718, 1.47825, -3.0458016
0.1747059, -0.0125887, 1.485, -0.0238647, 1.485, -1.0072021, 1.485, -0.1553955, 1.485, -0.480916, 1.485, 2.8473282, 1.485, -2.8778627
0.1755, -0.0152743, 1.49175, -0.0282593, 1.49175, -1.0061646, 1.49175, -0.1548462, 1.49175, -0.221374, 1.49175, 2.6335878, 1.49175, -2.9389312
0.1762941, -0.0162814, 1.4985, -0.0316162, 1.4985, -0.9995117, 1.4985, -0.1544189, 1.4985, -0.0916031, 1.4985, 2.7557251, 1.4985, -3.0229008
0.1770882, -0.0135958, 1.50525, -0.0308228, 1.50525, -1.0049438, 1.50525, -0.15802, 1.50525, -0.1450382, 1.50525, 2.5725191, 1.50525, -3.0458016
0.1778824, -0.0129244, 1.512, -0.0344849, 1.512, -1.0045776, 1.512, -0.1577148, 1.512, -0.0076336, 1.512, 2.1832061, 1.512, -2.9541984
0.1786765, -0.0109102, 1.51875, -0.0331421, 1.51875, -1.0062866, 1.51875, -0.1566772, 1.51875, 0.221374, 1.51875, 1.8320611, 1.51875, -3.1679389
0.1794706, -0.0072175, 1.5255, -0.0337524, 1.5255, -1.0025635, 1.5255, -0.1572876, 1.5255, 0.2748092, 1.5255, 1.6946565, 1.5255, -3.1603053
0.1802647, -0.0062104, 1.53225, -0.0344238, 1.53225, -1.0025635, 1.53225, -0.1575928, 1.53225, 0.3358779, 1.53225, 1.6259542, 1.53225, -3.2442749
0.1810588, -0.0041962, 1.539, -0.0305176, 1.539, -1.0054932, 1.539, -0.1576538, 1.539, 0.389313, 1.539, 1.4656489, 1.539, -3.221374
0.1818529, -0.0003357, 1.54575, -0.0281372, 1.54575, -1.0072632, 1.54575, -0.1575317, 1.54575, 0.6183206, 1.54575, 1.480916, 1.54575, -3.1450381
0.1826471, -0.0028534, 1.5525, -0.0283203, 1.5525, -1.006897, 1.5525, -0.1563721, 1.5525, 0.7557252, 1.5525, 1.389313, 1.5525, -3.3206108
0.1834412, -0.0083925, 1.55925, -0.0305786, 1.55925, -1.0021973, 1.55925, -0.1546021, 1.55925, 0.8320611, 1.55925, 1.1679389, 1.55925, -3.3664122
0.1842353, -0.0109102, 1.566, -0.0301514, 1.566, -1.0005493, 1.566, -0.1549683, 1.566, 0.908397, 1.566, 1.1526718, 1.566, -3.2900763
0.1850294, -0.0109102, 1.57275, -0.0299072, 1.57275, -1.0019531, 1.57275, -0.152832, 1.57275, 1.0534351, 1.57275, 0.9770992, 1.57275, -3.3129771
0.1858235, -0.0119173, 1.5795, -0.0288086, 1.5795, -1.0029297, 1.5795, -0.149231, 1.5795, 0.9847328, 1.5795, 1.1450381, 1.5795, -3.259542
0.1866176, -0.0203098, 1.58625, -0.0298462, 1.58625, -1.0083618, 1.58625, -0.1505127, 1.58625, 0.8931298, 1.58625, 1.0839695, 1.58625, -3.3587787
0.1874118, -0.0206455, 1.593, -0.0269165, 1.593, -1.0053101, 1.593, -0.144165, 1.593, 1.038168, 1.593, 1.3206106, 1.593, -3.2061069
0.1882059, -0.0169528, 1.59975, -0.0233765, 1.59975, -1.007019, 1.59975, -0.1456299, 1.59975, 1.0610687, 1.59975, 1.3740458, 1.59975, -3.1832061
0.189, -0.0152743, 1.6065, -0.0247192, 1.6065, -1.0015259, 1.6065, -0.1451416, 1.6065, 0.8320611, 1.6065, 1.3053435, 1.6065, -3.2977099
0.1897941, -0.0149386, 1.61325, -0.0251465, 1.61325, -1.0021362, 1.61325, -0.1436768, 1.61325, 0.7175573, 1.61325, 1.4274809, 1.61325, -3.2061069
0.1905882, -0.0142672, 1.62, -0.0222168, 1.62, -1.0028687, 1.62, -0.145752, 1.62, 0.5877863, 1.62, 1.4580153, 1.62, -3.3664122
0.1913824, -0.0152743, 1.62675, -0.0244751, 1.62675, -1.0039673, 1.62675, -0.1472168, 1.62675, 0.8167939, 1.62675, 1.648855, 1.62675, -3.4122138
0.1921765, -0.0162814, 1.6335, -0.0255737, 1.6335, -1.0028687, 1.6335, -0.1444702, 1.6335, 0.4885496, 1.6335, 1.7251909, 1.6335, -3.4122138
0.1929706, -0.0213169, 1.64025, -0.0297241, 1.64025, -1.0025024, 1.64025, -0.1488037, 1.64025, 0.4274809, 1.64025, 1.6335878, 1.64025, -3.3129771
0.1937647, -0.0209812, 1.647, -0.0299072, 1.647, -1.005249, 1.647, -0.1482544, 1.647, 0.2519084, 1.647, 1.6335878, 1.647, -3.5267177
0.1945588, -0.0223239, 1.65375, -0.0324097, 1.65375, -1.0056152, 1.65375, -0.1532593, 1.65375, 0.0381679, 1.65375, 1.3664122, 1.65375, -3.4961832
0.1953529, -0.0219883, 1.6605, -0.0313721, 1.6605, -1.0059814, 1.6605, -0.1499634, 1.6605, -0.2061069, 1.6605, 1.2748091, 1.6605, -3.4885497
0.1961471, -0.0251774, 1.66725, -0.0272217, 1.66725, -1.0092163, 1.66725, -0.1495361, 1.66725, -0.129771, 1.66725, 1.2519084, 1.66725, -3.4732823
0.1969412, -0.0229953, 1.674, -0.0283813, 1.674, -1.0045776, 1.674, -0.1480713, 1.674, -0.2977099, 1.674, 1.2900764, 1.674, -3.4122138
0.1977353, -0.0182956, 1.68075, -0.0308838, 1.68075, -1.0059204, 1.68075, -0.1511841, 1.68075, -0.3816794, 1.68075, 0.9847328, 1.68075, -3.519084
0.1985294, -0.0146029, 1.6875, -0.0285034, 1.6875, -1.0063477, 1.6875, -0.1505737, 1.6875, -0.4427481, 1.6875, 0.7175573, 1.6875, -3.5572519
0.1993235, -0.0109102, 1.69425, -0.0247192, 1.69425, -1.008606, 1.69425, -0.1461182, 1.69425, -0.3358779, 1.69425, 0.8473282, 1.69425, -3.4351146
0.2001176, -0.0129244, 1.701, -0.0231323, 1.701, -1.007019, 1.701, -0.145813, 1.701, -0.2900763, 1.701, 0.9312977, 1.701, -3.519084
0.2009118, -0.0135958, 1.70775, -0.0193481, 1.70775, -0.9985352, 1.70775, -0.1477051, 1.70775, -0.3587786, 1.70775, 0.9847328, 1.70775, -3.6030533
0.2017059, -0.008896, 1.7145, -0.0211182, 1.7145, -1, 1.7145, -0.1505737, 1.7145, -0.648855, 1.7145, 1.0229008, 1.7145, -3.6412213
0.2025, -0.0070497, 1.72125, -0.0230713, 1.72125, -1.0023193, 1.72125, -0.1495361, 1.72125, -0.6946565, 1.72125, 1.2671756, 1.72125, -3.5419848
0.2032941, -0.0119173, 1.728, -0.0253296, 1.728, -1.0046997, 1.728, -0.1485596, 1.728, -0.5954198, 1.728, 1.5572519, 1.728, -3.3664122
0.2040882, -0.0142672, 1.73475, -0.0256958, 1.73475, -0.9986572, 1.73475, -0.152832, 1.73475, -0.5496183, 1.73475, 1.480916, 1.73475, -3.3282442
0.2048824, -0.0129244, 1.7415, -0.0299072, 1.7415, -1.00177, 1.7415, -0.1497803, 1.7415, -0.6946565, 1.7415, 1.5496184, 1.7415, -3.6793892
0.2056765, -0.0137636, 1.74825, -0.0287476, 1.74825, -1.0043945, 1.74825, -0.1513062, 1.74825, -0.6717557, 1.74825, 1.5572519, 1.74825, -3.4122138
0.2064706, -0.008896, 1.755, -0.02771, 1.755, -1.0032349, 1.755, -0.1522217, 1.755, -0.6793893, 1.755, 1.4198474, 1.755, -3.259542
0.2072647, -0.0099031, 1.76175, -0.0234375, 1.76175, -1.0059204, 1.76175, -0.1544189, 1.76175, -0.8778626, 1.76175, 0.8549618, 1.76175, -3.519084
0.2080588, -0.0112459, 1.7685, -0.0276489, 1.7685, -1.0071411, 1.7685, -0.1541138, 1.7685, -0.9694657, 1.7685, 0.8625954, 1.7685, -3.4656489
0.2088529, -0.0102388, 1.77525, -0.0263672, 1.77525, -1.0049438, 1.77525, -0.1588135, 1.77525, -1.1145039, 1.77525, 0.6717557, 1.77525, -3.3969467
0.2096471, -0.0085603, 1.782, -0.027771, 1.782, -1.0084839, 1.782, -0.1539307, 1.782, -1.1603054, 1.782, 0.6564885, 1.782, -3.4961832
0.2104412, -0.010071, 1.78875, -0.0233154, 1.78875, -1.0100098, 1.78875, -0.1508179, 1.78875, -0.9770992, 1.78875, 0.9694657, 1.78875, -3.5954199
0.2112353, -0.0090639, 1.7955, -0.0186768, 1.7955, -1.010437, 1.7955, -0.1578369, 1.7955, -0.5877863, 1.7955, 1.480916, 1.7955, -3.3435113
0.2120294, -0.0070497, 1.80225, -0.0222168, 1.80225, -1.0064697, 1.80225, -0.1594849, 1.80225, -0.4885496, 1.80225, 1.5572519, 1.80225, -3.389313
0.2128235, -0.0077211, 1.809, -0.026062, 1.809, -1.0024414, 1.809, -0.163269, 1.809, -0.6564885, 1.809, 1.4885496, 1.809, -3.4198472
0.2136176, -0.0095674, 1.81575, -0.0252686, 1.81575, -1.0028687, 1.81575, -0.1641846, 1.81575, -0.6870229, 1.81575, 1.2366412, 1.81575, -3.6641221
0.2144118, -0.0115816, 1.8225, -0.0300903, 1.8225, -1.0031128, 1.8225, -0.1592407, 1.8225, -0.6717557, 1.8225, 0.6564885, 1.8225, -3.6793892
0.2152059, -0.0105745, 1.82925, -0.0317383, 1.82925, -1.003479, 1.82925, -0.1568604, 1.82925, -0.5419847, 1.82925, 0.6030535, 1.82925, -3.5267177
0.216, -0.0097353, 1.836, -0.0308228, 1.836, -1.0056763, 1.836, -0.1554565, 1.836, -0.2977099, 1.836, 0.8167939, 1.836, -3.4198472
0.2167941, -0.0112459, 1.84275, -0.0314331, 1.84275, -1.0028076, 1.84275, -0.1585083, 1.84275, -0.5877863, 1.84275, 0.7862595, 1.84275, -3.5954199
0.2175882, -0.012253, 1.8495, -0.0289307, 1.8495, -1.0053101, 1.8495, -0.1574707, 1.8495, -0.480916, 1.8495, 0.2442748, 1.8495, -3.7251909
0.2183824, -0.0112459, 1.85625, -0.026123, 1.85625, -1.0097656, 1.85625, -0.1576538, 1.85625, -0.6717557, 1.85625, 0.3206107, 1.85625, -3.4427481
0.2191765, -0.0082246, 1.863, -0.0244141, 1.863, -1.0148315, 1.863, -0.1553345, 1.863, -0.4656489, 1.863, 0.4122137, 1.863, -3.5114503
0.2199706, -0.008896, 1.86975, -0.0178833, 1.86975, -1.0155029, 1.86975, -0.1586304, 1.86975, -0.4045801, 1.86975, 0.6335878, 1.86975, -3.7709923
0.2207647, -0.0102388, 1.8765, -0.0204468, 1.8765, -1.0162354, 1.8765, -0.1615601, 1.8765, -0.2061069, 1.8765, 0.6717557, 1.8765, -3.5038168
0.2215588, -0.0109102, 1.88325, -0.0195312, 1.88325, -1.0112305, 1.88325, -0.1634521, 1.88325, -0.0534351, 1.88325, 0.7480916, 1.88325, -3.4961832
0.2223529, -0.0129244, 1.89, -0.0253296, 1.89, -1.0091553, 1.89, -0.1725464, 1.89, 0.0229008, 1.89, 0.740458, 1.89, -3.5419848
0.2231471, -0.0182956, 1.89675, -0.0247803, 1.89675, -1.0071411, 1.89675, -0.1763916, 1.89675, 0.3129771, 1.89675, 0.5572519, 1.89675, -3.5725191
0.2239412, -0.017792, 1.9035, -0.0268555, 1.9035, -1.0088501, 1.9035, -0.1776123, 1.9035, 0.3282443, 1.9035, 0.221374, 1.9035, -3.5648854
0.2247353, -0.0149386, 1.91025, -0.0294189, 1.91025, -1.0067749, 1.91025, -0.1756592, 1.91025, 0.610687, 1.91025, 0.2442748, 1.91025, -3.4656489
0.2255294, -0.014435, 1.917, -0.0280151, 1.917, -1.0050049, 1.917, -0.1778564, 1.917, 0.8015267, 1.917, 0.1984733, 1.917, -3.5648854
0.2263235, -0.0099031, 1.92375, -0.0272827, 1.92375, -1.0036011, 1.92375, -0.1801758, 1.92375, 1.0610687, 1.92375, 0.1374046, 1.92375, -3.3282442
0.2271176, -0.0099031, 1.9305, -0.0254517, 1.9305, -1.0064697, 1.9305, -0.1817627, 1.9305, 1.3358779, 1.9305, 0.129771, 1.9305, -3.2900763
0.2279118, -0.0130922, 1.93725, -0.0236816, 1.93725, -1.006897, 1.93725, -0.1774292, 1.93725, 1.7175573, 1.93725, 0.1450382, 1.93725, -3.2748091
0.2287059, -0.0139315, 1.944, -0.0221558, 1.944, -1.0068359, 1.944, -0.1764526, 1.944, 1.9465649, 1.944, -0.4427481, 1.944, -3.1374047
0.2295, -0.0162814, 1.95075, -0.0166016, 1.95075, -1.0088501, 1.95075, -0.1746826, 1.95075, 1.8549619, 1.95075, -0.8015267, 1.95075, -3.2519083
0.2302941, -0.0169528, 1.9575, -0.0197754, 1.9575, -1.0083008, 1.9575, -0.1710815, 1.9575, 2.1908398, 1.9575, -1.2824427, 1.9575, -3.3053436
0.2310882, -0.0171206, 1.96425, -0.0169067, 1.96425, -1.0133057, 1.96425, -0.1689453, 1.96425, 2.610687, 1.96425, -0.6259542, 1.96425, -3.2977099
0.2318824, -0.018967, 1.971, -0.0180664, 1.971, -1.0067139, 1.971, -0.1682739, 1.971, 2.7862597, 1.971, -0.610687, 1.971, -3.2671757
0.2326765, -0.0213169, 1.97775, -0.0205078, 1.97775, -1.005249, 1.97775, -0.1703491, 1.97775, 3.129771, 1.97775, -0.5648855, 1.97775, -3.3435113
0.2334706, -0.0196384, 1.9845, -0.0222168, 1.9845, -1.0055542, 1.9845, -0.1671143, 1.9845, 2.9923663, 1.9845, -0.5267175, 1.9845, -3.2442749
0.2342647, -0.0219883, 1.99125, -0.0237427, 1.99125, -1.0066528, 1.99125, -0.1672363, 1.99125, 2.9923663, 1.99125, -0.7175573, 1.99125, -3.4580152
0.2350588, -0.0243381, 1.998, -0.0219116, 1.998, -1.0092773, 1.998, -0.163147, 1.998, 3.1679389, 1.998, -0.7175573, 1.998, -3.221374
0.2358529, -0.0238346, 2.00475, -0.022522, 2.00475, -1.0093994, 2.00475, -0.1657715, 2.00475, 3.1984732, 2.00475, -0.351145, 2.00475, -3.1908398
0.2366471, -0.0216526, 2.0115, -0.0275879, 2.0115, -1.0097656, 2.0115, -0.1613159, 2.0115, 3.0992367, 2.0115, -0.3053435, 2.0115, -3.0687022
0.2374412, -0.0184634, 2.01825, -0.0249634, 2.01825, -1.0043335, 2.01825, -0.1618652, 2.01825, 3.0229008, 2.01825, -0.1679389, 2.01825, -3.0763359
0.2382353, -0.0162814, 2.025, -0.0253296, 2.025, -1.0082397, 2.025, -0.1592407, 2.025, 3.259542, 2.025, 0.0992366, 2.025, -3.038168
0.2390294, -0.0186313, 2.03175, -0.0249634, 2.03175, -1.006897, 2.03175, -0.1596069, 2.03175, 3.2977099, 2.03175, 0.5496183, 2.03175, -3
0.2398235, -0.0226596, 2.0385, -0.022644, 2.0385, -1.0089111, 2.0385, -0.1605225, 2.0385, 3.351145, 2.0385, 0.7328244, 2.0385, -2.7557251
0.2406176, -0.0203098, 2.04525, -0.0151367, 2.04525, -1.0064087, 2.04525, -0.1588135, 2.04525, 3.3435113, 2.04525, 0.9007633, 2.04525, -2.8473282
0.2414118, -0.0172885, 2.052, -0.0169067, 2.052, -1.005188, 2.052, -0.1586304, 2.052, 3.6030533, 2.052, 0.9007633, 2.052, -2.9236641
0.2422059, -0.0142672, 2.05875, -0.0185547, 2.05875, -1.0062866, 2.05875, -0.1572876, 2.05875, 3.6259542, 2.05875, 1.1755725, 2.05875, -2.8091602
0.243, -0.0109102, 2.0655, -0.0188599, 2.0655, -1.0045166, 2.0655, -0.1584473, 2.0655, 3.8244274, 2.0655, 1.3129771, 2.0655, -2.7709923
0.2437941, -0.0132601, 2.07225, -0.015686, 2.07225, -1.0062256, 2.07225, -0.1596069, 2.07225, 4.0763359, 2.07225, 1.610687, 2.07225, -2.8778627
0.2445882, -0.0169528, 2.079, -0.019165, 2.079, -1.0079956, 2.079, -0.1583252, 2.079, 4.2977099, 2.079, 1.8931298, 2.079, -2.7938931
0.2453824, -0.014435, 2.08575, -0.0249634, 2.08575, -1.0056152, 2.08575, -0.1586914, 2.08575, 4.4351144, 2.08575, 1.961832, 2.08575, -2.8778627
0.2461765, -0.0152743, 2.0925, -0.0275879, 2.0925, -1.0077515, 2.0925, -0.1591797, 2.0925, 4.3053436, 2.0925, 1.7557251, 2.0925, -2.7251909
0.2469706, -0.0125887, 2.09925, -0.0290527, 2.09925, -1.0054321, 2.09925, -0.1540527, 2.09925, 4.6030536, 2.09925, 1.7557251, 2.09925, -2.8778627
0.2477647, -0.0102388, 2.106, -0.0300903, 2.106, -1.0045166, 2.106, -0.1543579, 2.106, 4.4122138, 2.106, 1.740458, 2.106, -2.7480917
0.2485588, -0.0124208, 2.11275, -0.0275879, 2.11275, -1.0036621, 2.11275, -0.151123, 2.11275, 4.5114503, 2.11275, 1.7938931, 2.11275, -2.6793892
0.2493529, -0.0115816, 2.1195, -0.026001, 2.1195, -1.0061035, 2.1195, -0.1472778, 2.1195, 4.4732823, 2.1195, 1.6030535, 2.1195, -2.8473282
0.2501471, -0.0095674, 2.12625, -0.0303345, 2.12625, -1.0054932, 2.12625, -0.1434326, 2.12625, 4.4732823, 2.12625, 1.5114504, 2.12625, -2.8931298
0.2509412, -0.0083925, 2.133, -0.026062, 2.133, -1.0036011, 2.133, -0.1470337, 2.133, 4.3893127, 2.133, 1.519084, 2.133, -3.1068702
0.2517353, -0.0102388, 2.13975, -0.0236816, 2.13975, -1.0018921, 2.13975, -0.1478882, 2.13975, 4.4198475, 2.13975, 1.5114504, 2.13975, -3.0305343
0.2525294, -0.0142672, 2.1465, -0.0223999, 2.1465, -1.0010986, 2.1465, -0.1436157, 2.1465, 4.3358779, 2.1465, 1.8015267, 2.1465, -2.7251909
0.2533235, -0.014435, 2.15325, -0.0241089, 2.15325, -1.0028076, 2.15325, -0.1454468, 2.15325, 4.4427481, 2.15325, 1.961832, 2.15325, -2.7709923
0.2541176, -0.0095674, 2.16, -0.0266724, 2.16, -1.0009155, 2.16, -0.142334, 2.16, 4.3664122, 2.16, 2.1526718, 2.16, -3
0.2549118, -0.0058747, 2.16675, -0.0270386, 2.16675, -1.0025024, 2.16675, -0.140625, 2.16675, 4.1297708, 2.16675, 2.3053436, 2.16675, -2.7709923
0.2557059, -0.005539, 2.1735, -0.0258179, 2.1735, -1.0026245, 2.1735, -0.1417236, 2.1735, 3.7633588, 2.1735, 1.8778626, 2.1735, -2.8778627
0.2565, -0.0072175, 2.18025, -0.0256348, 2.18025, -0.9995728, 2.18025, -0.1387939, 2.18025, 3.5267177, 2.18025, 1.8320611, 2.18025, -2.8625953
0.2572941, -0.0151064, 2.187, -0.0283813, 2.187, -1.0019531, 2.187, -0.1394043, 2.187, 3.2671757, 2.187, 1.4274809, 2.187, -2.870229
0.2580882, -0.0149386, 2.19375, -0.0289307, 2.19375, -1.0056763, 2.19375, -0.1326904, 2.19375, 2.8473282, 2.19375, 1.5114504, 2.19375, -2.9389312
0.2588824, -0.0142672, 2.2005, -0.02771, 2.2005, -1.0084839, 2.2005, -0.1279907, 2.2005, 2.8778627, 2.2005, 1.4961832, 2.2005, -2.7175572
0.2596765, -0.0162814, 2.20725, -0.0267944, 2.20725, -1.0050659, 2.20725, -0.130127, 2.20725, 2.740458, 2.20725, 1.5114504, 2.20725, -2.8244274
0.2604706, -0.0149386, 2.214, -0.0310669, 2.214, -1.0027466, 2.214, -0.1359863, 2.214, 2.4351146, 2.214, 1.2824427, 2.214, -2.8015268
0.2612647, -0.0152743, 2.22075, -0.031311, 2.22075, -1.0031128, 2.22075, -0.1343384, 2.22075, 2.3129771, 2.22075, 0.9694657, 2.22075, -2.8549619
0.2620588, -0.0169528, 2.2275, -0.0245361, 2.2275, -1.00177, 2.2275, -0.1320801, 2.2275, 2.2061069, 2.2275, 0.6870229, 2.2275, -3.0152671
0.2628529, -0.0196384, 2.23425, -0.0252686, 2.23425, -1.0024414, 2.23425, -0.1350708, 2.23425, 2.0839694, 2.23425, 0.6030535, 2.23425, -3.091603
0.2636471, -0.0151064, 2.241, -0.0273438, 2.241, -1.0015259, 2.241, -0.140625, 2.241, 2.0229008, 2.241, 0.6412213, 2.241, -2.9465649
0.2644412, -0.01561, 2.24775, -0.0304565, 2.24775, -0.9993286, 2.24775, -0.1473389, 2.24775, 1.8244275, 2.24775, 0.3969466, 2.24775, -2.8167939
0.2652353, -0.0209812, 2.2545, -0.0302124, 2.2545, -1.0009766, 2.2545, -0.1436157, 2.2545, 1.7175573, 2.2545, 0.2671756, 2.2545, -2.8625953
0.2660294, -0.0209812, 2.26125, -0.0292969, 2.26125, -1.0043945, 2.26125, -0.1415405, 2.26125, 1.9770992, 2.26125, -0.0916031, 2.26125, -3.1221373
0.2668235, -0.0193027, 2.268, -0.0328369, 2.268, -1.0040283, 2.268, -0.1425171, 2.268, 1.9236641, 2.268, -0.2748092, 2.268, -2.9923663
0.2676176, -0.0162814, 2.27475, -0.0263062, 2.27475, -1.0025024, 2.27475, -0.1427002, 2.27475, 1.8625954, 2.27475, -0.389313, 2.27475, -3.0305343
0.2684118, -0.0125887, 2.2815, -0.0274658, 2.2815, -1.0028076, 2.2815, -0.1414185, 2.2815, 1.4351145, 2.2815, -0.3282443, 2.2815, -2.8549619
0.2692059, -0.0112459, 2.28825, -0.0274658, 2.28825, -1.0036011, 2.28825, -0.1391602, 2.28825, 1.4885496, 2.28825, -0.6030535, 2.28825, -2.9160306
0.27, -0.012253, 2.295, -0.0251465, 2.295, -1.0009155, 2.295, -0.1401367, 2.295, 1.4656489, 2.295, -0.6564885, 2.295, -2.7938931
0.2707941, -0.0125887, 2.30175, -0.0234985, 2.30175, -1.0012817, 2.30175, -0.1437378, 2.30175, 1.7099236, 2.30175, -0.6259542, 2.30175, -2.8167939
0.2715882, -0.0099031, 2.3085, -0.0211182, 2.3085, -1.0025024, 2.3085, -0.1412354, 2.3085, 1.4427481, 2.3085, -0.5572519, 2.3085, -2.9312978
0.2723824, -0.008896, 2.31525, -0.017395, 2.31525, -1.0028076, 2.31525, -0.1413574, 2.31525, 1.5801526, 2.31525, -0.4122137, 2.31525, -2.9389312
0.2731765, -0.0137636, 2.322, -0.0189819, 2.322, -1.0070801, 2.322, -0.1397095, 2.322, 1.5801526, 2.322, -0.3358779, 2.322, -2.9923663
0.2739706, -0.0146029, 2.32875, -0.0200806, 2.32875, -1.0032959, 2.32875, -0.1393433, 2.32875, 1.5114504, 2.32875, -0.1755725, 2.32875, -2.9160306
0.2747647, -0.0112459, 2.3355, -0.0194702, 2.3355, -1.005188, 2.3355, -0.1430054, 2.3355, 1.5801526, 2.3355, -0.4198473, 2.3355, -2.7938931
0.2755588, -0.0115816, 2.34225, -0.0228271, 2.34225, -1.0046387, 2.34225, -0.1425781, 2.34225, 1.351145, 2.34225, -0.389313, 2.34225, -2.9312978
0.2763529, -0.0127565, 2.349, -0.0256958, 2.349, -1.0062256, 2.349, -0.144104, 2.349, 1.2748091, 2.349, -0.2671756, 2.349, -2.9160306
0.2771471, -0.0129244, 2.35575, -0.0250854, 2.35575, -1.0081787, 2.35575, -0.1437988, 2.35575, 1.3053435, 2.35575, -0.4351145, 2.35575, -2.7099237
0.2779412, -0.0142672, 2.3625, -0.0306396, 2.3625, -1.0018921, 2.3625, -0.1417847, 2.3625, 1.3664122, 2.3625, -0.6259542, 2.3625, -2.6717558
0.2787353, -0.0162814, 2.36925, -0.0278931, 2.36925, -1.0040894, 2.36925, -0.1390381, 2.36925, 1.4580153, 2.36925, -0.6946565, 2.36925, -2.6946564
0.2795294, -0.018967, 2.376, -0.0284424, 2.376, -1.0032959, 2.376, -0.1404419, 2.376, 1.5343511, 2.376, -0.5954198, 2.376, -2.740458
0.2803235, -0.018967, 2.38275, -0.02948, 2.38275, -1.0073242, 2.38275, -0.144165, 2.38275, 1.4961832, 2.38275, -0.8396947, 2.38275, -2.7633588
0.2811176, -0.0169528, 2.3895, -0.02771, 2.3895, -1.0057373, 2.3895, -0.1435547, 2.3895, 1.4961832, 2.3895, -1.0152671, 2.3895, -2.7022901
0.2819118, -0.0166171, 2.39625, -0.0240479, 2.39625, -1.0040894, 2.39625, -0.1429443, 2.39625, 1.4961832, 2.39625, -0.9694657, 2.39625, -2.7099237
0.2827059, -0.0203098, 2.403, -0.0209961, 2.403, -1.0046387, 2.403, -0.1486816, 2.403, 1.4961832, 2.403, -0.7022901, 2.403, -2.7175572
0.2835, -0.0172885, 2.40975, -0.0209961, 2.40975, -1.0050049, 2.40975, -0.145813, 2.40975, 1.4961832, 2.40975, -0.8473282, 2.40975, -2.6335878
0.2842941, -0.0152743, 2.4165, -0.0198975, 2.4165, -1.0068359, 2.4165, -0.1452637, 2.4165, 1.3969465, 2.4165, -0.7633588, 2.4165, -2.6870229
0.2850882, -0.014435, 2.42325, -0.0253296, 2.42325, -1.0081787, 2.42325, -0.1456299, 2.42325, 1.4580153, 2.42325, -0.5038168, 2.42325, -2.4885497
0.2858824, -0.0125887, 2.43, -0.0257568, 2.43, -1.0081787, 2.43, -0.1469116, 2.43, 1.3053435, 2.43, -0.0839695, 2.43, -2.3740458
0.2866765, -0.0062104, 2.43675, -0.0275269, 2.43675, -1.008728, 2.43675, -0.1455688, 2.43675, 1.4503816, 2.43675, -0.1374046, 2.43675, -2.4656489
0.2874706, -0.0072175, 2.4435, -0.0338135, 2.4435, -1.0028687, 2.4435, -0.144043, 2.4435, 1.1832061, 2.4435, -0.2977099, 2.4435, -2.4580152
0.2882647, -0.0075532, 2.45025, -0.0360718, 2.45025, -1.0021362, 2.45025, -0.1432495, 2.45025, 1.3435115, 2.45025, -0.7175573, 2.45025, -2.7251909
0.2890588, -0.0073854, 2.457, -0.0384521, 2.457, -1.0012817, 2.457, -0.1424561, 2.457, 1.4351145, 2.457, -0.778626, 2.457, -2.6030533
0.2898529, -0.0085603, 2.46375, -0.0292358, 2.46375, -1.0012207, 2.46375, -0.1428223, 2.46375, 1.3969465, 2.46375, -0.610687, 2.46375, -2.610687
0.2906471, -0.0075532, 2.4705, -0.0285034, 2.4705, -1.0018921, 2.4705, -0.1447754, 2.4705, 1.3587786, 2.4705, -0.610687, 2.4705, -2.5801528
0.2914412, -0.0129244, 2.47725, -0.0288696, 2.47725, -1.0036621, 2.47725, -0.1444702, 2.47725, 1.1374046, 2.47725, -0.7251908, 2.47725, -2.5572519
0.2922353, -0.0135958, 2.484, -0.0286865, 2.484, -1.0037842, 2.484, -0.1432495, 2.484, 0.9541985, 2.484, -0.740458, 2.484, -2.610687
0.2930294, -0.0112459, 2.49075, -0.0275269, 2.49075, -1.0041504, 2.49075, -0.1430054, 2.49075, 1.1526718, 2.49075, -0.740458, 2.49075, -2.8854961
0.2938235, -0.0162814, 2.4975, -0.031311, 2.4975, -1.0091553, 2.4975, -0.1471558, 2.4975, 1.0458015, 2.4975, -0.3129771, 2.4975, -2.8015268
0.2946176, -0.0166171, 2.50425, -0.0256958, 2.50425, -1.0089111, 2.50425, -0.1507568, 2.50425, 0.961832, 2.50425, 0.0458015, 2.50425, -2.6183207
0.2954118, -0.0193027, 2.511, -0.026123, 2.511, -1.0070801, 2.511, -0.1487427, 2.511, 0.870229, 2.511, -0.0076336, 2.511, -2.7175572
0.2962059, -0.0219883, 2.51775, -0.0292358, 2.51775, -1.010498, 2.51775, -0.1456299, 2.51775, 1, 2.51775, -0.1221374, 2.51775, -2.6946564
0.297, -0.0176242, 2.5245, -0.0320435, 2.5245, -1.0083618, 2.5245, -0.1455688, 2.5245, 1.1068702, 2.5245, 0.129771, 2.5245, -2.7862597
0.2977941, -0.0159457, 2.53125, -0.0283813, 2.53125, -1.0059204, 2.53125, -0.1451416, 2.53125, 1.1145039, 2.53125, 0.0152672, 2.53125, -2.7099237
0.2985882, -0.0171206, 2.538, -0.0285034, 2.538, -1.0044556, 2.538, -0.1468506, 2.538, 1.2900764, 2.538, 0.221374, 2.538, -2.6183207
0.2993824, -0.018967, 2.54475, -0.0250854, 2.54475, -1.0040894, 2.54475, -0.1495361, 2.54475, 1.3664122, 2.54475, 0.0381679, 2.54475, -2.5648854
0.3001765, -0.0102388, 2.5515, -0.0239258, 2.5515, -1.0039062, 2.5515, -0.1470337, 2.5515, 1.3664122, 2.5515, 0.0305344, 2.5515, -2.6946564
0.3009706, -0.0077211, 2.55825, -0.0213013, 2.55825, -1.0039673, 2.55825, -0.1452026, 2.55825, 1.2748091, 2.55825, 0.2671756, 2.55825, -2.6641221
0.3017647, -0.0095674, 2.565, -0.0214844, 2.565, -1.0044556, 2.565, -0.144043, 2.565, 1.519084, 2.565, 0.6412213, 2.565, -2.519084
0.3025588, -0.0082246, 2.57175, -0.0211792, 2.57175, -1.0043335, 2.57175, -0.1417847, 2.57175, 1.5419847, 2.57175, 0.6641222, 2.57175, -2.5038168
0.3033529, -0.0075532, 2.5785, -0.0229492, 2.5785, -1.0043335, 2.5785, -0.1443481, 2.5785, 1.5877863, 2.5785, 0.7709923, 2.5785, -2.5572519
0.3041471, -0.0112459, 2.58525, -0.0272827, 2.58525, -1.0076904, 2.58525, -0.1463623, 2.58525, 1.7709924, 2.58525, 0.8091603, 2.58525, -2.5343511
0.3049412, -0.0142672, 2.592, -0.0286865, 2.592, -1.0062866, 2.592, -0.1445312, 2.592, 1.7099236, 2.592, 0.7480916, 2.592, -2.5801528
0.3057353, -0.012253, 2.59875, -0.0286865, 2.59875, -1.005127, 2.59875, -0.1418457, 2.59875, 1.7328244, 2.59875, 0.8473282, 2.59875, -2.5114503
0.3065294, -0.0135958, 2.6055, -0.02948, 2.6055, -1.0057373, 2.6055, -0.1408691, 2.6055, 1.7709924, 2.6055, 1.038168, 2.6055, -2.6412213
0.3073235, -0.0142672, 2.61225, -0.0327148, 2.61225, -1.0056763, 2.61225, -0.145752, 2.61225, 1.9847329, 2.61225, 0.8854962, 2.61225, -2.5267177
0.3081176, -0.0135958, 2.619, -0.0301514, 2.619, -1.0040283, 2.619, -0.1484985, 2.619, 1.6183206, 2.619, 0.648855, 2.619, -2.6335878
0.3089118, -0.012253, 2.62575, -0.0299072, 2.62575, -1.0042725, 2.62575, -0.1494141, 2.62575, 1.6717557, 2.62575, 0.5954198, 2.62575, -2.3816793
0.3097059, -0.0142672, 2.6325, -0.0292358, 2.6325, -1.0062256, 2.6325, -0.1434937, 2.6325, 1.8091604, 2.6325, 0.740458, 2.6325, -2.3435113
0.3105, -0.0176242, 2.63925, -0.0301514, 2.63925, -1.0076904, 2.63925, -0.1420288, 2.63925, 1.6412214, 2.63925, 0.5801527, 2.63925, -2.3587787
0.3112941, -0.0186313, 2.646, -0.0250854, 2.646, -1.0032959, 2.646, -0.1473389, 2.646, 1.5038168, 2.646, 0.3129771, 2.646, -2.5725191
0.3120882, -0.0182956, 2.65275, -0.0278931, 2.65275, -1.0074463, 2.65275, -0.1459961, 2.65275, 1.4885496, 2.65275, 0.2977099, 2.65275, -2.5496182
0.3128824, -0.023331, 2.6595, -0.0269775, 2.6595, -1.005249, 2.6595, -0.142334, 2.6595, 1.6412214, 2.6595, 0.740458, 2.6595, -2.1984732
0.3136765, -0.0223239, 2.66625, -0.0205688, 2.66625, -1.0040894, 2.66625, -0.1434937, 2.66625, 1.6335878, 2.66625, 0.8091603, 2.66625, -2.1068702
0.3144706, -0.0203098, 2.673, -0.0206909, 2.673, -1.007019, 2.673, -0.1392822, 2.673, 1.5572519, 2.673, 0.6870229, 2.673, -2.1679389
0.3152647, -0.0196384, 2.67975, -0.0280762, 2.67975, -1.0056152, 2.67975, -0.1419678, 2.67975, 1.5954199, 2.67975, 0.6870229, 2.67975, -2.0687022
0.3160588, -0.014435, 2.6865, -0.0288086, 2.6865, -1.0043335, 2.6865, -0.1445312, 2.6865, 1.4580153, 2.6865, 0.8625954, 2.6865, -1.9770992
0.3168529, -0.0129244, 2.69325, -0.0289917, 2.69325, -1.003479, 2.69325, -0.1404419, 2.69325, 1.4351145, 2.69325, 0.8931298, 2.69325, -2.1526718
0.3176471, -0.0146029, 2.7, -0.0300293, 2.7, -1.0004883, 2.7, -0.1409912, 2.7, 1.3053435, 2.7, 0.6946565, 2.7, -2.129771
0.3184412, -0.0152743, 2.70675, -0.0327759, 2.70675, -1.0032959, 2.70675, -0.1375732, 2.70675, 1.3740458, 2.70675, 0.6335878, 2.70675, -2.0458016
0.3192353, -0.0135958, 2.7135, -0.0326538, 2.7135, -1.0083618, 2.7135, -0.1378784, 2.7135, 1.4198474, 2.7135, 0.6946565, 2.7135, -1.9465649
0.3200294, -0.0169528, 2.72025, -0.0348511, 2.72025, -1.0106812, 2.72025, -0.1358032, 2.72025, 1.4732825, 2.72025, 0.6870229, 2.72025, -2.0305343
0.3208235, -0.017792, 2.727, -0.0335693, 2.727, -1.007019, 2.727, -0.1358032, 2.727, 1.7099236, 2.727, 0.5648855, 2.727, -2.1679389
0.3216176, -0.0186313, 2.73375, -0.0325928, 2.73375, -1.0014648, 2.73375, -0.1358032, 2.73375, 1.7480916, 2.73375, 0.3282443, 2.73375, -2.0534351
0.3224118, -0.0219883, 2.7405, -0.0321655, 2.7405, -1.0056152, 2.7405, -0.1365356, 2.7405, 1.7175573, 2.7405, 0.1603053, 2.7405, -2.1526718
0.3232059, -0.0234989, 2.74725, -0.0334473, 2.74725, -1.0015869, 2.74725, -0.1373901, 2.74725, 1.7633588, 2.74725, 0.129771, 2.74725, -2.1603053
0.324, -0.0231632, 2.754, -0.0269775, 2.754, -1.00354, 2.754, -0.1378784, 2.754, 1.7175573, 2.754, 0.1374046, 2.754, -2.1603053
0.3247941, -0.0203098, 2.76075, -0.026062, 2.76075, -1.0054932, 2.76075, -0.1411743, 2.76075, 1.9160305, 2.76075, 0.5343512, 2.76075, -2
0.3255882, -0.0172885, 2.7675, -0.0274048, 2.7675, -1.0025024, 2.7675, -0.144104, 2.7675, 2.1755726, 2.7675, 0.6793893, 2.7675, -2.0992367
0.3263824, -0.0166171, 2.77425, -0.0278931, 2.77425, -1.000061, 2.77425, -0.1463013, 2.77425, 2.1603053, 2.77425, 0.8473282, 2.77425, -1.8244275
0.3271765, -0.0149386, 2.781, -0.0303955, 2.781, -1.0002441, 2.781, -0.1537476, 2.781, 2.038168, 2.781, 1.1068702, 2.781, -1.8167939
0.3279706, -0.0130922, 2.78775, -0.0240479, 2.78775, -1.0016479, 2.78775, -0.1553955, 2.78775, 2.1832061, 2.78775, 1.2748091, 2.78775, -1.6717557
0.3287647, -0.0102388, 2.7945, -0.0275879, 2.7945, -1.0023804, 2.7945, -0.1534424, 2.7945, 1.740458, 2.7945, 1.389313, 2.7945, -1.7557251
0.3295588, -0.0080568, 2.80125, -0.0327759, 2.80125, -1.0076294, 2.80125, -0.1504517, 2.80125, 1.7022901, 2.80125, 1.5343511, 2.80125, -1.5496184
0.3303529, -0.0068818, 2.808, -0.0307617, 2.808, -1.0074463, 2.808, -0.1444702, 2.808, 1.9847329, 2.808, 2.0992367, 2.808, -1.5496184
0.3311471, -0.0092317, 2.81475, -0.032959, 2.81475, -1.0091553, 2.81475, -0.1455688, 2.81475, 2.1603053, 2.81475, 2.0534351, 2.81475, -1.4885496
0.3319412, -0.0132601, 2.8215, -0.0359497, 2.8215, -1.0046387, 2.8215, -0.1450806, 2.8215, 2.4122138, 2.8215, 1.9160305, 2.8215, -1.480916
0.3327353, -0.0124208, 2.82825, -0.0365601, 2.82825, -1.0083008, 2.82825, -0.1473999, 2.82825, 2.6259542, 2.82825, 1.6412214, 2.82825, -1.8473282
0.3335294, -0.0119173, 2.835, -0.0361938, 2.835, -1.0101318, 2.835, -0.1467896, 2.835, 2.6564887, 2.835, 1.3053435, 2.835, -1.7328244
0.3343235, -0.011078, 2.84175, -0.0348511, 2.84175, -1.0078125, 2.84175, -0.1470337, 2.84175, 2.7175572, 2.84175, 1.3358779, 2.84175, -1.6183206
0.3351176, -0.0127565, 2.8485, -0.0355835, 2.8485, -1.0096436, 2.8485, -0.1472778, 2.8485, 3.0229008, 2.8485, 1.4580153, 2.8485, -1.648855
0.3359118, -0.0152743, 2.85525, -0.0358887, 2.85525, -1.0098877, 2.85525, -0.1427002, 2.85525, 2.8625953, 2.85525, 1.7938931, 2.85525, -1.870229
0.3367059, -0.021149, 2.862, -0.0368042, 2.862, -1.0081787, 2.862, -0.1416626, 2.862, 2.8396947, 2.862, 2.0229008, 2.862, -1.8244275
0.3375, -0.0206455, 2.86875, -0.0375366, 2.86875, -1.0073853, 2.86875, -0.1449585, 2.86875, 2.7099237, 2.86875, 1.9694656, 2.86875, -2.0534351
0.3382941, -0.0169528, 2.8755, -0.0411377, 2.8755, -1.0054321, 2.8755, -0.1485596, 2.8755, 2.5954199, 2.8755, 1.8625954, 2.8755, -1.7022901
0.3390882, -0.01561, 2.88225, -0.038208, 2.88225, -1.0057983, 2.88225, -0.1426392, 2.88225, 2.5725191, 2.88225, 2.2366412, 2.88225, -1.4351145
0.3398824, -0.0129244, 2.889, -0.0336304, 2.889, -1.0053711, 2.889, -0.1396484, 2.889, 3.0305343, 2.889, 1.9389313, 2.889, -1.5648855
0.3406765, -0.014435, 2.89575, -0.036499, 2.89575, -1.0036621, 2.89575, -0.1437378, 2.89575, 2.9770992, 2.89575, 2.0229008, 2.89575, -1.7099236
0.3414706, -0.0172885, 2.9025, -0.032959, 2.9025, -1.0028687, 2.9025, -0.1401367, 2.9025, 2.9770992, 2.9025, 2.389313, 2.9025, -1.740458
0.3422647, -0.0179599, 2.90925, -0.0283813, 2.90925, -1.0042114, 2.90925, -0.1439819, 2.90925, 3.0687022, 2.90925, 2.4885497, 2.90925, -1.4198474
0.3430588, -0.0166171, 2.916, -0.0284424, 2.916, -1.0031738, 2.916, -0.1411133, 2.916, 3.2137403, 2.916, 2.6259542, 2.916, -1.4503816
0.3438529, -0.0146029, 2.92275, -0.0252686, 2.92275, -1.0048218, 2.92275, -0.1370239, 2.92275, 3.129771, 2.92275, 2.908397, 2.92275, -1.5038168
0.3446471, -0.0124208, 2.9295, -0.0289307, 2.9295, -1.008728, 2.9295, -0.1362915, 2.9295, 3.1068702, 2.9295, 3.2519083, 2.9295, -1.4351145
0.3454412, -0.0135958, 2.93625, -0.0328979, 2.93625, -1.008728, 2.93625, -0.1347656, 2.93625, 3.0076337, 2.93625, 3.4732823, 2.93625, -1.4580153
0.3462353, -0.0102388, 2.943, -0.0363159, 2.943, -1.0106812, 2.943, -0.1325684, 2.943, 2.6793892, 2.943, 4.0305343, 2.943, -1.4122137
0.3470294, -0.008896, 2.94975, -0.0358276, 2.94975, -1.0081787, 2.94975, -0.1376343, 2.94975, 2.3358779, 2.94975, 4.3587785, 2.94975, -1.3664122
0.3478235, -0.008896, 2.9565, -0.0352173, 2.9565, -1.0074463, 2.9565, -0.1376343, 2.9565, 2.5114503, 2.9565, 3.6335878, 2.9565, -1.3282443
0.3486176, -0.0105745, 2.96325, -0.0390015, 2.96325, -1.0067139, 2.96325, -0.1399536, 2.96325, 2.6793892, 2.96325, 3.5954199, 2.96325, -1.4198474
0.3494118, -0.0102388, 2.97, -0.0411987, 2.97, -1.0075073, 2.97, -0.1422729, 2.97, 2.610687, 2.97, 3.6030533, 2.97, -1.6259542
0.3502059, -0.0095674, 2.97675, -0.0430908, 2.97675, -1.0079346, 2.97675, -0.1356201, 2.97675, 2.7251909, 2.97675, 3.5114503, 2.97675, -1.519084
0.351, -0.0045319, 2.9835, -0.0422974, 2.9835, -1.0055542, 2.9835, -0.1325684, 2.9835, 2.778626, 2.9835, 3.5419848, 2.9835, -1.3740458
0.3517941, -0.0015106, 2.99025, -0.0443726, 2.99025, -1.0042114, 2.99025, -0.133728, 2.99025, 2.8396947, 2.99025, 3.5801528, 2.99025, -1.6946565
0.3525882, -0.0006714, 2.997, -0.0421143, 2.997, -1.0056152, 2.997, -0.1364136, 2.997, 2.7175572, 2.997, 3.5572519, 2.997, -1.5038168
0.3533824, -0.0030213, 3.00375, -0.0443726, 3.00375, -1.0060425, 3.00375, -0.1323242, 3.00375, 2.8015268, 3.00375, 4.0839696, 3.00375, -1.4885496
0.3541765, -0.0048676, 3.0105, -0.0448608, 3.0105, -1.005188, 3.0105, -0.138916, 3.0105, 2.7633588, 3.0105, 4.0763359, 3.0105, -1.3740458
0.3549706, -0.0077211, 3.01725, -0.0449829, 3.01725, -1.0037842, 3.01725, -0.1431274, 3.01725, 2.9007633, 3.01725, 4.0076337, 3.01725, -1.519084
0.3557647, -0.0125887, 3.024, -0.0460815, 3.024, -1.0029907, 3.024, -0.1401978, 3.024, 2.7099237, 3.024, 3.7709923, 3.024, -1.4427481
0.3565588, -0.0162814, 3.03075, -0.0432739, 3.03075, -1.0075073, 3.03075, -0.1377563, 3.03075, 2.4122138, 3.03075, 3.0839694, 3.03075, -1.6412214
0.3573529, -0.0218204, 3.0375, -0.0388184, 3.0375, -1.0045166, 3.0375, -0.1382446, 3.0375, 2.1526718, 3.0375, 2.9389312, 3.0375, -1.870229
0.3581471, -0.0224918, 3.04425, -0.0471191, 3.04425, -1.003479, 3.04425, -0.1445923, 3.04425, 1.9236641, 3.04425, 1.9847329, 3.04425, -1.8931298
0.3589412, -0.0191348, 3.051, -0.0459595, 3.051, -1.0049438, 3.051, -0.1411133, 3.051, 2.0458016, 3.051, 1.9007634, 3.051, -2.0763359
0.3597353, -0.0162814, 3.05775, -0.0401611, 3.05775, -1.0079956, 3.05775, -0.1355591, 3.05775, 2.3969467, 3.05775, 1.961832, 3.05775, -1.9389313
0.3605294, -0.0174563, 3.0645, -0.0387573, 3.0645, -1.0059814, 3.0645, -0.1314697, 3.0645, 2.5419848, 3.0645, 2.0076337, 3.0645, -2.0992367
0.3613235, -0.0182956, 3.07125, -0.0410767, 3.07125, -1.0019531, 3.07125, -0.1318359, 3.07125, 2.4503818, 3.07125, 2.1755726, 3.07125, -2.0992367
0.3621176, -0.023331, 3.078, -0.0424194, 3.078, -1.0036011, 3.078, -0.1322632, 3.078, 2.4045801, 3.078, 1.9541985, 3.078, -2.0458016
0.3629118, -0.0231632, 3.08475, -0.0448608, 3.08475, -1.0045776, 3.08475, -0.1296387, 3.08475, 2.6412213, 3.08475, 1.5267175, 3.08475, -1.8931298
0.3637059, -0.0199741, 3.0915, -0.045166, 3.0915, -1.0048828, 3.0915, -0.1253662, 3.0915, 2.8396947, 3.0915, 1.5267175, 3.0915, -2.2061069
0.3645, -0.0176242, 3.09825, -0.0445557, 3.09825, -1.005127, 3.09825, -0.1259766, 3.09825, 2.740458, 3.09825, 1.4198474, 3.09825, -2.3129771
0.3652941, -0.0182956, 3.105, -0.0498657, 3.105, -1.003418, 3.105, -0.128479, 3.105, 2.7022901, 3.105, 1.091603, 3.105, -2.5572519
0.3660882, -0.0169528, 3.11175, -0.0516968, 3.11175, -1.0021973, 3.11175, -0.131958, 3.11175, 2.6870229, 3.11175, 0.6564885, 3.11175, -2.3816793
0.3668824, -0.0149386, 3.1185, -0.0501709, 3.1185, -1.0023804, 3.1185, -0.1273804, 3.1185, 2.4045801, 3.1185, 0.6183206, 3.1185, -2.3206108
0.3676765, -0.0129244, 3.12525, -0.0479736, 3.12525, -1.0016479, 3.12525, -0.1253052, 3.12525, 2.4274809, 3.12525, 0.6793893, 3.12525, -2.1984732
0.3684706, -0.0115816, 3.132, -0.0440063, 3.132, -1.00354, 3.132, -0.1261597, 3.132, 2.3664122, 3.132, 0.5648855, 3.132, -2.0839694
0.3692647, -0.012253, 3.13875, -0.0441895, 3.13875, -1.0080566, 3.13875, -0.1261597, 3.13875, 1.9847329, 3.13875, 0.8244275, 3.13875, -1.9923664
0.3700588, -0.0102388, 3.1455, -0.0408936, 3.1455, -1.0083008, 3.1455, -0.1279907, 3.1455, 2.0305343, 3.1455, 0.9847328, 3.1455, -2.091603
0.3708529, -0.0095674, 3.15225, -0.0408325, 3.15225, -1.0062866, 3.15225, -0.1293945, 3.15225, 2.1221373, 3.15225, 0.6030535, 3.15225, -2.091603
0.3716471, -0.0132601, 3.159, -0.0421143, 3.159, -1.0054321, 3.159, -0.1322632, 3.159, 1.8625954, 3.159, 0.2824427, 3.159, -2.1755726
0.3724412, -0.0115816, 3.16575, -0.0424194, 3.16575, -1.0060425, 3.16575, -0.1290283, 3.16575, 1.4580153, 3.16575, 0.2900763, 3.16575, -2.0458016
0.3732353, -0.0082246, 3.1725, -0.0437012, 3.1725, -1.0100708, 3.1725, -0.1288452, 3.1725, 1.5267175, 3.1725, 0.3740458, 3.1725, -2.1679389
0.3740294, -0.0095674, 3.17925, -0.0443115, 3.17925, -1.0095215, 3.17925, -0.1331177, 3.17925, 1.5725191, 3.17925, 0.1145038, 3.17925, -2.1679389
0.3748235, -0.0109102, 3.186, -0.0477295, 3.186, -1.0095825, 3.186, -0.1305542, 3.186, 1.6412214, 3.186, -0.1603053, 3.186, -2.4961832
0.3756176, -0.0139315, 3.19275, -0.048584, 3.19275, -1.0112915, 3.19275, -0.1296997, 3.19275, 1.5648855, 3.19275, -0.1908397, 3.19275, -2.480916
0.3764118, -0.0169528, 3.1995, -0.0540771, 3.1995, -1.0126343, 3.1995, -0.1339111, 3.1995, 1.519084, 3.1995, -0.3129771, 3.1995, -2.0992367
0.3772059, -0.0142672, 3.20625, -0.055603, 3.20625, -1.0115356, 3.20625, -0.1384277, 3.20625, 1.5038168, 3.20625, -0.4656489, 3.20625, -1.9541985
0.378, -0.0182956, 3.213, -0.048584, 3.213, -1.0177612, 3.213, -0.1370239, 3.213, 1.5648855, 3.213, -0.5343512, 3.213, -1.8091604
0.3787941, -0.0206455, 3.21975, -0.0458374, 3.21975, -1.0145264, 3.21975, -0.1359863, 3.21975, 1.6946565, 3.21975, -0.9389313, 3.21975, -1.8778626
0.3795882, -0.0221561, 3.2265, -0.0446777, 3.2265, -1.0123901, 3.2265, -0.1340942, 3.2265, 1.9007634, 3.2265, -1.0610687, 3.2265, -1.6717557
0.3803824, -0.0224918, 3.23325, -0.0400391, 3.23325, -1.010498, 3.23325, -0.1317139, 3.23325, 2.389313, 3.23325, -0.7251908, 3.23325, -1.389313
0.3811765, -0.0226596, 3.24, -0.0343628, 3.24, -1.0025635, 3.24, -0.1377563, 3.24, 2.4427481, 3.24, -0.2519084, 3.24, -1.3435115
0.3819706, -0.0256809, 3.24675, -0.0276489, 3.24675, -1.0021362, 3.24675, -0.1381226, 3.24675, 2.6946564, 3.24675, 0.3740458, 3.24675, -1.0534351
0.3827647, -0.0243381, 3.2535, -0.0294189, 3.2535, -1.0033569, 3.2535, -0.1372681, 3.2535, 3.1603053, 3.2535, 1.351145, 3.2535, -1.0305344
0.3835588, -0.0182956, 3.26025, -0.0360718, 3.26025, -0.9987183, 3.26025, -0.1460571, 3.26025, 3.0076337, 3.26025, 3.0610688, 3.26025, -0.6412213
0.3843529, -0.012253, 3.267, -0.0410156, 3.267, -0.9974976, 3.267, -0.1348877, 3.267, 2.8549619, 3.267, 3.610687, 3.267, -0.1145038
0.3851471, -0.0105745, 3.27375, -0.0435791, 3.27375, -0.9989624, 3.27375, -0.1305542, 3.27375, 3.038168, 3.27375, 3.961832, 3.27375, -0.1679389
0.3859412, -0.0109102, 3.2805, -0.0463867, 3.2805, -0.9978638, 3.2805, -0.1290894, 3.2805, 2.7557251, 3.2805, 3.6335878, 3.2805, -0.1526718
0.3867353, -0.0095674, 3.28725, -0.0421753, 3.28725, -0.99646, 3.28725, -0.131897, 3.28725, 2.5801528, 3.28725, 3.2366412, 3.28725, -0.2137405
0.3875294, -0.0102388, 3.294, -0.0438843, 3.294, -0.994812, 3.294, -0.1277466, 3.294, 2.6030533, 3.294, 2.7633588, 3.294, -0.2824427
0.3883235, -0.012253, 3.30075, -0.0429688, 3.30075, -1.0008545, 3.30075, -0.121521, 3.30075, 2.1068702, 3.30075, 2.3740458, 3.30075, -0.4198473
0.3891176, -0.0149386, 3.3075, -0.0356445, 3.3075, -1.0009155, 3.3075, -0.1166382, 3.3075, 2.0534351, 3.3075, 2.129771, 3.3075, -0.3969466
0.3899118, -0.0152743, 3.31425, -0.0267944, 3.31425, -1.003479, 3.31425, -0.1096191, 3.31425, 2, 3.31425, 2.961832, 3.31425, -0.5496183
0.3907059, -0.0166171, 3.321, -0.0227051, 3.321, -1.0031738, 3.321, -0.1082764, 3.321, 1.778626, 3.321, 3.4427481, 3.321, -0.389313
0.3915, -0.0176242, 3.32775, -0.0206909, 3.32775, -1.010376, 3.32775, -0.1108398, 3.32775, 1.7862595, 3.32775, 3.8549619, 3.32775, -0.4885496
0.3922941, -0.0142672, 3.3345, -0.0286865, 3.3345, -1.0081787, 3.3345, -0.1083374, 3.3345, 1.7251909, 3.3345, 4.5572519, 3.3345, -0.4198473
0.3930882, -0.0152743, 3.34125, -0.0289917, 3.34125, -1.0064087, 3.34125, -0.1195679, 3.34125, 2.0305343, 3.34125, 5.2061067, 3.34125, -0.1984733
0.3938824, -0.0164492, 3.348, -0.0303345, 3.348, -1.000061, 3.348, -0.1269531, 3.348, 1.2900764, 3.348, 4.9465647, 3.348, -0.1068702
0.3946765, -0.0169528, 3.35475, -0.0361328, 3.35475, -1.0023193, 3.35475, -0.1133423, 3.35475, 1.1068702, 3.35475, 3.3816793, 3.35475, -0.2824427
0.3954706, -0.0162814, 3.3615, -0.041748, 3.3615, -1.0040894, 3.3615, -0.1226807, 3.3615, 0.5648855, 3.3615, 2.6259542, 3.3615, -0.4732825
0.3962647, -0.012253, 3.36825, -0.0524902, 3.36825, -1.0061646, 3.36825, -0.1291504, 3.36825, 0.2748092, 3.36825, 2.3740458, 3.36825, -0.648855
0.3970588, -0.0102388, 3.375, -0.0512085, 3.375, -1.0068359, 3.375, -0.1206665, 3.375, -0.3435115, 3.375, 2.1603053, 3.375, -0.5725191
0.3978529, -0.0104067, 3.38175, -0.0508423, 3.38175, -1.0057373, 3.38175, -0.1166992, 3.38175, -0.3435115, 3.38175, 1.9389313, 3.38175, -0.3816794
0.3986471, -0.0129244, 3.3885, -0.0562744, 3.3885, -1.0021973, 3.3885, -0.1168823, 3.3885, -0.3587786, 3.3885, 1.5877863, 3.3885, -0.3816794
0.3994412, -0.0135958, 3.39525, -0.06073, 3.39525, -0.9998779, 3.39525, -0.1178589, 3.39525, -0.6946565, 3.39525, 1.1984733, 3.39525, -0.5648855
0.4002353, -0.012253, 3.402, -0.0639038, 3.402, -0.9968872, 3.402, -0.1209106, 3.402, -0.6641222, 3.402, 0.6259542, 3.402, -0.7633588
0.4010294, -0.0115816, 3.40875, -0.0577393, 3.40875, -0.9998779, 3.40875, -0.1191406, 3.40875, -0.5267175, 3.40875, 0.5343512, 3.40875, -0.7938932
0.4018235, -0.0149386, 3.4155, -0.0532837, 3.4155, -0.9981079, 3.4155, -0.1219482, 3.4155, -0.6183206, 3.4155, 0.4351145, 3.4155, -0.7251908
0.4026176, -0.012253, 3.42225, -0.0533447, 3.42225, -0.996582, 3.42225, -0.1228638, 3.42225, -0.961832, 3.42225, 0.3358779, 3.42225, -0.5725191
0.4034118, -0.0097353, 3.429, -0.0546875, 3.429, -1.0032959, 3.429, -0.1295166, 3.429, -1.1068702, 3.429, -0.0458015, 3.429, -0.8931298
0.4042059, -0.0115816, 3.43575, -0.052124, 3.43575, -1.0018921, 3.43575, -0.1258545, 3.43575, -1.0152671, 3.43575, -0.1908397, 3.43575, -0.9465649
0.405, -0.0082246, 3.4425, -0.0539551, 3.4425, -1.0068359, 3.4425, -0.1260376, 3.4425, -1.1145039, 3.4425, 0.0381679, 3.4425, -0.740458
0.4057941, -0.0124208, 3.44925, -0.0542603, 3.44925, -1.003418, 3.44925, -0.1270142, 3.44925, -0.8778626, 3.44925, 0.0152672, 3.44925, -0.6717557
0.4065882, -0.0164492, 3.456, -0.0545044, 3.456, -1.003418, 3.456, -0.1321411, 3.456, -0.9236641, 3.456, -0.0687023, 3.456, -0.6793893
0.4073824, -0.0140993, 3.46275, -0.0543823, 3.46275, -1.0011597, 3.46275, -0.1303711, 3.46275, -1.1832061, 3.46275, -0.4351145, 3.46275, -0.740458
0.4081765, -0.01561, 3.4695, -0.052063, 3.4695, -1.0021973, 3.4695, -0.1306152, 3.4695, -1.2061069, 3.4695, -0.5267175, 3.4695, -0.648855
0.4089706, -0.0203098, 3.47625, -0.0500488, 3.47625, -1.0014038, 3.47625, -0.1385498, 3.47625, -1.480916, 3.47625, -0.0916031, 3.47625, -0.5572519
0.4097647, -0.0213169, 3.483, -0.0507812, 3.483, -1.0022583, 3.483, -0.1411133, 3.483, -1.5419847, 3.483, 0.1526718, 3.483, -0.6335878
0.4105588, -0.0184634, 3.48975, -0.0493164, 3.48975, -1.0065308, 3.48975, -0.1394653, 3.48975, -1.2824427, 3.48975, 0.2061069, 3.48975, -0.5648855
0.4113529, -0.0166171, 3.4965, -0.0541992, 3.4965, -1.0085449, 3.4965, -0.1378784, 3.4965, -0.9541985, 3.4965, 0.6030535, 3.4965, -0.5572519
0.4121471, -0.018967, 3.50325, -0.0587769, 3.50325, -1.0025635, 3.50325, -0.1397095, 3.50325, -0.8091603, 3.50325, 0.8778626, 3.50325, -0.7022901
0.4129412, -0.0184634, 3.51, -0.0576782, 3.51, -1.0083008, 3.51, -0.1408691, 3.51, -0.8167939, 3.51, 0.6335878, 3.51, -0.7480916
0.4137353, -0.0162814, 3.51675, -0.0598755, 3.51675, -1.0083618, 3.51675, -0.1494751, 3.51675, -0.5496183, 3.51675, 0.7022901, 3.51675, -0.8625954
0.4145294, -0.0112459, 3.5235, -0.0605469, 3.5235, -1.0067139, 3.5235, -0.1488037, 3.5235, -0.4503817, 3.5235, 0.9007633, 3.5235, -0.870229
0.4153235, -0.0102388, 3.53025, -0.0657349, 3.53025, -1.0112915, 3.53025, -0.1494751, 3.53025, -0.4045801, 3.53025, 1.3129771, 3.53025, -0.6412213
0.4161176, -0.0095674, 3.537, -0.0640259, 3.537, -1.0084839, 3.537, -0.1500854, 3.537, -0.1145038, 3.537, 1.5725191, 3.537, -0.6564885
0.4169118, -0.0095674, 3.54375, -0.0653687, 3.54375, -1.0099487, 3.54375, -0.1513672, 3.54375, 0.0305344, 3.54375, 1.4427481, 3.54375, -0.5801527
0.4177059, -0.0112459, 3.5505, -0.0649414, 3.5505, -1.0100708, 3.5505, -0.1502075, 3.5505, 0.4274809, 3.5505, 1.5343511, 3.5505, -0.6641222
0.4185, -0.0119173, 3.55725, -0.0579834, 3.55725, -1.0094604, 3.55725, -0.1570435, 3.55725, 0.3816794, 3.55725, 2.038168, 3.55725, -0.6641222
0.4192941, -0.0109102, 3.564, -0.0549927, 3.564, -1.0075073, 3.564, -0.151123, 3.564, 0.3282443, 3.564, 1.9312977, 3.564, -0.6793893
0.4200882, -0.0112459, 3.57075, -0.0485229, 3.57075, -1.0100098, 3.57075, -0.144165, 3.57075, 0.5343512, 3.57075, 2.0610688, 3.57075, -0.5725191
0.4208824, -0.0152743, 3.5775, -0.0472412, 3.5775, -1.0139771, 3.5775, -0.1453247, 3.5775, 0.7251908, 3.5775, 2.0229008, 3.5775, -0.870229
0.4216765, -0.012253, 3.58425, -0.0501099, 3.58425, -1.0126343, 3.58425, -0.1463013, 3.58425, 0.8625954, 3.58425, 2.6946564, 3.58425, -0.7709923
0.4224706, -0.012253, 3.591, -0.0513306, 3.591, -1.0107422, 3.591, -0.1434326, 3.591, 1.038168, 3.591, 3.4961832, 3.591, -0.7633588
0.4232647, -0.0130922, 3.59775, -0.0516357, 3.59775, -1.0090332, 3.59775, -0.1384277, 3.59775, 1.2137405, 3.59775, 3.5954199, 3.59775, -0.6717557
0.4240588, -0.0109102, 3.6045, -0.0541382, 3.6045, -1.0095825, 3.6045, -0.1409912, 3.6045, 0.9389313, 3.6045, 3.8549619, 3.6045, -0.6717557
0.4248529, -0.0077211, 3.61125, -0.0633545, 3.61125, -1.0073853, 3.61125, -0.1444702, 3.61125, 0.8625954, 3.61125, 4.2137403, 3.61125, -0.7938932
0.4256471, -0.0085603, 3.618, -0.0645752, 3.618, -1.0076904, 3.618, -0.1444092, 3.618, 0.8549618, 3.618, 3.9007633, 3.618, -0.6641222
0.4264412, -0.0095674, 3.62475, -0.0641479, 3.62475, -1.0091553, 3.62475, -0.1409912, 3.62475, 0.8396947, 3.62475, 3.2290077, 3.62475, -0.7557252
0.4272353, -0.0119173, 3.6315, -0.0692749, 3.6315, -1.0047607, 3.6315, -0.1370239, 3.6315, 0.961832, 3.6315, 3.0610688, 3.6315, -0.8244275
0.4280294, -0.0146029, 3.63825, -0.0669556, 3.63825, -0.9995728, 3.63825, -0.1281738, 3.63825, 0.8015267, 3.63825, 3.1908398, 3.63825, -0.8244275
0.4288235, -0.012253, 3.645, -0.0714111, 3.645, -0.9952393, 3.645, -0.1322632, 3.645, 0.6183206, 3.645, 3.4274809, 3.645, -0.778626
0.4296176, -0.0119173, 3.65175, -0.0688477, 3.65175, -0.9981689, 3.65175, -0.1333008, 3.65175, 0.6793893, 3.65175, 3.1984732, 3.65175, -0.8320611
0.4304118, -0.0171206, 3.6585, -0.0646362, 3.6585, -1.005188, 3.6585, -0.1312256, 3.6585, 0.9236641, 3.6585, 3.0229008, 3.6585, -1.0076336
0.4312059, -0.0176242, 3.66525, -0.0600586, 3.66525, -1.0059204, 3.66525, -0.131958, 3.66525, 1.351145, 3.66525, 3.6870229, 3.66525, -0.9007633
0.432, -0.01561, 3.672, -0.0601807, 3.672, -1.0045776, 3.672, -0.1344604, 3.672, 1.4045801, 3.672, 4.2900763, 3.672, -1.1068702
0.4327941, -0.0139315, 3.67875, -0.0666504, 3.67875, -1.0031128, 3.67875, -0.1364136, 3.67875, 1.3053435, 3.67875, 4.6488547, 3.67875, -1.0076336
0.4335882, -0.0139315, 3.6855, -0.072937, 3.6855, -1.003418, 3.6855, -0.1434937, 3.6855, 1.3206106, 3.6855, 4.6870227, 3.6855, -0.908397
0.4343824, -0.0149386, 3.69225, -0.078125, 3.69225, -1.00354, 3.69225, -0.1438599, 3.69225, 1.1526718, 3.69225, 4.6030536, 3.69225, -0.9465649
0.4351765, -0.0132601, 3.699, -0.0750732, 3.699, -1.0054932, 3.699, -0.1416016, 3.699, 1.3816794, 3.699, 4.1068702, 3.699, -1.2137405
0.4359706, -0.0104067, 3.70575, -0.0747681, 3.70575, -1.0074463, 3.70575, -0.1427002, 3.70575, 1.351145, 3.70575, 3.8320611, 3.70575, -1.091603
0.4367647, -0.0112459, 3.7125, -0.0715942, 3.7125, -1.0084839, 3.7125, -0.1450195, 3.7125, 1.0992366, 3.7125, 3.4045801, 3.7125, -1.3587786
0.4375588, -0.0132601, 3.71925, -0.0752563, 3.71925, -1.0094604, 3.71925, -0.1417236, 3.71925, 1.0305344, 3.71925, 3.0229008, 3.71925, -1.3358779
0.4383529, -0.0149386, 3.726, -0.0709839, 3.726, -1.0115967, 3.726, -0.1393433, 3.726, 1.0839695, 3.726, 2.9541984, 3.726, -1.4122137
0.4391471, -0.0167849, 3.73275, -0.0698853, 3.73275, -1.0065918, 3.73275, -0.1361084, 3.73275, 1.6641221, 3.73275, 2.5801528, 3.73275, -1.519084
0.4399412, -0.0171206, 3.7395, -0.0640869, 3.7395, -1.0075073, 3.7395, -0.1356812, 3.7395, 1.6641221, 3.7395, 2.9312978, 3.7395, -1.5496184
0.4407353, -0.0166171, 3.74625, -0.0637817, 3.74625, -1.0048828, 3.74625, -0.1397705, 3.74625, 1.2519084, 3.74625, 2.8625953, 3.74625, -1.4427481
0.4415294, -0.0157778, 3.753, -0.0675049, 3.753, -1.0091553, 3.753, -0.1384888, 3.753, 1.0839695, 3.753, 2.7938931, 3.753, -1.3740458
0.4423235, -0.0129244, 3.75975, -0.0685425, 3.75975, -1.0079346, 3.75975, -0.1373291, 3.75975, 1.0839695, 3.75975, 2.8473282, 3.75975, -1.4503816
0.4431176, -0.0184634, 3.7665, -0.069519, 3.7665, -1.0083008, 3.7665, -0.1383057, 3.7665, 1.4045801, 3.7665, 2.870229, 3.7665, -1.5954199
0.4439118, -0.0218204, 3.77325, -0.0709229, 3.77325, -1.0077515, 3.77325, -0.1397095, 3.77325, 1.5038168, 3.77325, 2.8854961, 3.77325, -1.9236641
0.4447059, -0.0184634, 3.78, -0.0767212, 3.78, -1.0010376, 3.78, -0.1364136, 3.78, 1.351145, 3.78, 2.5725191, 3.78, -1.8931298
0.4455, -0.0154421, 3.78675, -0.0788574, 3.78675, -1.0026855, 3.78675, -0.130127, 3.78675, 0.9389313, 3.78675, 2.2977099, 3.78675, -1.8396946
0.4462941, -0.0119173, 3.7935, -0.0820312, 3.7935, -1.0007324, 3.7935, -0.1355591, 3.7935, 1.1984733, 3.7935, 1.8625954, 3.7935, -1.8244275
0.4470882, -0.0129244, 3.80025, -0.0772705, 3.80025, -0.9967651, 3.80025, -0.1375732, 3.80025, 1.3282443, 3.80025, 1.3664122, 3.80025, -1.8778626
0.4478824, -0.0166171, 3.807, -0.0723877, 3.807, -0.9989624, 3.807, -0.1400146, 3.807, 1.2137405, 3.807, 1.6030535, 3.807, -2.1374047
0.4486765, -0.0203098, 3.81375, -0.0700073, 3.81375, -1.0021973, 3.81375, -0.1364746, 3.81375, 0.7938932, 3.81375, 1.740458, 3.81375, -2.0534351
0.4494706, -0.0221561, 3.8205, -0.0733643, 3.8205, -1.0029907, 3.8205, -0.1360474, 3.8205, 0.8778626, 3.8205, 1.6259542, 3.8205, -2.2519083
0.4502647, -0.0191348, 3.82725, -0.0759888, 3.82725, -1.0072021, 3.82725, -0.1365967, 3.82725, 0.9465649, 3.82725, 1.4045801, 3.82725, -2.3282442
0.4510588, -0.0179599, 3.834, -0.0776367, 3.834, -1.0031128, 3.834, -0.1373901, 3.834, 1.091603, 3.834, 1.3435115, 3.834, -2.3740458
0.4518529, -0.0186313, 3.84075, -0.0820923, 3.84075, -1.0026855, 3.84075, -0.1365356, 3.84075, 0.8931298, 3.84075, 1.2442749, 3.84075, -2.3969467
0.4526471, -0.0162814, 3.8475, -0.0817261, 3.8475, -1.0008545, 3.8475, -0.1350098, 3.8475, 0.7480916, 3.8475, 0.7862595, 3.8475, -2.5877862
0.4534412, -0.0139315, 3.85425, -0.0812988, 3.85425, -1.0020142, 3.85425, -0.1348267, 3.85425, 1.038168, 3.85425, 0.5954198, 3.85425, -2.6870229
0.4542353, -0.0139315, 3.861, -0.079834, 3.861, -1.0036011, 3.861, -0.1347046, 3.861, 1.1450381, 3.861, 0.3435115, 3.861, -2.9923663
0.4550294, -0.0135958, 3.86775, -0.0776367, 3.86775, -1.0008545, 3.86775, -0.133728, 3.86775, 0.8931298, 3.86775, 0.0458015, 3.86775, -2.8625953
0.4558235, -0.0152743, 3.8745, -0.0714111, 3.8745, -1.0025024, 3.8745, -0.1332397, 3.8745, 0.8549618, 3.8745, -0.0381679, 3.8745, -2.9923663
0.4566176, -0.0176242, 3.88125, -0.0662842, 3.88125, -1.0021362, 3.88125, -0.1291504, 3.88125, 0.8931298, 3.88125, -0.0458015, 3.88125, -3.0534351
0.4574118, -0.0209812, 3.888, -0.0674438, 3.888, -1.0062866, 3.888, -0.1330566, 3.888, 0.6946565, 3.888, 0.1526718, 3.888, -3.0610688
0.4582059, -0.0203098, 3.89475, -0.0702515, 3.89475, -1.0047607, 3.89475, -0.1350708, 3.89475, 0.8091603, 3.89475, 0.389313, 3.89475, -3.1908398
0.459, -0.018967, 3.9015, -0.0747681, 3.9015, -1.0024414, 3.9015, -0.1369019, 3.9015, 0.9236641, 3.9015, 0.4427481, 3.9015, -3.2290077
0.4597941, -0.0172885, 3.90825, -0.0714722, 3.90825, -1.0027466, 3.90825, -0.1376953, 3.90825, 0.961832, 3.90825, 0.3358779, 3.90825, -3.221374
0.4605882, -0.0181277, 3.915, -0.0792236, 3.915, -1.0039062, 3.915, -0.1376953, 3.915, 1.0305344, 3.915, 0.0381679, 3.915, -3.3587787
0.4613824, -0.0206455, 3.92175, -0.0799561, 3.92175, -1.0050049, 3.92175, -0.140625, 3.92175, 0.961832, 3.92175, -0.0229008, 3.92175, -3.4274809
0.4621765, -0.0162814, 3.9285, -0.0765991, 3.9285, -1.0045776, 3.9285, -0.1424561, 3.9285, 0.8625954, 3.9285, -0.1984733, 3.9285, -3.4122138
0.4629706, -0.0157778, 3.93525, -0.0765991, 3.93525, -1.0063477, 3.93525, -0.1359253, 3.93525, 0.7862595, 3.93525, -0.2519084, 3.93525, -3.6793892
0.4637647, -0.01561, 3.942, -0.0778809, 3.942, -1.0064697, 3.942, -0.1368408, 3.942, 0.8091603, 3.942, 0.0610687, 3.942, -3.610687
0.4645588, -0.0149386, 3.94875, -0.0751953, 3.94875, -1.0081787, 3.94875, -0.1387939, 3.94875, 0.6641222, 3.94875, -0.1679389, 3.94875, -3.8015268
0.4653529, -0.0172885, 3.9555, -0.0738525, 3.9555, -1.0062866, 3.9555, -0.1320801, 3.9555, 0.7099237, 3.9555, -0.4732825, 3.9555, -4.0076337
0.4661471, -0.0159457, 3.96225, -0.0726318, 3.96225, -1.0050659, 3.96225, -0.130188, 3.96225, 0.9007633, 3.96225, -0.5954198, 3.96225, -3.8625953
0.4669412, -0.0152743, 3.969, -0.067627, 3.969, -1.0039673, 3.969, -0.1367798, 3.969, 0.8244275, 3.969, 0.0610687, 3.969, -3.8625953
0.4677353, -0.0129244, 3.97575, -0.0672607, 3.97575, -1.0041504, 3.97575, -0.1385498, 3.97575, 0.8244275, 3.97575, -0.1908397, 3.97575, -3.9770992
0.4685294, -0.0125887, 3.9825, -0.0658569, 3.9825, -1.0045166, 3.9825, -0.1343384, 3.9825, 0.6793893, 3.9825, -0.0076336, 3.9825, -3.9541984
0.4693235, -0.0125887, 3.98925, -0.0664062, 3.98925, -1.0047607, 3.98925, -0.1370239, 3.98925, 0.8854962, 3.98925, -0.0076336, 3.98925, -4.1374044
0.4701176, -0.0166171, 3.996, -0.0682373, 3.996, -1.0038452, 3.996, -0.1419067, 3.996, 1.1832061, 3.996, 0.129771, 3.996, -4.2290077
0.4709118, -0.0172885, 4.00275, -0.0701904, 4.00275, -1.0037842, 4.00275, -0.1445312, 4.00275, 1.0839695, 4.00275, 0.480916, 4.00275, -3.9389312
0.4717059, -0.0132601, 4.0095, -0.0708618, 4.0095, -1.0030518, 4.0095, -0.1420898, 4.0095, 0.9770992, 4.0095, 0.5954198, 4.0095, -4.1145039
0.4725, -0.012253, 4.01625, -0.0703735, 4.01625, -1.0053101, 4.01625, -0.1397705, 4.01625, 0.870229, 4.01625, 0.351145, 4.01625, -4.3435116
0.4732941, -0.0099031, 4.023, -0.0721436, 4.023, -1.0045776, 4.023, -0.1387329, 4.023, 1.1068702, 4.023, 0.2977099, 4.023, -4.480916
0.4740882, -0.0151064, 4.02975, -0.0710449, 4.02975, -1.003418, 4.02975, -0.1427612, 4.02975, 1.1603054, 4.02975, 0.221374, 4.02975, -4.6564884
0.4748824, -0.0154421, 4.0365, -0.0698853, 4.0365, -1.0002441, 4.0365, -0.1412354, 4.0365, 1.1221374, 4.0365, 0.5496183, 4.0365, -4.4427481
0.4756765, -0.0162814, 4.04325, -0.0702515, 4.04325, -1.0057983, 4.04325, -0.138855, 4.04325, 0.9312977, 4.04325, 0.4656489, 4.04325, -4.4656487
0.4764706, -0.0129244, 4.05, -0.0701904, 4.05, -1.0039673, 4.05, -0.1369019, 4.05, 1.1908396, 4.05, 0.3740458, 4.05, -4.4045801
0.4772647, -0.0130922, 4.05675, -0.0702515, 4.05675, -1.003479, 4.05675, -0.1353149, 4.05675, 1.259542, 4.05675, 0.0687023, 4.05675, -4.5496182
0.4780588, -0.0162814, 4.0635, -0.0701294, 4.0635, -1.0031738, 4.0635, -0.1389771, 4.0635, 1.3129771, 4.0635, 0.2900763, 4.0635, -4.7022901
0.4788529, -0.0149386, 4.07025, -0.0714111, 4.07025, -1.0032349, 4.07025, -0.1400757, 4.07025, 1.2442749, 4.07025, 0.5267175, 4.07025, -4.7099237
0.4796471, -0.0115816, 4.077, -0.0671387, 4.077, -1.0020142, 4.077, -0.1401367, 4.077, 1.2061069, 4.077, 0.1832061, 4.077, -4.7175574
0.4804412, -0.0078889, 4.08375, -0.0672607, 4.08375, -1.0037842, 4.08375, -0.1378784, 4.08375, 1.091603, 4.08375, -0.1679389, 4.08375, -4.6412215
0.4812353, -0.008896, 4.0905, -0.0673828, 4.0905, -1.0067139, 4.0905, -0.1353149, 4.0905, 1.4122137, 4.0905, -0.0458015, 4.0905, -4.9694657
0.4820294, -0.0082246, 4.09725, -0.0654907, 4.09725, -1.0066528, 4.09725, -0.1384277, 4.09725, 1.5954199, 4.09725, -0.0839695, 4.09725, -4.9465647
0.4828235, -0.008896, 4.104, -0.0622559, 4.104, -1.0053101, 4.104, -0.1417236, 4.104, 1.3587786, 4.104, 0.2137405, 4.104, -4.8320613
0.4836176, -0.0109102, 4.11075, -0.0639648, 4.11075, -1.0039062, 4.11075, -0.1431885, 4.11075, 1.4351145, 4.11075, 0.3053435, 4.11075, -4.8091602
0.4844118, -0.0052033, 4.1175, -0.0630493, 4.1175, -1.005127, 4.1175, -0.1390991, 4.1175, 1.5419847, 4.1175, 0.3358779, 4.1175, -5
0.4852059, -0.0031891, 4.12425, -0.065918, 4.12425, -1.00177, 4.12425, -0.1394653, 4.12425, 1.6946565, 4.12425, 0.259542, 4.12425, -5.038168
0.486, -0.0045319, 4.131, -0.0678711, 4.131, -1.0041504, 4.131, -0.1397095, 4.131, 1.6793894, 4.131, 0.2748092, 4.131, -4.9770994
0.4867941, -0.0005035, 4.13775, -0.0666504, 4.13775, -1.0015259, 4.13775, -0.1403198, 4.13775, 1.7328244, 4.13775, 0.351145, 4.13775, -4.8625956
0.4875882, -0.0028534, 4.1445, -0.0680542, 4.1445, -1.005127, 4.1445, -0.1382446, 4.1445, 1.8320611, 4.1445, 0.1984733, 4.1445, -4.9465647
0.4883824, -0.0087282, 4.15125, -0.0707397, 4.15125, -1.0048218, 4.15125, -0.1378174, 4.15125, 1.8549619, 4.15125, -0.3129771, 4.15125, -5.2900763
0.4891765, -0.0092317, 4.158, -0.071106, 4.158, -1.0063477, 4.158, -0.1350708, 4.158, 1.6793894, 4.158, -0.389313, 4.158, -5.3358779
0.4899706, -0.0058747, 4.16475, -0.0667725, 4.16475, -1.005188, 4.16475, -0.1361694, 4.16475, 1.8473282, 4.16475, -0.2977099, 4.16475, -5.2671757
0.4907647, -0.0078889, 4.1715, -0.0656738, 4.1715, -1.0006104, 4.1715, -0.1395264, 4.1715, 1.9007634, 4.1715, -0.0839695, 4.1715, -5.2519083
0.4915588, -0.012253, 4.17825, -0.0650024, 4.17825, -1.0039673, 4.17825, -0.1417236, 4.17825, 1.5496184, 4.17825, -0.1832061, 4.17825, -5.3282442
0.4923529, -0.012253, 4.185, -0.0626831, 4.185, -1.0006104, 4.185, -0.1414795, 4.185, 1.5496184, 4.185, -0.3129771, 4.185, -5.3587785
0.4931471, -0.0193027, 4.19175, -0.0605469, 4.19175, -1.0078125, 4.19175, -0.137146, 4.19175, 1.5572519, 4.19175, -0.2519084, 4.19175, -5.2061067
0.4939412, -0.0243381, 4.1985, -0.0596924, 4.1985, -1.0053711, 4.1985, -0.1345215, 4.1985, 1.5725191, 4.1985, -0.2366412, 4.1985, -5.4351144
0.4947353, -0.023331, 4.20525, -0.0606079, 4.20525, -1.0054932, 4.20525, -0.1341553, 4.20525, 1.5496184, 4.20525, -0.1908397, 4.20525, -5.4351144
0.4955294, -0.0243381, 4.212, -0.0594482, 4.212, -1.0060425, 4.212, -0.1311035, 4.212, 1.4351145, 4.212, -0.3129771, 4.212, -5.3053436
0.4963235, -0.023331, 4.21875, -0.0614014, 4.21875, -1.0050659, 4.21875, -0.1310425, 4.21875, 1.4961832, 4.21875, -0.5877863, 4.21875, -5.2824426
0.4971176, -0.0203098, 4.2255, -0.0594482, 4.2255, -1.0001221, 4.2255, -0.1307983, 4.2255, 1.389313, 4.2255, -0.6793893, 4.2255, -5.2900763
0.4979118, -0.0186313, 4.23225, -0.0595703, 4.23225, -1.0036011, 4.23225, -0.1376953, 4.23225, 1.4427481, 4.23225, -0.5496183, 4.23225, -5.3969464
0.4987059, -0.0182956, 4.239, -0.0576782, 4.239, -1.003479, 4.239, -0.1389771, 4.239, 1.4427481, 4.239, -0.4045801, 4.239, -5.3053436
0.4995, -0.0172885, 4.24575, -0.0566406, 4.24575, -1.0048218, 4.24575, -0.1340332, 4.24575, 1.7633588, 4.24575, -0.3129771, 4.24575, -5.2900763
0.5002941, -0.0105745, 4.2525, -0.0606689, 4.2525, -1.0014038, 4.2525, -0.1339111, 4.2525, 1.5648855, 4.2525, -0.5343512, 4.2525, -5.4045801
0.5010882, -0.0041962, 4.25925, -0.0606689, 4.25925, -1.0012817, 4.25925, -0.1340942, 4.25925, 1.6717557, 4.25925, -0.5954198, 4.25925, -5.5572519
0.5018824, -0.0072175, 4.266, -0.0615234, 4.266, -1.0039673, 4.266, -0.1358643, 4.266, 1.6412214, 4.266, -0.6564885, 4.266, -5.3129773
0.5026765, -0.0105745, 4.27275, -0.0623169, 4.27275, -1.006958, 4.27275, -0.133728, 4.27275, 1.7938931, 4.27275, -0.7328244, 4.27275, -5.4656487
0.5034706, -0.0135958, 4.2795, -0.0598145, 4.2795, -1.0064087, 4.2795, -0.1369019, 4.2795, 1.908397, 4.2795, -0.6870229, 4.2795, -5.5419846
0.5042647, -0.0159457, 4.28625, -0.055542, 4.28625, -1.0038452, 4.28625, -0.1348267, 4.28625, 1.7938931, 4.28625, -0.648855, 4.28625, -5.4580154
0.5050588, -0.0146029, 4.293, -0.0524292, 4.293, -1.0036011, 4.293, -0.1355591, 4.293, 1.7022901, 4.293, -0.6030535, 4.293, -5.3664122
0.5058529, -0.0149386, 4.29975, -0.057373, 4.29975, -1.0019531, 4.29975, -0.1373291, 4.29975, 1.8091604, 4.29975, -0.5954198, 4.29975, -5.3435116
0.5066471, -0.0169528, 4.3065, -0.0553589, 4.3065, -1.0038452, 4.3065, -0.135437, 4.3065, 1.6793894, 4.3065, -0.5343512, 4.3065, -5.3587785
0.5074412, -0.017792, 4.31325, -0.0528564, 4.31325, -1.0037842, 4.31325, -0.133667, 4.31325, 1.8625954, 4.31325, -0.5267175, 4.31325, -5.3511453
0.5082353, -0.0186313, 4.32, -0.0565796, 4.32, -1.0046997, 4.32, -0.1343384, 4.32, 1.8778626, 4.32, -0.648855, 4.32, -5.3282442
0.5090294, -0.0162814, 4.32675, -0.0549316, 4.32675, -1.003479, 4.32675, -0.1329346, 4.32675, 1.480916, 4.32675, -0.5114504, 4.32675, -5.1755724
0.5098235, -0.0129244, 4.3335, -0.0579224, 4.3335, -1.0081177, 4.3335, -0.1328735, 4.3335, 1.2824427, 4.3335, -0.648855, 4.3335, -5.2977099
0.5106176, -0.0135958, 4.34025, -0.0529175, 4.34025, -1.0061035, 4.34025, -0.1326294, 4.34025, 1.2900764, 4.34025, -0.6259542, 4.34025, -5.2900763
0.5114118, -0.0135958, 4.347, -0.050354, 4.347, -1.0047607, 4.347, -0.1360474, 4.347, 1.3587786, 4.347, -0.6946565, 4.347, -5.4045801
0.5122059, -0.0142672, 4.35375, -0.0491333, 4.35375, -1.0062256, 4.35375, -0.1369629, 4.35375, 1.4580153, 4.35375, -0.4122137, 4.35375, -5.3206105
0.513, -0.0125887, 4.3605, -0.0515137, 4.3605, -1.0057983, 4.3605, -0.1334229, 4.3605, 1.3587786, 4.3605, -0.5038168, 4.3605, -5.221374
0.5137941, -0.0105745, 4.36725, -0.0532837, 4.36725, -1.007019, 4.36725, -0.1378784, 4.36725, 1.4427481, 4.36725, -0.3206107, 4.36725, -5.3129773
0.5145882, -0.0102388, 4.374, -0.0523682, 4.374, -1.0057983, 4.374, -0.1386719, 4.374, 1.5648855, 4.374, -0.2748092, 4.374, -5.1984735
0.5153824, -0.0105745, 4.38075, -0.0515747, 4.38075, -1.0054932, 4.38075, -0.1373291, 4.38075, 1.3969465, 4.38075, -0.2442748, 4.38075, -5.1679387
0.5161765, -0.0104067, 4.3875, -0.057251, 4.3875, -1.0061646, 4.3875, -0.1373901, 4.3875, 1.3129771, 4.3875, -0.389313, 4.3875, -5.1374044
0.5169706, -0.0083925, 4.39425, -0.0575562, 4.39425, -1.0063477, 4.39425, -0.1369629, 4.39425, 1.259542, 4.39425, -0.5496183, 4.39425, -5.1526718
0.5177647, -0.0082246, 4.401, -0.0559082, 4.401, -1.0059814, 4.401, -0.1322632, 4.401, 1.2824427, 4.401, -0.3816794, 4.401, -4.9770994
0.5185588, -0.0105745, 4.40775, -0.0570679, 4.40775, -1.0060425, 4.40775, -0.1335449, 4.40775, 1.4427481, 4.40775, -0.4045801, 4.40775, -4.9083967
0.5193529, -0.012253, 4.4145, -0.052063, 4.4145, -1.0046997, 4.4145, -0.1348267, 4.4145, 1.5419847, 4.4145, -0.5267175, 4.4145, -4.8931298
0.5201471, -0.0112459, 4.42125, -0.0480957, 4.42125, -1.0044556, 4.42125, -0.1356201, 4.42125, 1.3816794, 4.42125, -0.5419847, 4.42125, -4.9083967
0.5209412, -0.0109102, 4.428, -0.0484009, 4.428, -1.0065918, 4.428, -0.1317139, 4.428, 1.0534351, 4.428, -0.480916, 4.428, -4.8167939
0.5217353, -0.0115816, 4.43475, -0.0472412, 4.43475, -1.0057983, 4.43475, -0.1317139, 4.43475, 1.038168, 4.43475, -0.221374, 4.43475, -4.8549619
0.5225294, -0.014435, 4.4415, -0.0494995, 4.4415, -1.0065918, 4.4415, -0.1322021, 4.4415, 1.1374046, 4.4415, 0.2977099, 4.4415, -4.9923663
0.5233235, -0.0146029, 4.44825, -0.0518188, 4.44825, -1.0092163, 4.44825, -0.1330566, 4.44825, 1.0839695, 4.44825, 0.5343512, 4.44825, -4.6106873
0.5241176, -0.0129244, 4.455, -0.0493164, 4.455, -1.0036011, 4.455, -0.1342163, 4.455, 1.0992366, 4.455, 0.4274809, 4.455, -4.6412215
0.5249118, -0.0083925, 4.46175, -0.0530396, 4.46175, -1.003479, 4.46175, -0.1339722, 4.46175, 1.0305344, 4.46175, 0.4732825, 4.46175, -4.5877862
0.5257059, -0.0052033, 4.4685, -0.0550537, 4.4685, -1.0057983, 4.4685, -0.1356812, 4.4685, 1.1068702, 4.4685, 0.3358779, 4.4685, -4.6564884
0.5265, -0.0028534, 4.47525, -0.0526733, 4.47525, -1.0048218, 4.47525, -0.1384277, 4.47525, 1.1068702, 4.47525, 0.221374, 4.47525, -4.6488547
0.5272941, -0.0065461, 4.482, -0.0529175, 4.482, -1.0032959, 4.482, -0.135376, 4.482, 1.0534351, 4.482, -0.2824427, 4.482, -4.5038166
0.5280882, -0.0119173, 4.48875, -0.0523682, 4.48875, -1.0058594, 4.48875, -0.1340942, 4.48875, 0.8320611, 4.48875, -0.3587786, 4.48875, -4.6870227
0.5288824, -0.0179599, 4.4955, -0.0448608, 4.4955, -1.0093994, 4.4955, -0.1291504, 4.4955, 0.8473282, 4.4955, 0, 4.4955, -4.5954199
0.5296765, -0.0203098, 4.50225, -0.0405884, 4.50225, -1.0083618, 4.50225, -0.133728, 4.50225, 0.9694657, 4.50225, 0.0839695, 4.50225, -4.6335878
0.5304706, -0.0179599, 4.509, -0.0422363, 4.509, -1.005188, 4.509, -0.1356201, 4.509, 0.9389313, 4.509, 0.2977099, 4.509, -4.3893127
0.5312647, -0.0176242, 4.51575, -0.043457, 4.51575, -1.0082397, 4.51575, -0.137085, 4.51575, 1.0610687, 4.51575, 0.6335878, 4.51575, -4.3816795
0.5320588, -0.018967, 4.5225, -0.0447388, 4.5225, -1.0061035, 4.5225, -0.1343994, 4.5225, 1.2061069, 4.5225, 0.8854962, 4.5225, -4.1068702
0.5328529, -0.0182956, 4.52925, -0.0472412, 4.52925, -1.0039673, 4.52925, -0.1353149, 4.52925, 1.3129771, 4.52925, 0.8091603, 4.52925, -4.1984735
0.5336471, -0.0191348, 4.536, -0.0518799, 4.536, -0.9998779, 4.536, -0.1381836, 4.536, 1.3969465, 4.536, 0.8473282, 4.536, -4.2824426
0.5344412, -0.0199741, 4.54275, -0.055603, 4.54275, -1.0009766, 4.54275, -0.1410522, 4.54275, 1.5648855, 4.54275, 0.9007633, 4.54275, -4.3358779
0.5352353, -0.0213169, 4.5495, -0.0568848, 4.5495, -1.0020142, 4.5495, -0.1368408, 4.5495, 1.3282443, 4.5495, 0.8244275, 4.5495, -4.2519083
0.5360294, -0.0169528, 4.55625, -0.0570068, 4.55625, -1.0039062, 4.55625, -0.1369019, 4.55625, 1.2900764, 4.55625, 0.3740458, 4.55625, -4.0610685
0.5368235, -0.0162814, 4.563, -0.057251, 4.563, -1.0041504, 4.563, -0.1384888, 4.563, 1.0152671, 4.563, 0.3969466, 4.563, -4.0687022
0.5376176, -0.0152743, 4.56975, -0.053894, 4.56975, -1.0056763, 4.56975, -0.1392212, 4.56975, 1.1755725, 4.56975, 0.4198473, 4.56975, -3.961832
0.5384118, -0.0149386, 4.5765, -0.0479126, 4.5765, -1.0042725, 4.5765, -0.1408081, 4.5765, 1.2519084, 4.5765, 0.389313, 4.5765, -4.0610685
0.5392059, -0.0135958, 4.58325, -0.0437622, 4.58325, -1.0028687, 4.58325, -0.135437, 4.58325, 1.1374046, 4.58325, 0.5419847, 4.58325, -3.9694657
0.54, -0.0137636, 4.59, -0.0410767, 4.59, -1.0053101, 4.59, -0.1293335, 4.59, 1, 4.59, 0.3435115, 4.59, -3.8396947
0.5407941, -0.0184634, 4.59675, -0.0437012, 4.59675, -1.0077515, 4.59675, -0.1343994, 4.59675, 0.961832, 4.59675, 0.5801527, 4.59675, -3.8625953
0.5415882, -0.0199741, 4.6035, -0.0431519, 4.6035, -1.0054932, 4.6035, -0.132019, 4.6035, 0.9694657, 4.6035, 0.9160305, 4.6035, -3.8167939
0.5423824, -0.0203098, 4.61025, -0.043457, 4.61025, -1.0102539, 4.61025, -0.1268311, 4.61025, 1.3053435, 4.61025, 0.8854962, 4.61025, -3.8396947
0.5431765, -0.0216526, 4.617, -0.0477295, 4.617, -1.0050049, 4.617, -0.1352539, 4.617, 1.4351145, 4.617, 0.8549618, 4.617, -3.7480917
0.5439706, -0.0218204, 4.62375, -0.0501099, 4.62375, -1.0056152, 4.62375, -0.1349487, 4.62375, 1.2748091, 4.62375, 0.6564885, 4.62375, -3.8244274
0.5447647, -0.0223239, 4.6305, -0.050415, 4.6305, -1.0048828, 4.6305, -0.1321411, 4.6305, 1.2824427, 4.6305, 0.389313, 4.6305, -3.7022901
0.5455588, -0.0216526, 4.63725, -0.0507812, 4.63725, -1.0019531, 4.63725, -0.130249, 4.63725, 1.5343511, 4.63725, 0.2137405, 4.63725, -3.9389312
0.5463529, -0.021149, 4.644, -0.0502319, 4.644, -1.00354, 4.644, -0.125, 4.644, 1.5725191, 4.644, -0.0381679, 4.644, -3.8854961
0.5471471, -0.0199741, 4.65075, -0.0484619, 4.65075, -1.0042725, 4.65075, -0.1274414, 4.65075, 1.2900764, 4.65075, -0.0305344, 4.65075, -3.8320611
0.5479412, -0.0198062, 4.6575, -0.0454102, 4.6575, -1.00177, 4.6575, -0.1261597, 4.6575, 1.3206106, 4.6575, 0.0610687, 4.6575, -3.9465649
0.5487353, -0.017792, 4.66425, -0.0460815, 4.66425, -1.0063477, 4.66425, -0.1244507, 4.66425, 1.3435115, 4.66425, 0.1526718, 4.66425, -3.8778627
0.5495294, -0.0154421, 4.671, -0.0439453, 4.671, -1.0031738, 4.671, -0.1282959, 4.671, 1.4198474, 4.671, 0.4427481, 4.671, -3.7709923
0.5503235, -0.012253, 4.67775, -0.0476074, 4.67775, -1.0050049, 4.67775, -0.1329346, 4.67775, 1.1908396, 4.67775, 0.6259542, 4.67775, -3.7862597
0.5511176, -0.012253, 4.6845, -0.0485229, 4.6845, -1.0043335, 4.6845, -0.1300049, 4.6845, 1.1450381, 4.6845, 0.6412213, 4.6845, -3.7938931
0.5519118, -0.0115816, 4.69125, -0.0506592, 4.69125, -0.9989014, 4.69125, -0.1283569, 4.69125, 1.2366412, 4.69125, 0.4961832, 4.69125, -3.6717558
0.5527059, -0.0105745, 4.698, -0.052002, 4.698, -1.0018921, 4.698, -0.1376953, 4.698, 1.129771, 4.698, 0.6183206, 4.698, -3.5877862
0.5535, -0.0129244, 4.70475, -0.0495605, 4.70475, -1.0002441, 4.70475, -0.1360474, 4.70475, 0.9465649, 4.70475, 0.3587786, 4.70475, -3.5038168
0.5542941, -0.0135958, 4.7115, -0.0540161, 4.7115, -1.0050049, 4.7115, -0.1347656, 4.7115, 0.9312977, 4.7115, -0.0610687, 4.7115, -3.5954199
0.5550882, -0.012253, 4.71825, -0.0516357, 4.71825, -1.0070801, 4.71825, -0.1365356, 4.71825, 0.9923664, 4.71825, -0.1679389, 4.71825, -3.8015268
0.5558824, -0.0083925, 4.725, -0.0447998, 4.725, -1.0046387, 4.725, -0.1331177, 4.725, 0.870229, 4.725, -0.1984733, 4.725, -3.7022901
0.5566765, -0.0078889, 4.73175, -0.0419922, 4.73175, -1.0046997, 4.73175, -0.1331787, 4.73175, 0.6946565, 4.73175, -0.4274809, 4.73175, -3.7175572
0.5574706, -0.0119173, 4.7385, -0.039917, 4.7385, -1.0058594, 4.7385, -0.1375732, 4.7385, 0.5725191, 4.7385, 0.1679389, 4.7385, -3.480916
0.5582647, -0.012253, 4.74525, -0.0388184, 4.74525, -1.0055542, 4.74525, -0.1323853, 4.74525, 0.519084, 4.74525, 0.221374, 4.74525, -3.519084
0.5590588, -0.0109102, 4.752, -0.0400391, 4.752, -1.0068359, 4.752, -0.1333618, 4.752, 0.7251908, 4.752, 0.6717557, 4.752, -3.3664122
0.5598529, -0.0140993, 4.75875, -0.041687, 4.75875, -1.0061646, 4.75875, -0.1321411, 4.75875, 0.8931298, 4.75875, 0.9465649, 4.75875, -3.2977099
0.5606471, -0.0182956, 4.7655, -0.0464478, 4.7655, -1.0079956, 4.7655, -0.1367798, 4.7655, 1.0076336, 4.7655, 0.8396947, 4.7655, -3.3664122
0.5614412, -0.0149386, 4.77225, -0.0524902, 4.77225, -1.0061035, 4.77225, -0.1322632, 4.77225, 0.8778626, 4.77225, 0.5572519, 4.77225, -3.4580152
0.5622353, -0.0142672, 4.779, -0.0570068, 4.779, -1.0033569, 4.779, -0.1333618, 4.779, 1.1068702, 4.779, 0.3358779, 4.779, -3.5954199
0.5630294, -0.0129244, 4.78575, -0.0552368, 4.78575, -1.001709, 4.78575, -0.1360474, 4.78575, 0.8473282, 4.78575, 0.2519084, 4.78575, -3.2824428
0.5638235, -0.0095674, 4.7925, -0.0534668, 4.7925, -1.0021973, 4.7925, -0.1329956, 4.7925, 0.9465649, 4.7925, -0.1374046, 4.7925, -3.3282442
0.5646176, -0.0117494, 4.79925, -0.0473022, 4.79925, -1.0053101, 4.79925, -0.1325073, 4.79925, 1.0076336, 4.79925, 0.0229008, 4.79925, -3.3129771
0.5654118, -0.0115816, 4.806, -0.0446167, 4.806, -1.00354, 4.806, -0.1325073, 4.806, 0.9236641, 4.806, 0.1526718, 4.806, -3.4351146
0.5662059, -0.0115816, 4.81275, -0.0438232, 4.81275, -1.0050049, 4.81275, -0.133606, 4.81275, 1.1374046, 4.81275, 0.2442748, 4.81275, -3.3358779
0.567, -0.0102388, 4.8195, -0.0446777, 4.8195, -1.0045166, 4.8195, -0.1337891, 4.8195, 1.0687023, 4.8195, 0.4656489, 4.8195, -3.3740458
0.5677941, -0.0135958, 4.82625, -0.0462036, 4.82625, -1.0075684, 4.82625, -0.1327515, 4.82625, 1.1603054, 4.82625, 0.6870229, 4.82625, -3.2748091
0.5685882, -0.012253, 4.833, -0.0457764, 4.833, -1.0101318, 4.833, -0.1298828, 4.833, 1.1755725, 4.833, 0.5496183, 4.833, -3.3358779
0.5693824, -0.0135958, 4.83975, -0.0444336, 4.83975, -1.0072632, 4.83975, -0.1307373, 4.83975, 1.1221374, 4.83975, 0.5496183, 4.83975, -3.3206108
0.5701765, -0.0174563, 4.8465, -0.0419312, 4.8465, -1.0040283, 4.8465, -0.1361084, 4.8465, 1.0992366, 4.8465, 0.5877863, 4.8465, -3.5648854
0.5709706, -0.0176242, 4.85325, -0.0430908, 4.85325, -1.0048218, 4.85325, -0.133606, 4.85325, 1.0305344, 4.85325, 0.7938932, 4.85325, -3.2824428
0.5717647, -0.0176242, 4.86, -0.0440674, 4.86, -1.0074463, 4.86, -0.132019, 4.86, 1.129771, 4.86, 0.8778626, 4.86, -3.3129771
0.5725588, -0.0204776, 4.86675, -0.0482788, 4.86675, -1.0057373, 4.86675, -0.1378174, 4.86675, 0.9541985, 4.86675, 0.8015267, 4.86675, -3.1832061
0.5733529, -0.0199741, 4.8735, -0.0472412, 4.8735, -1.0073853, 4.8735, -0.1365356, 4.8735, 1.0992366, 4.8735, 0.8167939, 4.8735, -3.2137403
0.5741471, -0.0169528, 4.88025, -0.0510254, 4.88025, -1.0073853, 4.88025, -0.1378784, 4.88025, 0.9541985, 4.88025, 0.9312977, 4.88025, -3.2290077
0.5749412, -0.0182956, 4.887, -0.0528564, 4.887, -1.006958, 4.887, -0.1370239, 4.887, 1.2061069, 4.887, 0.6870229, 4.887, -3.1603053
0.5757353, -0.0199741, 4.89375, -0.050415, 4.89375, -1.0040283, 4.89375, -0.1365356, 4.89375, 1.091603, 4.89375, 0.8015267, 4.89375, -3.1832061
0.5765294, -0.0226596, 4.9005, -0.055603, 4.9005, -1.0064697, 4.9005, -0.1369019, 4.9005, 0.9923664, 4.9005, 0.610687, 4.9005, -3.3129771
0.5773235, -0.0260166, 4.90725, -0.0532227, 4.90725, -1.0046997, 4.90725, -0.1384277, 4.90725, 0.9541985, 4.90725, 0.7022901, 4.90725, -3.2442749
0.5781176, -0.0260166, 4.914, -0.0507202, 4.914, -1.0054321, 4.914, -0.1372681, 4.914, 0.7633588, 4.914, 0.7480916, 4.914, -3.1221373
0.5789118, -0.0209812, 4.92075, -0.0418701, 4.92075, -1.0054321, 4.92075, -0.1332397, 4.92075, 0.9312977, 4.92075, 0.8473282, 4.92075, -3.0152671
0.5797059, -0.0176242, 4.9275, -0.0427246, 4.9275, -1.0076904, 4.9275, -0.1323853, 4.9275, 1.0229008, 4.9275, 0.6717557, 4.9275, -3.1526718
0.5805, -0.0127565, 4.93425, -0.0426636, 4.93425, -1.0085449, 4.93425, -0.1342163, 4.93425, 1.0076336, 4.93425, 0.5648855, 4.93425, -3.2519083
0.5812941, -0.0102388, 4.941, -0.0455933, 4.941, -1.0039673, 4.941, -0.1360474, 4.941, 0.778626, 4.941, 0.7022901, 4.941, -3.1450381
0.5820882, -0.0124208, 4.94775, -0.0449219, 4.94775, -1.0060425, 4.94775, -0.1334229, 4.94775, 0.6870229, 4.94775, 0.8778626, 4.94775, -3.0458016
0.5828824, -0.0117494, 4.9545, -0.0446777, 4.9545, -1.0066528, 4.9545, -0.1364136, 4.9545, 0.8091603, 4.9545, 0.8091603, 4.9545, -3.0076337
0.5836765, -0.0097353, 4.96125, -0.0460205, 4.96125, -1.0081787, 4.96125, -0.1316528, 4.96125, 0.8320611, 4.96125, 0.7480916, 4.96125, -3.0839694
0.5844706, -0.0119173, 4.968, -0.048584, 4.968, -1.0061035, 4.968, -0.133667, 4.968, 0.8015267, 4.968, 0.9541985, 4.968, -3.0687022
0.5852647, -0.0135958, 4.97475, -0.0472412, 4.97475, -1.0071411, 4.97475, -0.1348877, 4.97475, 0.7709923, 4.97475, 0.9770992, 4.97475, -2.9389312
0.5860588, -0.012253, 4.9815, -0.0487671, 4.9815, -1.006897, 4.9815, -0.1340332, 4.9815, 0.6259542, 4.9815, 1.221374, 4.9815, -2.8320611
0.5868529, -0.0125887, 4.98825, -0.0480957, 4.98825, -1.0077515, 4.98825, -0.1325073, 4.98825, 0.870229, 4.98825, 1.2366412, 4.98825, -2.8549619
0.5876471, -0.0149386, 4.995, -0.0473633, 4.995, -1.0065308, 4.995, -0.1345215, 4.995, 0.870229, 4.995, 1.038168, 4.995, -2.9007633
0.5884412, -0.0196384, 5.00175, -0.0499268, 5.00175, -1.0038452, 5.00175, -0.1368408, 5.00175, 1.038168, 5.00175, 0.9160305, 5.00175, -2.9541984
0.5892353, -0.0209812, 5.0085, -0.0501099, 5.0085, -1.0045776, 5.0085, -0.1385498, 5.0085, 1.0610687, 5.0085, 1.1755725, 5.0085, -2.9465649
0.5900294, -0.0154421, 5.01525, -0.0499878, 5.01525, -1.0036011, 5.01525, -0.1375122, 5.01525, 1.0305344, 5.01525, 1.1679389, 5.01525, -3.0076337
0.5908235, -0.0125887, 5.022, -0.0527344, 5.022, -1.0066528, 5.022, -0.135498, 5.022, 1.0305344, 5.022, 0.8625954, 5.022, -2.9312978
0.5916176, -0.0142672, 5.02875, -0.0505981, 5.02875, -1.0053711, 5.02875, -0.1342773, 5.02875, 1.1450381, 5.02875, 0.6564885, 5.02875, -3
0.5924118, -0.0142672, 5.0355, -0.0513916, 5.0355, -1.0046387, 5.0355, -0.1334229, 5.0355, 1.4351145, 5.0355, 0.5648855, 5.0355, -3.0305343
0.5932059, -0.0112459, 5.04225, -0.0480347, 5.04225, -1.00354, 5.04225, -0.1364136, 5.04225, 1.4122137, 5.04225, 0.9389313, 5.04225, -3.1221373
0.594, -0.0109102, 5.049, -0.0478516, 5.049, -1.007019, 5.049, -0.1376343, 5.049, 1.2977099, 5.049, 1.2824427, 5.049, -2.8396947
0.5947941, -0.0109102, 5.05575, -0.0472412, 5.05575, -1.0079956, 5.05575, -0.1350708, 5.05575, 1.3129771, 5.05575, 1.4045801, 5.05575, -2.8931298
0.5955882, -0.0115816, 5.0625, -0.0497437, 5.0625, -1.0075073, 5.0625, -0.132019, 5.0625, 1.3740458, 5.0625, 0.9465649, 5.0625, -3.0229008
0.5963824, -0.0142672, 5.06925, -0.0480957, 5.06925, -1.0054321, 5.06925, -0.1350098, 5.06925, 1.259542, 5.06925, 0.870229, 5.06925, -3.0839694
0.5971765, -0.0142672, 5.076, -0.0516968, 5.076, -1.0043945, 5.076, -0.1358032, 5.076, 1.0839695, 5.076, 0.9312977, 5.076, -3.0458016
0.5979706, -0.0157778, 5.08275, -0.0512085, 5.08275, -1.0073242, 5.08275, -0.1361084, 5.08275, 0.8778626, 5.08275, 0.8320611, 5.08275, -2.9160306
0.5987647, -0.0149386, 5.0895, -0.0473022, 5.0895, -1.0111084, 5.0895, -0.1343384, 5.0895, 0.480916, 5.0895, 0.6030535, 5.0895, -2.8091602
0.5995588, -0.0095674, 5.09625, -0.0465088, 5.09625, -1.0057983, 5.09625, -0.1312256, 5.09625, 0.4427481, 5.09625, 0.5572519, 5.09625, -2.9236641
0.6003529, -0.0095674, 5.103, -0.0482788, 5.103, -1.0049438, 5.103, -0.1346436, 5.103, 0.8091603, 5.103, 0.6946565, 5.103, -3.0458016
0.6011471, -0.0082246, 5.10975, -0.0495605, 5.10975, -1.0030518, 5.10975, -0.1333618, 5.10975, 0.9541985, 5.10975, 0.7175573, 5.10975, -3.0610688
0.6019412, -0.0114137, 5.1165, -0.0484009, 5.1165, -1.0070801, 5.1165, -0.1363525, 5.1165, 0.7557252, 5.1165, 0.8473282, 5.1165, -3
0.6027353, -0.0169528, 5.12325, -0.0505371, 5.12325, -1.0070801, 5.12325, -0.1350708, 5.12325, 0.7862595, 5.12325, 0.7251908, 5.12325, -2.908397
0.6035294, -0.0169528, 5.13, -0.0501709, 5.13, -1.0050049, 5.13, -0.1369629, 5.13, 1.0610687, 5.13, 0.4732825, 5.13, -2.9923663
0.6043235, -0.0149386, 5.13675, -0.0512085, 5.13675, -1.0028076, 5.13675, -0.1345825, 5.13675, 1.0305344, 5.13675, 0.4503817, 5.13675, -2.908397
0.6051176, -0.0146029, 5.1435, -0.0536499, 5.1435, -0.9998779, 5.1435, -0.1335449, 5.1435, 0.7938932, 5.1435, 0.5343512, 5.1435, -2.9312978
0.6059118, -0.0146029, 5.15025, -0.0507202, 5.15025, -1.0031738, 5.15025, -0.1341553, 5.15025, 0.7251908, 5.15025, 0.4885496, 5.15025, -2.908397
0.6067059, -0.0149386, 5.157, -0.0506592, 5.157, -1.0042725, 5.157, -0.1329346, 5.157, 0.9923664, 5.157, 0.3969466, 5.157, -3.0076337
0.6075, -0.0151064, 5.16375, -0.0485229, 5.16375, -1.0053101, 5.16375, -0.1322632, 5.16375, 0.9694657, 5.16375, 0.4351145, 5.16375, -2.961832
0.6082941, -0.0139315, 5.1705, -0.0516357, 5.1705, -1.0021362, 5.1705, -0.1314697, 5.1705, 0.8473282, 5.1705, 0.4198473, 5.1705, -3.0229008
0.6090882, -0.0171206, 5.17725, -0.0489502, 5.17725, -1.0048218, 5.17725, -0.1287842, 5.17725, 0.9389313, 5.17725, 0.5267175, 5.17725, -2.8931298
0.6098824, -0.0176242, 5.184, -0.0493164, 5.184, -1.0048828, 5.184, -0.1326904, 5.184, 1.2900764, 5.184, 0.4274809, 5.184, -3.0687022
0.6106765, -0.0193027, 5.19075, -0.0484009, 5.19075, -1.0040894, 5.19075, -0.1343384, 5.19075, 1.129771, 5.19075, 0.3358779, 5.19075, -2.9694657
0.6114706, -0.0184634, 5.1975, -0.0478516, 5.1975, -1.0071411, 5.1975, -0.1333618, 5.1975, 1.2977099, 5.1975, 0.3129771, 5.1975, -3.0687022
0.6122647, -0.0206455, 5.20425, -0.0524292, 5.20425, -1.008667, 5.20425, -0.1295776, 5.20425, 1.3206106, 5.20425, 0.3816794, 5.20425, -3.1603053
0.6130588, -0.021149, 5.211, -0.0515747, 5.211, -1.0083008, 5.211, -0.1323242, 5.211, 1.2366412, 5.211, 0.6183206, 5.211, -3.038168
0.6138529, -0.0179599, 5.21775, -0.0527344, 5.21775, -1.0081787, 5.21775, -0.1361084, 5.21775, 1.2442749, 5.21775, 0.5496183, 5.21775, -3.0458016
0.6146471, -0.0186313, 5.2245, -0.055542, 5.2245, -1.0062866, 5.2245, -0.1339722, 5.2245, 1.2748091, 5.2245, 0.610687, 5.2245, -3.1450381
0.6154412, -0.0146029, 5.23125, -0.0508423, 5.23125, -1.0027466, 5.23125, -0.1330566, 5.23125, 1.1984733, 5.23125, 0.4045801, 5.23125, -2.9312978
0.6162353, -0.0102388, 5.238, -0.0550537, 5.238, -1.0032959, 5.238, -0.1317139, 5.238, 1.1374046, 5.238, 0.3816794, 5.238, -3.1755726
0.6170294, -0.0075532, 5.24475, -0.0525513, 5.24475, -1.0048218, 5.24475, -0.1321411, 5.24475, 1.0229008, 5.24475, 0.2900763, 5.24475, -3.0305343
0.6178235, -0.0058747, 5.2515, -0.0476074, 5.2515, -1.0024414, 5.2515, -0.130188, 5.2515, 1.0992366, 5.2515, 0.4732825, 5.2515, -2.9541984
0.6186176, -0.0048676, 5.25825, -0.0484009, 5.25825, -1.0046997, 5.25825, -0.1314697, 5.25825, 1.389313, 5.25825, 0.6412213, 5.25825, -3.2366412
0.6194118, -0.0036927, 5.265, -0.0470581, 5.265, -1.0038452, 5.265, -0.1333618, 5.265, 1.1679389, 5.265, 1, 5.265, -3.1221373
0.6202059, -0.0036927, 5.27175, -0.0492554, 5.27175, -1.0037231, 5.27175, -0.1387939, 5.27175, 1.1374046, 5.27175, 0.8625954, 5.27175, -3.1755726
0.621, -0.005539, 5.2785, -0.0531006, 5.2785, -1.0039062, 5.2785, -0.1398926, 5.2785, 0.8091603, 5.2785, 0.9312977, 5.2785, -2.9694657
0.6217941, -0.0063783, 5.28525, -0.0527344, 5.28525, -1.0050049, 5.28525, -0.1334229, 5.28525, 0.8549618, 5.28525, 0.8778626, 5.28525, -2.9847329
0.6225882, -0.0058747, 5.292, -0.0535889, 5.292, -1.005249, 5.292, -0.131958, 5.292, 1.0076336, 5.292, 0.7557252, 5.292, -3
0.6233824, -0.0112459, 5.29875, -0.0543213, 5.29875, -1.0059204, 5.29875, -0.1364136, 5.29875, 0.908397, 5.29875, 0.6335878, 5.29875, -3.0763359
0.6241765, -0.0132601, 5.3055, -0.0515137, 5.3055, -1.008728, 5.3055, -0.1374512, 5.3055, 1.0458015, 5.3055, 0.610687, 5.3055, -3.221374
0.6249706, -0.0139315, 5.31225, -0.0505371, 5.31225, -1.0054321, 5.31225, -0.1361694, 5.31225, 1.1984733, 5.31225, 1.0152671, 5.31225, -3.2442749
0.6257647, -0.0164492, 5.319, -0.0518188, 5.319, -1.0039673, 5.319, -0.1333618, 5.319, 1.0229008, 5.319, 1.091603, 5.319, -3.0076337
0.6265588, -0.0115816, 5.32575, -0.052063, 5.32575, -1.0040283, 5.32575, -0.1328735, 5.32575, 0.9007633, 5.32575, 0.7862595, 5.32575, -3.1603053
0.6273529, -0.0162814, 5.3325, -0.050415, 5.3325, -1.0053711, 5.3325, -0.1314697, 5.3325, 1, 5.3325, 0.7862595, 5.3325, -3.2290077
0.6281471, -0.0139315, 5.33925, -0.0510864, 5.33925, -1.0036621, 5.33925, -0.133667, 5.33925, 1.2824427, 5.33925, 0.7709923, 5.33925, -3.2442749
0.6289412, -0.0070497, 5.346, -0.052002, 5.346, -1.00354, 5.346, -0.1356812, 5.346, 0.9770992, 5.346, 1.0152671, 5.346, -3.1068702
0.6297353, -0.005539, 5.35275, -0.0562134, 5.35275, -1.005249, 5.35275, -0.1353149, 5.35275, 1.1068702, 5.35275, 0.8549618, 5.35275, -3.2671757
0.6305294, -0.0082246, 5.3595, -0.0569458, 5.3595, -1.0077515, 5.3595, -0.1351318, 5.3595, 0.9770992, 5.3595, 0.610687, 5.3595, -3.1679389
0.6313235, -0.0135958, 5.36625, -0.0547485, 5.36625, -1.0095215, 5.36625, -0.1303101, 5.36625, 0.9007633, 5.36625, 0.3358779, 5.36625, -3.3129771
0.6321176, -0.0159457, 5.373, -0.0531616, 5.373, -1.0083008, 5.373, -0.1300659, 5.373, 1.1526718, 5.373, 0.2748092, 5.373, -3.4274809
0.6329118, -0.018967, 5.37975, -0.0482178, 5.37975, -1.0078735, 5.37975, -0.1318359, 5.37975, 1.0152671, 5.37975, 0.389313, 5.37975, -3.4351146
0.6337059, -0.0231632, 5.3865, -0.0454712, 5.3865, -1.008606, 5.3865, -0.1333008, 5.3865, 0.9160305, 5.3865, 0.3664122, 5.3865, -3.4961832
0.6345, -0.0253452, 5.39325, -0.0474854, 5.39325, -1.0093994, 5.39325, -0.1325684, 5.39325, 0.6641222, 5.39325, 0.2977099, 5.39325, -3.3587787
0.6352941, -0.0246738, 5.4, -0.0484009, 5.4, -1.006897, 5.4, -0.1326904, 5.4, 0.8396947, 5.4, 0.4885496, 5.4, -3.2824428
0.6360882, -0.0240024, 5.40675, -0.0453491, 5.40675, -1.0031738, 5.40675, -0.1367798, 5.40675, 0.9465649, 5.40675, 0.740458, 5.40675, -3.221374
0.6368824, -0.018967, 5.4135, -0.0432739, 5.4135, -1.003479, 5.4135, -0.1381836, 5.4135, 0.9007633, 5.4135, 0.8854962, 5.4135, -3.2366412
0.6376765, -0.0135958, 5.42025, -0.046936, 5.42025, -1.0059204, 5.42025, -0.1410522, 5.42025, 0.8931298, 5.42025, 0.9694657, 5.42025, -3.2519083
0.6384706, -0.0152743, 5.427, -0.048645, 5.427, -1.0054321, 5.427, -0.1373901, 5.427, 1.1221374, 5.427, 0.8625954, 5.427, -3.1374047
0.6392647, -0.0135958, 5.43375, -0.0496216, 5.43375, -1.0050049, 5.43375, -0.1380005, 5.43375, 1.1984733, 5.43375, 0.7709923, 5.43375, -3.1603053
0.6400588, -0.0142672, 5.4405, -0.0506592, 5.4405, -1.0043335, 5.4405, -0.1369629, 5.4405, 1.2366412, 5.4405, 0.778626, 5.4405, -3.1679389
0.6408529, -0.0167849, 5.44725, -0.0518799, 5.44725, -1.0046997, 5.44725, -0.1353149, 5.44725, 1.4198474, 5.44725, 0.7328244, 5.44725, -3.1374047
0.6416471, -0.0162814, 5.454, -0.0563965, 5.454, -1.0080566, 5.454, -0.133606, 5.454, 1.1908396, 5.454, 0.8015267, 5.454, -3.3358779
0.6424412, -0.0164492, 5.46075, -0.0519409, 5.46075, -1.0073242, 5.46075, -0.1310425, 5.46075, 1.2290076, 5.46075, 0.648855, 5.46075, -3.1755726
0.6432353, -0.0179599, 5.4675, -0.052124, 5.4675, -1.0064087, 5.4675, -0.1327515, 5.4675, 1.6335878, 5.4675, 0.7328244, 5.4675, -3.2748091
0.6440294, -0.0169528, 5.47425, -0.0541382, 5.47425, -1.0090332, 5.47425, -0.1328735, 5.47425, 1.4503816, 5.47425, 1.0076336, 5.47425, -3.2290077
0.6448235, -0.0193027, 5.481, -0.0548096, 5.481, -1.0056152, 5.481, -0.1341553, 5.481, 1.3740458, 5.481, 1.0839695, 5.481, -3.1832061
0.6456176, -0.0208133, 5.48775, -0.0496826, 5.48775, -1.0064087, 5.48775, -0.1358032, 5.48775, 1.3282443, 5.48775, 0.740458, 5.48775, -3.2519083
0.6464118, -0.0157778, 5.4945, -0.0498047, 5.4945, -1.0043335, 5.4945, -0.1346436, 5.4945, 1.5038168, 5.4945, 0.6412213, 5.4945, -3.3740458
0.6472059, -0.012253, 5.50125, -0.0476074, 5.50125, -1.0020752, 5.50125, -0.1349487, 5.50125, 1.259542, 5.50125, 0.7175573, 5.50125, -3.3053436
0.648, -0.0119173, 5.508, -0.0487671, 5.508, -1.0064087, 5.508, -0.133728, 5.508, 1.2519084, 5.508, 0.6564885, 5.508, -3.2824428
0.6487941, -0.0124208, 5.51475, -0.0518799, 5.51475, -1.0044556, 5.51475, -0.1333618, 5.51475, 1.0687023, 5.51475, 0.7862595, 5.51475, -3.2519083
0.6495882, -0.0090639, 5.5215, -0.0488281, 5.5215, -1.0041504, 5.5215, -0.1309204, 5.5215, 1, 5.5215, 0.9541985, 5.5215, -3.3129771
0.6503824, -0.011078, 5.52825, -0.0528564, 5.52825, -1.00354, 5.52825, -0.1335449, 5.52825, 1.1221374, 5.52825, 0.9312977, 5.52825, -3.2519083
0.6511765, -0.0135958, 5.535, -0.0499878, 5.535, -1.005188, 5.535, -0.1329956, 5.535, 1.1755725, 5.535, 1, 5.535, -3.2900763
0.6519706, -0.0112459, 5.54175, -0.050415, 5.54175, -1.0030518, 5.54175, -0.1351929, 5.54175, 1.1679389, 5.54175, 1.0458015, 5.54175, -3.2977099
0.6527647, -0.0104067, 5.5485, -0.0502319, 5.5485, -1.0056152, 5.5485, -0.1352539, 5.5485, 1.091603, 5.5485, 0.7633588, 5.5485, -3.1679389
0.6535588, -0.0112459, 5.55525, -0.0490112, 5.55525, -1.0036621, 5.55525, -0.1345825, 5.55525, 1.0534351, 5.55525, 0.6335878, 5.55525, -3.2824428
0.6543529, -0.0125887, 5.562, -0.0498047, 5.562, -1.0066528, 5.562, -0.1359253, 5.562, 1.2977099, 5.562, 0.6641222, 5.562, -3.3206108
0.6551471, -0.0085603, 5.56875, -0.048645, 5.56875, -1.0079346, 5.56875, -0.1326294, 5.56875, 1.0076336, 5.56875, 0.870229, 5.56875, -3.389313
0.6559412, -0.0075532, 5.5755, -0.0489502, 5.5755, -1.0039673, 5.5755, -0.1345825, 5.5755, 0.961832, 5.5755, 0.8244275, 5.5755, -3.259542
0.6567353, -0.0063783, 5.58225, -0.0513306, 5.58225, -1.0033569, 5.58225, -0.1348877, 5.58225, 0.9694657, 5.58225, 0.8396947, 5.58225, -3.5343511
0.6575294, -0.0072175, 5.589, -0.0491333, 5.589, -1.0054932, 5.589, -0.1343994, 5.589, 0.8396947, 5.589, 0.6717557, 5.589, -3.4045801
0.6583235, -0.0119173, 5.59575, -0.048645, 5.59575, -1.0054321, 5.59575, -0.1315308, 5.59575, 1.0152671, 5.59575, 0.8396947, 5.59575, -3.2977099
0.6591176, -0.0135958, 5.6025, -0.0530396, 5.6025, -1.0046997, 5.6025, -0.1331787, 5.6025, 1.1755725, 5.6025, 0.7480916, 5.6025, -3.3587787
0.6599118, -0.01561, 5.60925, -0.0534058, 5.60925, -1.0040894, 5.60925, -0.1309204, 5.60925, 1.1221374, 5.60925, 0.4198473, 5.60925, -3.3435113
0.6607059, -0.01561, 5.616, -0.0512085, 5.616, -1.0038452, 5.616, -0.133667, 5.616, 1.0687023, 5.616, 0.4427481, 5.616, -3.1679389
0.6615, -0.0102388, 5.62275, -0.0491333, 5.62275, -1.0073242, 5.62275, -0.133728, 5.62275, 1.0305344, 5.62275, 0.5648855, 5.62275, -3.4122138
0.6622941, -0.0149386, 5.6295, -0.0447388, 5.6295, -1.0074463, 5.6295, -0.1347656, 5.6295, 1.0839695, 5.6295, 0.5801527, 5.6295, -3.351145
0.6630882, -0.018967, 5.63625, -0.0447388, 5.63625, -1.0059814, 5.63625, -0.1357422, 5.63625, 1.1145039, 5.63625, 0.4122137, 5.63625, -3.3664122
0.6638824, -0.0152743, 5.643, -0.0454102, 5.643, -1.0056152, 5.643, -0.1323853, 5.643, 1.1068702, 5.643, 0.5343512, 5.643, -3.2824428
0.6646765, -0.0135958, 5.64975, -0.0461426, 5.64975, -1.0048828, 5.64975, -0.1306763, 5.64975, 1.0687023, 5.64975, 0.7557252, 5.64975, -3.221374
0.6654706, -0.0109102, 5.6565, -0.0444946, 5.6565, -1.0065918, 5.6565, -0.133667, 5.6565, 1.2290076, 5.6565, 0.5877863, 5.6565, -3.259542
0.6662647, -0.0085603, 5.66325, -0.0477905, 5.66325, -1.0072632, 5.66325, -0.1357422, 5.66325, 1.2671756, 5.66325, 0.6259542, 5.66325, -3.4045801
0.6670588, -0.0068818, 5.67, -0.0516968, 5.67, -1.0064087, 5.67, -0.1344604, 5.67, 1.2366412, 5.67, 0.7862595, 5.67, -3.4656489
0.6678529, -0.0085603, 5.67675, -0.052124, 5.67675, -1.0036011, 5.67675, -0.1358643, 5.67675, 1.3435115, 5.67675, 0.5877863, 5.67675, -3.4961832
0.6686471, -0.0115816, 5.6835, -0.0535889, 5.6835, -1.0054932, 5.6835, -0.1347656, 5.6835, 1.3435115, 5.6835, 0.3053435, 5.6835, -3.4503818
0.6694412, -0.0102388, 5.69025, -0.0522461, 5.69025, -1.0071411, 5.69025, -0.1343384, 5.69025, 1.3969465, 5.69025, 0.5343512, 5.69025, -3.4961832
0.6702353, -0.0142672, 5.697, -0.0519409, 5.697, -1.0044556, 5.697, -0.1334839, 5.697, 1.4885496, 5.697, 0.5419847, 5.697, -3.3816793
0.6710294, -0.0169528, 5.70375, -0.0471191, 5.70375, -1.0049438, 5.70375, -0.135498, 5.70375, 1.3282443, 5.70375, 0.3664122, 5.70375, -3.3664122
0.6718235, -0.0176242, 5.7105, -0.0489502, 5.7105, -1.0062866, 5.7105, -0.1397095, 5.7105, 1.2671756, 5.7105, 0.1374046, 5.7105, -3.3129771
0.6726176, -0.0243381, 5.71725, -0.0457153, 5.71725, -1.0062866, 5.71725, -0.1364746, 5.71725, 1.1984733, 5.71725, 0.2366412, 5.71725, -3.3435113
0.6734118, -0.0246738, 5.724, -0.046936, 5.724, -1.0049438, 5.724, -0.137146, 5.724, 1.0763359, 5.724, 0.5114504, 5.724, -3.4045801
0.6742059, -0.0203098, 5.73075, -0.0467529, 5.73075, -1.0070801, 5.73075, -0.1334839, 5.73075, 1.0076336, 5.73075, 0.2824427, 5.73075, -3.3587787
0.675, -0.0251774, 5.7375, -0.0509033, 5.7375, -1.0048828, 5.7375, -0.1334839, 5.7375, 1.1755725, 5.7375, 0.4198473, 5.7375, -3.4503818
