Application:, Trigno Discover (1.7.0)
Date/Time:, 2026/9/9 下午 02:41:16
Collection Length (seconds):, 115.4655
Avanti Sensor 11 (69574)
sensor mode: 50
EMG 1 Time Series (s), EMG 1 (mV), ACC X Time Series (s), ACC X (G), ACC Y Time Series (s), ACC Y (G), ACC Z Time Series (s), ACC Z (G), GYRO X Time Series (s), GYRO X (deg/s), GYRO Y Time Series (s), GYRO Y (deg/s), GYRO Z Time Series (s), GYRO Z (deg/s)
, 1259.2593 Hz, , 148.1481 Hz, , 148.1481 Hz, , 148.1481 Hz, , 148.1481 Hz, , 148.1481 Hz, , 148.1481 Hz
0, -0.0172885, 0, 0.1127319, 0, -0.9785156, 0, -0.3076782, 0, 1.038168, 0, 0.6030535, 0, -3.0687022
0.0007941, -0.0263523, 0.00675, 0.1138306, 0.00675, -0.9795532, 0.00675, -0.3062744, 0.00675, 0.8396947, 0.00675, 0.5496183, 0.00675, -3.1450381
0.0015882, -0.0209812, 0.0135, 0.1126099, 0.0135, -0.9785156, 0.0135, -0.3009644, 0.0135, 0.9160305, 0.0135, 0.5114504, 0.0135, -3.0305343
0.0023824, -0.0142672, 0.02025, 0.1096191, 0.02025, -0.9767456, 0.02025, -0.3036499, 0.02025, 0.961832, 0.02025, 0.5343512, 0.02025, -3.1374047
0.0031765, -0.0135958, 0.027, 0.1096802, 0.027, -0.9785767, 0.027, -0.3082886, 0.027, 0.9236641, 0.027, 0.778626, 0.027, -3.1755726
0.0039706, -0.0115816, 0.03375, 0.1141968, 0.03375, -0.9783936, 0.03375, -0.3059692, 0.03375, 1.1603054, 0.03375, 0.8015267, 0.03375, -3.1221373
0.0047647, -0.0139315, 0.0405, 0.1152954, 0.0405, -0.9790039, 0.0405, -0.3059692, 0.0405, 1.1603054, 0.0405, 0.8625954, 0.0405, -3.0687022
0.0055588, -0.01561, 0.04725, 0.1104126, 0.04725, -0.9749146, 0.04725, -0.3069458, 0.04725, 1.1221374, 0.04725, 1.0229008, 0.04725, -3.1832061
0.0063529, -0.0135958, 0.054, 0.1117554, 0.054, -0.9763794, 0.054, -0.3051147, 0.054, 1.1145039, 0.054, 0.870229, 0.054, -3.091603
0.0071471, -0.0132601, 0.06075, 0.1153564, 0.06075, -0.9766235, 0.06075, -0.3050537, 0.06075, 1, 0.06075, 0.6793893, 0.06075, -3.1068702
0.0079412, -0.0146029, 0.0675, 0.1147461, 0.0675, -0.9769287, 0.0675, -0.3041992, 0.0675, 1, 0.0675, 0.740458, 0.0675, -3.2519083
0.0087353, -0.0120851, 0.07425, 0.111145, 0.07425, -0.9760132, 0.07425, -0.3080444, 0.07425, 0.9312977, 0.07425, 0.7328244, 0.07425, -3.2519083
0.0095294, -0.0159457, 0.081, 0.1113281, 0.081, -0.9755249, 0.081, -0.3022461, 0.081, 0.8091603, 0.081, 0.870229, 0.081, -3.221374
0.0103235, -0.0169528, 0.08775, 0.1112671, 0.08775, -0.977356, 0.08775, -0.3054199, 0.08775, 1.1908396, 0.08775, 0.7709923, 0.08775, -3.1374047
0.0111176, -0.0176242, 0.0945, 0.1127319, 0.0945, -0.9785156, 0.0945, -0.3039551, 0.0945, 1.0229008, 0.0945, 0.7633588, 0.0945, -3.1984732
0.0119118, -0.0226596, 0.10125, 0.116272, 0.10125, -0.979248, 0.10125, -0.3054199, 0.10125, 1.038168, 0.10125, 1.0076336, 0.10125, -3.0763359
0.0127059, -0.0229953, 0.108, 0.1149902, 0.108, -0.9804688, 0.108, -0.3046875, 0.108, 1.091603, 0.108, 0.961832, 0.108, -3.0229008
0.0135, -0.0229953, 0.11475, 0.1168823, 0.11475, -0.9793091, 0.11475, -0.3052368, 0.11475, 0.9160305, 0.11475, 0.6412213, 0.11475, -3.0992367
0.0142941, -0.0172885, 0.1215, 0.1151733, 0.1215, -0.9795532, 0.1215, -0.3048706, 0.1215, 0.8854962, 0.1215, 0.6717557, 0.1215, -3.0992367
0.0150882, -0.0139315, 0.12825, 0.1161499, 0.12825, -0.9751587, 0.12825, -0.302063, 0.12825, 1.038168, 0.12825, 0.3587786, 0.12825, -2.9923663
0.0158824, -0.0125887, 0.135, 0.1173096, 0.135, -0.9744873, 0.135, -0.305603, 0.135, 0.7557252, 0.135, 0.6335878, 0.135, -3.0458016
0.0166765, -0.0125887, 0.14175, 0.1171265, 0.14175, -0.9779053, 0.14175, -0.3043823, 0.14175, 0.8549618, 0.14175, 0.7480916, 0.14175, -3.038168
0.0174706, -0.0109102, 0.1485, 0.1149292, 0.1485, -0.9777832, 0.1485, -0.303894, 0.1485, 0.9389313, 0.1485, 0.8244275, 0.1485, -2.8931298
0.0182647, -0.008896, 0.15525, 0.1138306, 0.15525, -0.9787598, 0.15525, -0.305481, 0.15525, 1.0152671, 0.15525, 0.8931298, 0.15525, -2.8167939
0.0190588, -0.0095674, 0.162, 0.109436, 0.162, -0.9781494, 0.162, -0.3047485, 0.162, 0.9847328, 0.162, 0.7709923, 0.162, -2.8320611
0.0198529, -0.0137636, 0.16875, 0.1117554, 0.16875, -0.9779663, 0.16875, -0.3058472, 0.16875, 0.5801527, 0.16875, 0.8167939, 0.16875, -3.1450381
0.0206471, -0.0159457, 0.1755, 0.1101685, 0.1755, -0.9782715, 0.1755, -0.3053589, 0.1755, 0.4656489, 0.1755, 0.8473282, 0.1755, -2.9694657
0.0214412, -0.01561, 0.18225, 0.1097412, 0.18225, -0.9805908, 0.18225, -0.3059082, 0.18225, 0.5725191, 0.18225, 0.908397, 0.18225, -3.0229008
0.0222353, -0.0149386, 0.189, 0.1115112, 0.189, -0.9803467, 0.189, -0.3040771, 0.189, 0.8167939, 0.189, 0.8473282, 0.189, -3.038168
0.0230294, -0.0176242, 0.19575, 0.1127319, 0.19575, -0.9761963, 0.19575, -0.3075562, 0.19575, 0.870229, 0.19575, 0.9312977, 0.19575, -3.091603
0.0238235, -0.0223239, 0.2025, 0.1124878, 0.2025, -0.9775391, 0.2025, -0.3043823, 0.2025, 0.4580153, 0.2025, 0.8778626, 0.2025, -2.9923663
0.0246176, -0.0223239, 0.20925, 0.1149902, 0.20925, -0.977356, 0.20925, -0.3065796, 0.20925, 0.6717557, 0.20925, 0.8396947, 0.20925, -3.091603
0.0254118, -0.0214847, 0.216, 0.116333, 0.216, -0.9814453, 0.216, -0.3045654, 0.216, 0.8320611, 0.216, 0.5877863, 0.216, -3.2137403
0.0262059, -0.0251774, 0.22275, 0.1113892, 0.22275, -0.9807129, 0.22275, -0.3047485, 0.22275, 0.908397, 0.22275, 0.8244275, 0.22275, -3.3587787
0.027, -0.0287022, 0.2295, 0.1151733, 0.2295, -0.9767456, 0.2295, -0.3067627, 0.2295, 0.9236641, 0.2295, 0.6412213, 0.2295, -3.3129771
0.0277941, -0.0276951, 0.23625, 0.116394, 0.23625, -0.9758911, 0.23625, -0.3036499, 0.23625, 1.1832061, 0.23625, 0.6717557, 0.23625, -3.3206108
0.0285882, -0.0240024, 0.243, 0.1139526, 0.243, -0.980957, 0.243, -0.3062744, 0.243, 1.1755725, 0.243, 0.9236641, 0.243, -3.1755726
0.0293824, -0.0223239, 0.24975, 0.1127319, 0.24975, -0.9796753, 0.24975, -0.3032227, 0.24975, 1.1068702, 0.24975, 0.961832, 0.24975, -3.0992367
0.0301765, -0.0193027, 0.2565, 0.1105347, 0.2565, -0.9806519, 0.2565, -0.3040771, 0.2565, 1.0534351, 0.2565, 0.8244275, 0.2565, -3.3587787
0.0309706, -0.0137636, 0.26325, 0.1096802, 0.26325, -0.9777222, 0.26325, -0.3051147, 0.26325, 1.2671756, 0.26325, 0.8167939, 0.26325, -3.091603
0.0317647, -0.0162814, 0.27, 0.1085205, 0.27, -0.9743652, 0.27, -0.3058472, 0.27, 1.038168, 0.27, 0.7022901, 0.27, -3.2366412
0.0325588, -0.014435, 0.27675, 0.1082153, 0.27675, -0.9769897, 0.27675, -0.3045654, 0.27675, 1.091603, 0.27675, 0.4961832, 0.27675, -3.3358779
0.0333529, -0.0139315, 0.2835, 0.1107788, 0.2835, -0.9732666, 0.2835, -0.3057251, 0.2835, 0.778626, 0.2835, 0.0839695, 0.2835, -3.2519083
0.0341471, -0.0137636, 0.29025, 0.1121826, 0.29025, -0.9793701, 0.29025, -0.3040771, 0.29025, 0.7938932, 0.29025, 0.0687023, 0.29025, -3.5801528
0.0349412, -0.0097353, 0.297, 0.1143188, 0.297, -0.979248, 0.297, -0.3028564, 0.297, 0.778626, 0.297, 0.259542, 0.297, -3.648855
0.0357353, -0.0099031, 0.30375, 0.1154785, 0.30375, -0.9805908, 0.30375, -0.3067017, 0.30375, 0.5114504, 0.30375, 0.4961832, 0.30375, -3.4732823
0.0365294, -0.0112459, 0.3105, 0.1167603, 0.3105, -0.9813232, 0.3105, -0.3088379, 0.3105, 0.6793893, 0.3105, 0.6183206, 0.3105, -3.2977099
0.0373235, -0.0068818, 0.31725, 0.1160889, 0.31725, -0.9782104, 0.31725, -0.3035278, 0.31725, 0.6259542, 0.31725, 0.870229, 0.31725, -3.2977099
0.0381176, -0.0023499, 0.324, 0.1169434, 0.324, -0.9754028, 0.324, -0.3040161, 0.324, 0.6793893, 0.324, 0.8549618, 0.324, -3.4274809
0.0389118, -0.002182, 0.33075, 0.1141968, 0.33075, -0.9761353, 0.33075, -0.3058472, 0.33075, 0.7022901, 0.33075, 0.7633588, 0.33075, -3.1679389
0.0397059, -0.005539, 0.3375, 0.1135254, 0.3375, -0.9769287, 0.3375, -0.3062744, 0.3375, 0.6793893, 0.3375, 0.6564885, 0.3375, -3.1679389
0.0405, -0.0075532, 0.34425, 0.1179199, 0.34425, -0.9764404, 0.34425, -0.3104858, 0.34425, 0.7328244, 0.34425, 0.8396947, 0.34425, -3.0687022
0.0412941, -0.0127565, 0.351, 0.1148071, 0.351, -0.9755249, 0.351, -0.3068848, 0.351, 0.7099237, 0.351, 0.5725191, 0.351, -3.0687022
0.0420882, -0.0152743, 0.35775, 0.1174927, 0.35775, -0.9748535, 0.35775, -0.3114014, 0.35775, 0.8244275, 0.35775, 0.8015267, 0.35775, -3.0839694
0.0428824, -0.0157778, 0.3645, 0.1146851, 0.3645, -0.9753418, 0.3645, -0.3106689, 0.3645, 0.6870229, 0.3645, 0.9389313, 0.3645, -2.9923663
0.0436765, -0.0172885, 0.37125, 0.1168213, 0.37125, -0.9796143, 0.37125, -0.3056641, 0.37125, 0.7022901, 0.37125, 1.0152671, 0.37125, -2.961832
0.0444706, -0.0169528, 0.378, 0.1152344, 0.378, -0.9775391, 0.378, -0.3070679, 0.378, 1, 0.378, 0.9160305, 0.378, -2.9541984
0.0452647, -0.0216526, 0.38475, 0.1170654, 0.38475, -0.9807739, 0.38475, -0.3071289, 0.38475, 1.0687023, 0.38475, 0.610687, 0.38475, -3.0076337
0.0460588, -0.0236667, 0.3915, 0.116333, 0.3915, -0.9803467, 0.3915, -0.3049316, 0.3915, 0.9541985, 0.3915, 0.8244275, 0.3915, -2.9847329
0.0468529, -0.018967, 0.39825, 0.1152954, 0.39825, -0.9807739, 0.39825, -0.3045044, 0.39825, 1.0152671, 0.39825, 0.8015267, 0.39825, -3.0458016
0.0476471, -0.0171206, 0.405, 0.1159668, 0.405, -0.9818726, 0.405, -0.3088379, 0.405, 1.0839695, 0.405, 0.908397, 0.405, -2.9465649
0.0484412, -0.0179599, 0.41175, 0.1165771, 0.41175, -0.9824829, 0.41175, -0.3051147, 0.41175, 0.9312977, 0.41175, 0.6946565, 0.41175, -2.8167939
0.0492353, -0.0159457, 0.4185, 0.1170654, 0.4185, -0.9793091, 0.4185, -0.3036499, 0.4185, 1, 0.4185, 0.9312977, 0.4185, -2.9923663
0.0500294, -0.0115816, 0.42525, 0.1124268, 0.42525, -0.9805298, 0.42525, -0.3047485, 0.42525, 1.2900764, 0.42525, 1.1984733, 0.42525, -2.9160306
0.0508235, -0.0112459, 0.432, 0.1122437, 0.432, -0.9772949, 0.432, -0.3060303, 0.432, 1.0610687, 0.432, 1.0992366, 0.432, -2.870229
0.0516176, -0.0109102, 0.43875, 0.1063232, 0.43875, -0.980957, 0.43875, -0.3087769, 0.43875, 1.1984733, 0.43875, 1.1068702, 0.43875, -2.8167939
0.0524118, -0.0135958, 0.4455, 0.105957, 0.4455, -0.9816284, 0.4455, -0.3041992, 0.4455, 1.1679389, 0.4455, 0.961832, 0.4455, -2.908397
0.0532059, -0.0193027, 0.45225, 0.1064453, 0.45225, -0.9794922, 0.45225, -0.3039551, 0.45225, 1.2290076, 0.45225, 0.8625954, 0.45225, -3.0610688
0.054, -0.0182956, 0.459, 0.1066895, 0.459, -0.9781494, 0.459, -0.3048096, 0.459, 1.1984733, 0.459, 0.6259542, 0.459, -3.1526718
0.0547941, -0.0125887, 0.46575, 0.1084595, 0.46575, -0.9772949, 0.46575, -0.3070068, 0.46575, 1.1679389, 0.46575, 0.7099237, 0.46575, -3.351145
0.0555882, -0.0135958, 0.4725, 0.1100464, 0.4725, -0.9732666, 0.4725, -0.3036499, 0.4725, 0.961832, 0.4725, 0.6030535, 0.4725, -3.0992367
0.0563824, -0.0142672, 0.47925, 0.1154175, 0.47925, -0.9766846, 0.47925, -0.3022461, 0.47925, 1.0152671, 0.47925, 0.5496183, 0.47925, -3.0534351
0.0571765, -0.0135958, 0.486, 0.1157227, 0.486, -0.9772339, 0.486, -0.305603, 0.486, 1.1679389, 0.486, 0.7022901, 0.486, -3.1603053
0.0579706, -0.0142672, 0.49275, 0.1136475, 0.49275, -0.9743042, 0.49275, -0.3022461, 0.49275, 0.8549618, 0.49275, 0.8931298, 0.49275, -3.1526718
0.0587647, -0.0166171, 0.4995, 0.1159058, 0.4995, -0.9723511, 0.4995, -0.3026123, 0.4995, 0.8473282, 0.4995, 0.9465649, 0.4995, -3.1755726
0.0595588, -0.0176242, 0.50625, 0.1153564, 0.50625, -0.9772949, 0.50625, -0.3040771, 0.50625, 0.8320611, 0.50625, 0.9389313, 0.50625, -2.9694657
0.0603529, -0.0182956, 0.513, 0.1133423, 0.513, -0.9776611, 0.513, -0.3067627, 0.513, 0.7557252, 0.513, 1.2900764, 0.513, -3.1145039
0.0611471, -0.0142672, 0.51975, 0.1127319, 0.51975, -0.977356, 0.51975, -0.309021, 0.51975, 0.778626, 0.51975, 1.4656489, 0.51975, -2.870229
0.0619412, -0.0166171, 0.5265, 0.1118164, 0.5265, -0.9805908, 0.5265, -0.3059692, 0.5265, 0.8167939, 0.5265, 1.3053435, 0.5265, -3.1450381
0.0627353, -0.0166171, 0.53325, 0.111084, 0.53325, -0.9838867, 0.53325, -0.3076782, 0.53325, 0.8320611, 0.53325, 1.0305344, 0.53325, -3.0839694
0.0635294, -0.0176242, 0.54, 0.1109009, 0.54, -0.9810791, 0.54, -0.3045044, 0.54, 0.870229, 0.54, 0.7709923, 0.54, -3.0610688
0.0643235, -0.0109102, 0.54675, 0.112854, 0.54675, -0.9802856, 0.54675, -0.305481, 0.54675, 0.9770992, 0.54675, 0.8244275, 0.54675, -3.2061069
0.0651176, -0.0104067, 0.5535, 0.1112671, 0.5535, -0.9797974, 0.5535, -0.3095093, 0.5535, 0.9312977, 0.5535, 0.8091603, 0.5535, -3.1755726
0.0659118, -0.0164492, 0.56025, 0.1159058, 0.56025, -0.9813232, 0.56025, -0.3075562, 0.56025, 0.8244275, 0.56025, 0.6717557, 0.56025, -3.1450381
0.0667059, -0.0162814, 0.567, 0.1138306, 0.567, -0.9798584, 0.567, -0.3032837, 0.567, 0.9236641, 0.567, 0.4045801, 0.567, -3.1679389
0.0675, -0.012253, 0.57375, 0.1152344, 0.57375, -0.9796753, 0.57375, -0.3064575, 0.57375, 0.8778626, 0.57375, 0.1374046, 0.57375, -3.1755726
0.0682941, -0.0070497, 0.5805, 0.1080933, 0.5805, -0.9770508, 0.5805, -0.3062744, 0.5805, 1.0305344, 0.5805, 0.4427481, 0.5805, -3.2748091
0.0690882, -0.0035248, 0.58725, 0.1135864, 0.58725, -0.9805908, 0.58725, -0.307251, 0.58725, 1.1145039, 0.58725, 0.2671756, 0.58725, -3.2900763
0.0698824, -0.0095674, 0.594, 0.1133423, 0.594, -0.977417, 0.594, -0.3054199, 0.594, 1.4198474, 0.594, 0.0763359, 0.594, -3.1221373
0.0706765, -0.0109102, 0.60075, 0.1138306, 0.60075, -0.9754028, 0.60075, -0.3071289, 0.60075, 1.2137405, 0.60075, -0.2519084, 0.60075, -3.2824428
0.0714706, -0.0112459, 0.6075, 0.1148682, 0.6075, -0.9780884, 0.6075, -0.303833, 0.6075, 1.2671756, 0.6075, -0.0839695, 0.6075, -3.2900763
0.0722647, -0.0099031, 0.61425, 0.1157227, 0.61425, -0.9779663, 0.61425, -0.302063, 0.61425, 1.1068702, 0.61425, 0.0381679, 0.61425, -3.2900763
0.0730588, -0.0132601, 0.621, 0.1173096, 0.621, -0.9782104, 0.621, -0.3054199, 0.621, 1.1832061, 0.621, 0.351145, 0.621, -3.2137403
0.0738529, -0.0219883, 0.62775, 0.1130981, 0.62775, -0.9813232, 0.62775, -0.3032227, 0.62775, 0.7862595, 0.62775, 0.5419847, 0.62775, -3.0534351
0.0746471, -0.0216526, 0.6345, 0.1175537, 0.6345, -0.9786987, 0.6345, -0.3018188, 0.6345, 0.870229, 0.6345, 0.5419847, 0.6345, -3
0.0754412, -0.0186313, 0.64125, 0.111084, 0.64125, -0.979126, 0.64125, -0.3059692, 0.64125, 0.778626, 0.64125, 0.778626, 0.64125, -3.0992367
0.0762353, -0.0253452, 0.648, 0.1126099, 0.648, -0.9789429, 0.648, -0.30896, 0.648, 0.5877863, 0.648, 0.8473282, 0.648, -3.1908398
0.0770294, -0.0261845, 0.65475, 0.1134644, 0.65475, -0.9788208, 0.65475, -0.3051758, 0.65475, 0.6564885, 0.65475, 0.9312977, 0.65475, -3.2519083
0.0778235, -0.0206455, 0.6615, 0.1120605, 0.6615, -0.9744873, 0.6615, -0.3087769, 0.6615, 0.5343512, 0.6615, 1.1832061, 0.6615, -3.1145039
0.0786176, -0.0209812, 0.66825, 0.1136475, 0.66825, -0.9768066, 0.66825, -0.30896, 0.66825, 0.7175573, 0.66825, 1.221374, 0.66825, -3.129771
0.0794118, -0.0238346, 0.675, 0.1090088, 0.675, -0.9817505, 0.675, -0.3081665, 0.675, 0.778626, 0.675, 1.1832061, 0.675, -3.2137403
0.0802059, -0.0213169, 0.68175, 0.1107788, 0.68175, -0.9769287, 0.68175, -0.3049927, 0.68175, 0.7022901, 0.68175, 1.0610687, 0.68175, -3.4580152
0.081, -0.0223239, 0.6885, 0.1096802, 0.6885, -0.9752808, 0.6885, -0.307251, 0.6885, 0.7022901, 0.6885, 1.0229008, 0.6885, -3.4427481
0.0817941, -0.0167849, 0.69525, 0.1116333, 0.69525, -0.9760742, 0.69525, -0.3045044, 0.69525, 0.9007633, 0.69525, 1.1679389, 0.69525, -3.3358779
0.0825882, -0.0129244, 0.702, 0.116333, 0.702, -0.9785156, 0.702, -0.3095093, 0.702, 0.8625954, 0.702, 0.9389313, 0.702, -3.1984732
0.0833824, -0.012253, 0.70875, 0.1173096, 0.70875, -0.9804077, 0.70875, -0.3056641, 0.70875, 0.8931298, 0.70875, 1.2366412, 0.70875, -3.3435113
0.0841765, -0.0162814, 0.7155, 0.1174316, 0.7155, -0.979187, 0.7155, -0.3031006, 0.7155, 0.961832, 0.7155, 1.221374, 0.7155, -3.351145
0.0849706, -0.0218204, 0.72225, 0.1175537, 0.72225, -0.9813843, 0.72225, -0.3051758, 0.72225, 1.0610687, 0.72225, 1.2900764, 0.72225, -3.1679389
0.0857647, -0.0226596, 0.729, 0.1171875, 0.729, -0.9771118, 0.729, -0.3071289, 0.729, 1.2442749, 0.729, 1.1908396, 0.729, -3.0610688
0.0865588, -0.0182956, 0.73575, 0.1156616, 0.73575, -0.9754639, 0.73575, -0.3052979, 0.73575, 1.1374046, 0.73575, 1.1221374, 0.73575, -3.0839694
0.0873529, -0.01561, 0.7425, 0.1118774, 0.7425, -0.9785156, 0.7425, -0.3057251, 0.7425, 0.961832, 0.7425, 1.038168, 0.7425, -3.1755726
0.0881471, -0.0139315, 0.74925, 0.1119995, 0.74925, -0.9766846, 0.74925, -0.3068237, 0.74925, 1.038168, 0.74925, 0.870229, 0.74925, -3.1374047
0.0889412, -0.0109102, 0.756, 0.1148682, 0.756, -0.9741211, 0.756, -0.3080444, 0.756, 1.1832061, 0.756, 0.9312977, 0.756, -3.0839694
0.0897353, -0.0070497, 0.76275, 0.112915, 0.76275, -0.9787598, 0.76275, -0.3078613, 0.76275, 1, 0.76275, 0.9923664, 0.76275, -2.9389312
0.0905294, -0.0075532, 0.7695, 0.109314, 0.7695, -0.9764404, 0.7695, -0.3078613, 0.7695, 0.7938932, 0.7695, 0.6030535, 0.7695, -3.1755726
0.0913235, -0.0082246, 0.77625, 0.1091309, 0.77625, -0.9765015, 0.77625, -0.3048096, 0.77625, 1.1450381, 0.77625, 0.1984733, 0.77625, -3.1068702
0.0921176, -0.0068818, 0.783, 0.1099243, 0.783, -0.9782104, 0.783, -0.3056641, 0.783, 1.3587786, 0.783, 0.1526718, 0.783, -3.0687022
0.0929118, -0.0075532, 0.78975, 0.1110229, 0.78975, -0.9776611, 0.78975, -0.3027954, 0.78975, 1.1832061, 0.78975, 0.1145038, 0.78975, -3.2366412
0.0937059, -0.0077211, 0.7965, 0.1153564, 0.7965, -0.9750366, 0.7965, -0.3057861, 0.7965, 1.1908396, 0.7965, 0.0458015, 0.7965, -3.2824428
0.0945, -0.01561, 0.80325, 0.114624, 0.80325, -0.9780884, 0.80325, -0.3088379, 0.80325, 1.1526718, 0.80325, 0.2366412, 0.80325, -3.2824428
0.0952941, -0.0167849, 0.81, 0.114502, 0.81, -0.9806519, 0.81, -0.3039551, 0.81, 1.0534351, 0.81, 0.3816794, 0.81, -3.0458016
0.0960882, -0.0142672, 0.81675, 0.1166382, 0.81675, -0.9783936, 0.81675, -0.3031006, 0.81675, 1.0458015, 0.81675, 0.5038168, 0.81675, -3.1908398
0.0968824, -0.0124208, 0.8235, 0.1154175, 0.8235, -0.9793701, 0.8235, -0.303772, 0.8235, 0.9007633, 0.8235, 0.7328244, 0.8235, -3.0839694
0.0976765, -0.008896, 0.83025, 0.114563, 0.83025, -0.9768677, 0.83025, -0.3040161, 0.83025, 0.9236641, 0.83025, 1.1450381, 0.83025, -3.2061069
0.0984706, -0.0072175, 0.837, 0.1150513, 0.837, -0.9799805, 0.837, -0.309082, 0.837, 0.9694657, 0.837, 1.091603, 0.837, -3.1374047
0.0992647, -0.0085603, 0.84375, 0.1151733, 0.84375, -0.9795532, 0.84375, -0.3063965, 0.84375, 0.8778626, 0.84375, 1.0839695, 0.84375, -3.1450381
0.1000588, -0.0068818, 0.8505, 0.1137085, 0.8505, -0.9812012, 0.8505, -0.3030396, 0.8505, 0.9160305, 0.8505, 1.3129771, 0.8505, -3.1221373
0.1008529, -0.0015106, 0.85725, 0.107666, 0.85725, -0.9807129, 0.85725, -0.303772, 0.85725, 0.8931298, 0.85725, 1.351145, 0.85725, -3.2748091
0.1016471, -0.0006714, 0.864, 0.109314, 0.864, -0.9745483, 0.864, -0.3067627, 0.864, 0.8854962, 0.864, 1.0839695, 0.864, -3.0305343
0.1024412, -0.0023499, 0.87075, 0.1082153, 0.87075, -0.9766846, 0.87075, -0.3099365, 0.87075, 0.870229, 0.87075, 1.129771, 0.87075, -3.0458016
0.1032353, -0.0062104, 0.8775, 0.1080322, 0.8775, -0.9778442, 0.8775, -0.3047485, 0.8775, 0.870229, 0.8775, 0.7709923, 0.8775, -3.4580152
0.1040294, -0.0109102, 0.88425, 0.1105957, 0.88425, -0.9753418, 0.88425, -0.307373, 0.88425, 1.0458015, 0.88425, 0.4503817, 0.88425, -3.3053436
0.1048235, -0.0149386, 0.891, 0.1112061, 0.891, -0.977417, 0.891, -0.3058472, 0.891, 0.7938932, 0.891, 0.1450382, 0.891, -3.5267177
0.1056176, -0.01561, 0.89775, 0.1149902, 0.89775, -0.9780884, 0.89775, -0.3071289, 0.89775, 0.7633588, 0.89775, 0.2137405, 0.89775, -3.4961832
0.1064118, -0.0132601, 0.9045, 0.1157837, 0.9045, -0.9793091, 0.9045, -0.3043213, 0.9045, 0.9236641, 0.9045, 0.2061069, 0.9045, -3.3129771
0.1072059, -0.0115816, 0.91125, 0.1168213, 0.91125, -0.9810181, 0.91125, -0.3032837, 0.91125, 0.9694657, 0.91125, 0.3358779, 0.91125, -3.389313
0.108, -0.0109102, 0.918, 0.116272, 0.918, -0.9797974, 0.918, -0.3041992, 0.918, 1.1068702, 0.918, 0.5267175, 0.918, -3.1603053
0.1087941, -0.01561, 0.92475, 0.1166992, 0.92475, -0.9780273, 0.92475, -0.3059692, 0.92475, 1.038168, 0.92475, 0.4580153, 0.92475, -3.3358779
0.1095882, -0.0224918, 0.9315, 0.1154175, 0.9315, -0.9785767, 0.9315, -0.3085938, 0.9315, 0.8625954, 0.9315, 0.5572519, 0.9315, -3.2519083
0.1103824, -0.0246738, 0.93825, 0.1143188, 0.93825, -0.9785156, 0.93825, -0.3093872, 0.93825, 0.9770992, 0.93825, 0.4427481, 0.93825, -3.0229008
0.1111765, -0.0226596, 0.945, 0.1173096, 0.945, -0.9795532, 0.945, -0.3047485, 0.945, 0.9694657, 0.945, 0.7480916, 0.945, -3.1755726
0.1119706, -0.0223239, 0.95175, 0.1179199, 0.95175, -0.9763184, 0.95175, -0.3067627, 0.95175, 0.961832, 0.95175, 0.961832, 0.95175, -3.2900763
0.1127647, -0.0270237, 0.9585, 0.1149902, 0.9585, -0.9794922, 0.9585, -0.3082886, 0.9585, 0.9694657, 0.9585, 1.0534351, 0.9585, -3.2061069
0.1135588, -0.0250095, 0.96525, 0.1123047, 0.96525, -0.9766846, 0.96525, -0.3096924, 0.96525, 0.7557252, 0.96525, 0.9770992, 0.96525, -3.0687022
0.1143529, -0.023331, 0.972, 0.1101074, 0.972, -0.9786987, 0.972, -0.3106689, 0.972, 0.9770992, 0.972, 0.8320611, 0.972, -3.0839694
0.1151471, -0.0209812, 0.97875, 0.1098022, 0.97875, -0.9783325, 0.97875, -0.3070679, 0.97875, 1.0076336, 0.97875, 0.908397, 0.97875, -3.0763359
0.1159412, -0.0196384, 0.9855, 0.1113892, 0.9855, -0.9779663, 0.9855, -0.3050537, 0.9855, 0.961832, 0.9855, 0.9847328, 0.9855, -3.3129771
0.1167353, -0.0243381, 0.99225, 0.1109009, 0.99225, -0.9768066, 0.99225, -0.3085938, 0.99225, 1.0839695, 0.99225, 0.7480916, 0.99225, -3.0992367
0.1175294, -0.0209812, 0.999, 0.1105347, 0.999, -0.9779053, 0.999, -0.3081055, 0.999, 1.0305344, 0.999, 0.7862595, 0.999, -3.0610688
0.1183235, -0.0199741, 1.00575, 0.1094971, 1.00575, -0.9779053, 1.00575, -0.305542, 1.00575, 0.9770992, 1.00575, 0.6564885, 1.00575, -2.961832
0.1191176, -0.0149386, 1.0125, 0.1116943, 1.0125, -0.9761353, 1.0125, -0.3027344, 1.0125, 1.0687023, 1.0125, 0.5496183, 1.0125, -2.9923663
0.1199118, -0.0075532, 1.01925, 0.1120605, 1.01925, -0.9770508, 1.01925, -0.3052979, 1.01925, 1.1068702, 1.01925, 0.4580153, 1.01925, -3.1068702
0.1207059, -0.0068818, 1.026, 0.112854, 1.026, -0.9815063, 1.026, -0.3016968, 1.026, 1.0229008, 1.026, 0.4351145, 1.026, -3.091603
0.1215, -0.0075532, 1.03275, 0.1125488, 1.03275, -0.9794922, 1.03275, -0.3074951, 1.03275, 1.1908396, 1.03275, 0.4656489, 1.03275, -3.0839694
0.1222941, -0.0102388, 1.0395, 0.116272, 1.0395, -0.9811401, 1.0395, -0.3056641, 1.0395, 1.0687023, 1.0395, 0.5572519, 1.0395, -3.351145
0.1230882, -0.0129244, 1.04625, 0.1150513, 1.04625, -0.9815063, 1.04625, -0.3063354, 1.04625, 1.1908396, 1.04625, 0.7022901, 1.04625, -3.3358779
0.1238824, -0.0152743, 1.053, 0.1149902, 1.053, -0.9812622, 1.053, -0.3035889, 1.053, 1.2519084, 1.053, 0.778626, 1.053, -3.3129771
0.1246765, -0.0162814, 1.05975, 0.1143188, 1.05975, -0.9821777, 1.05975, -0.3013306, 1.05975, 1.1908396, 1.05975, 0.9465649, 1.05975, -3.091603
0.1254706, -0.0166171, 1.0665, 0.1104126, 1.0665, -0.9761353, 1.0665, -0.3068848, 1.0665, 0.9541985, 1.0665, 1.0229008, 1.0665, -3.2671757
0.1262647, -0.0152743, 1.07325, 0.1091309, 1.07325, -0.9755249, 1.07325, -0.309082, 1.07325, 0.8778626, 1.07325, 0.5648855, 1.07325, -3.1832061
0.1270588, -0.0152743, 1.08, 0.1069946, 1.08, -0.9779663, 1.08, -0.3021851, 1.08, 0.8396947, 1.08, 0.2290076, 1.08, -3.3282442
0.1278529, -0.018967, 1.08675, 0.105835, 1.08675, -0.9799805, 1.08675, -0.302063, 1.08675, 0.7251908, 1.08675, 0.1908397, 1.08675, -3.3587787
0.1286471, -0.0176242, 1.0935, 0.1098633, 1.0935, -0.9804688, 1.0935, -0.3012085, 1.0935, 0.740458, 1.0935, 0.2137405, 1.0935, -3.4122138
0.1294412, -0.0142672, 1.10025, 0.1136475, 1.10025, -0.9815063, 1.10025, -0.3008423, 1.10025, 0.9389313, 1.10025, 0.4045801, 1.10025, -3.4885497
0.1302353, -0.0179599, 1.107, 0.1174316, 1.107, -0.9799805, 1.107, -0.3037109, 1.107, 0.9312977, 1.107, 0.5343512, 1.107, -3.519084
0.1310294, -0.0166171, 1.11375, 0.114624, 1.11375, -0.9772949, 1.11375, -0.3052368, 1.11375, 1, 1.11375, 0.6946565, 1.11375, -3.2671757
0.1318235, -0.0142672, 1.1205, 0.1160278, 1.1205, -0.9785767, 1.1205, -0.3013306, 1.1205, 0.648855, 1.1205, 0.6030535, 1.1205, -3.3129771
0.1326176, -0.0132601, 1.12725, 0.1138916, 1.12725, -0.9786987, 1.12725, -0.3034668, 1.12725, 0.648855, 1.12725, 0.6870229, 1.12725, -3.2137403
0.1334118, -0.0129244, 1.134, 0.1153564, 1.134, -0.9763794, 1.134, -0.3039551, 1.134, 0.8396947, 1.134, 0.908397, 1.134, -3.2977099
0.1342059, -0.012253, 1.14075, 0.114624, 1.14075, -0.9758911, 1.14075, -0.3047485, 1.14075, 0.870229, 1.14075, 0.9541985, 1.14075, -3.0839694
0.135, -0.0149386, 1.1475, 0.114502, 1.1475, -0.9758911, 1.1475, -0.3078003, 1.1475, 1.2519084, 1.1475, 0.7480916, 1.1475, -3.1832061
0.1357941, -0.012253, 1.15425, 0.1135864, 1.15425, -0.9732666, 1.15425, -0.3094482, 1.15425, 1.2748091, 1.15425, 0.8625954, 1.15425, -3.0839694
0.1365882, -0.0142672, 1.161, 0.1137085, 1.161, -0.9760742, 1.161, -0.3128052, 1.161, 1.129771, 1.161, 1.1450381, 1.161, -3.0076337
0.1373824, -0.01561, 1.16775, 0.1100464, 1.16775, -0.9746704, 1.16775, -0.3095093, 1.16775, 1.2366412, 1.16775, 1.0229008, 1.16775, -2.9847329
0.1381765, -0.014435, 1.1745, 0.1159058, 1.1745, -0.9801636, 1.1745, -0.3078003, 1.1745, 1.1221374, 1.1745, 0.5648855, 1.1745, -3.0076337
0.1389706, -0.0115816, 1.18125, 0.1132812, 1.18125, -0.9824829, 1.18125, -0.3061523, 1.18125, 1, 1.18125, 0.6183206, 1.18125, -3.0305343
0.1397647, -0.0119173, 1.188, 0.1137085, 1.188, -0.9805298, 1.188, -0.3013306, 1.188, 1.1450381, 1.188, 0.6412213, 1.188, -3.1755726
0.1405588, -0.0105745, 1.19475, 0.1119995, 1.19475, -0.9819336, 1.19475, -0.3070068, 1.19475, 1.2900764, 1.19475, 0.610687, 1.19475, -3.0152671
0.1413529, -0.0176242, 1.2015, 0.1142578, 1.2015, -0.9771118, 1.2015, -0.3043213, 1.2015, 1.1832061, 1.2015, 0.7633588, 1.2015, -3.1908398
0.1421471, -0.0196384, 1.20825, 0.1149902, 1.20825, -0.9811401, 1.20825, -0.3056641, 1.20825, 0.8625954, 1.20825, 1.1145039, 1.20825, -3.0839694
0.1429412, -0.0203098, 1.215, 0.1171875, 1.215, -0.9793091, 1.215, -0.3081665, 1.215, 0.7709923, 1.215, 1.1908396, 1.215, -3.0763359
0.1437353, -0.0223239, 1.22175, 0.117981, 1.22175, -0.9783325, 1.22175, -0.3063965, 1.22175, 0.9007633, 1.22175, 1.4427481, 1.22175, -3.1603053
0.1445294, -0.0182956, 1.2285, 0.1153564, 1.2285, -0.980957, 1.2285, -0.3049927, 1.2285, 0.8015267, 1.2285, 1.1984733, 1.2285, -3.0534351
0.1453235, -0.0219883, 1.23525, 0.1119995, 1.23525, -0.9812622, 1.23525, -0.30896, 1.23525, 0.8473282, 1.23525, 1.1603054, 1.23525, -3.1450381
0.1461176, -0.0240024, 1.242, 0.1087646, 1.242, -0.9797363, 1.242, -0.3032837, 1.242, 1.1603054, 1.242, 1.0458015, 1.242, -3.1221373
0.1469118, -0.0240024, 1.24875, 0.1099243, 1.24875, -0.9781494, 1.24875, -0.3070679, 1.24875, 1.2137405, 1.24875, 1.1526718, 1.24875, -3.1068702
0.1477059, -0.0240024, 1.2555, 0.1098022, 1.2555, -0.9748535, 1.2555, -0.3060913, 1.2555, 1.3129771, 1.2555, 0.9389313, 1.2555, -3.0076337
0.1485, -0.0224918, 1.26225, 0.1118774, 1.26225, -0.9769287, 1.26225, -0.3050537, 1.26225, 1.3816794, 1.26225, 0.6717557, 1.26225, -3.0610688
0.1492941, -0.0213169, 1.269, 0.114502, 1.269, -0.9772339, 1.269, -0.3036499, 1.269, 1.3664122, 1.269, 0.5801527, 1.269, -3.038168
0.1500882, -0.0171206, 1.27575, 0.1181641, 1.27575, -0.9741211, 1.27575, -0.3058472, 1.27575, 1.1603054, 1.27575, 0.7328244, 1.27575, -3.0534351
0.1508824, -0.0182956, 1.2825, 0.1149292, 1.2825, -0.975647, 1.2825, -0.3047485, 1.2825, 1.129771, 1.2825, 0.9923664, 1.2825, -3.1221373
0.1516765, -0.014435, 1.28925, 0.1137085, 1.28925, -0.9771118, 1.28925, -0.3053589, 1.28925, 1.2442749, 1.28925, 1.0534351, 1.28925, -3.0687022
0.1524706, -0.0124208, 1.296, 0.1137695, 1.296, -0.9769897, 1.296, -0.303772, 1.296, 1.0458015, 1.296, 0.7633588, 1.296, -3.0687022
0.1532647, -0.0130922, 1.30275, 0.1153564, 1.30275, -0.975769, 1.30275, -0.3045654, 1.30275, 1.2137405, 1.30275, 0.740458, 1.30275, -3.0763359
0.1540588, -0.008896, 1.3095, 0.1138916, 1.3095, -0.9772949, 1.3095, -0.3078613, 1.3095, 1.129771, 1.3095, 0.7557252, 1.3095, -3.0305343
0.1548529, -0.0075532, 1.31625, 0.1136475, 1.31625, -0.977417, 1.31625, -0.3047485, 1.31625, 0.8473282, 1.31625, 0.610687, 1.31625, -3.038168
0.1556471, -0.0068818, 1.323, 0.1132812, 1.323, -0.977356, 1.323, -0.3085938, 1.323, 1.0534351, 1.323, 0.480916, 1.323, -3.0610688
0.1564412, -0.005539, 1.32975, 0.1124878, 1.32975, -0.9802246, 1.32975, -0.30896, 1.32975, 0.7251908, 1.32975, 0.3587786, 1.32975, -3.2366412
0.1572353, -0.0038605, 1.3365, 0.1120605, 1.3365, -0.9782104, 1.3365, -0.3057251, 1.3365, 0.740458, 1.3365, 0.5267175, 1.3365, -3.0458016
0.1580294, -0.0105745, 1.34325, 0.1134033, 1.34325, -0.9803467, 1.34325, -0.3069458, 1.34325, 0.8167939, 1.34325, 0.519084, 1.34325, -3.0229008
0.1588235, -0.0115816, 1.35, 0.112793, 1.35, -0.9797363, 1.35, -0.3041382, 1.35, 0.9160305, 1.35, 0.351145, 1.35, -3.3129771
0.1596176, -0.0102388, 1.35675, 0.1130981, 1.35675, -0.9813232, 1.35675, -0.3016968, 1.35675, 0.6946565, 1.35675, 0.1832061, 1.35675, -3.3969467
0.1604118, -0.0196384, 1.3635, 0.1132812, 1.3635, -0.9815063, 1.3635, -0.3011475, 1.3635, 0.9007633, 1.3635, 0.1221374, 1.3635, -3.2671757
0.1612059, -0.0146029, 1.37025, 0.1147461, 1.37025, -0.9780273, 1.37025, -0.3047485, 1.37025, 0.7251908, 1.37025, 0.5725191, 1.37025, -3.4122138
0.162, -0.0152743, 1.377, 0.1126099, 1.377, -0.9790039, 1.377, -0.3045654, 1.377, 0.7709923, 1.377, 0.8473282, 1.377, -3.2366412
0.1627941, -0.0357519, 1.38375, 0.1134033, 1.38375, -0.9804077, 1.38375, -0.3048096, 1.38375, 0.7480916, 1.38375, 0.8320611, 1.38375, -3.1603053
0.1635882, -0.0379339, 1.3905, 0.1113892, 1.3905, -0.9806519, 1.3905, -0.3023071, 1.3905, 1.091603, 1.3905, 0.7938932, 1.3905, -3.3435113
0.1643824, -0.0290379, 1.39725, 0.1100464, 1.39725, -0.9794922, 1.39725, -0.303772, 1.39725, 1.1755725, 1.39725, 0.610687, 1.39725, -3.2671757
0.1651765, -0.018967, 1.404, 0.109436, 1.404, -0.9769897, 1.404, -0.3060303, 1.404, 0.9312977, 1.404, 0.5725191, 1.404, -3.5419848
0.1659706, -0.0142672, 1.41075, 0.1073608, 1.41075, -0.9780273, 1.41075, -0.3087769, 1.41075, 0.8320611, 1.41075, 0.5114504, 1.41075, -3.4961832
0.1667647, -0.0115816, 1.4175, 0.1124878, 1.4175, -0.9749756, 1.4175, -0.305603, 1.4175, 1.0992366, 1.4175, 0.3816794, 1.4175, -3.3587787
0.1675588, -0.0115816, 1.42425, 0.1153564, 1.42425, -0.9742432, 1.42425, -0.3079834, 1.42425, 1.1984733, 1.42425, 0.3129771, 1.42425, -3.4885497
0.1683529, -0.0135958, 1.431, 0.1190796, 1.431, -0.9762573, 1.431, -0.3054199, 1.431, 1.1908396, 1.431, 0.5038168, 1.431, -3.3053436
0.1691471, -0.0102388, 1.43775, 0.1172485, 1.43775, -0.9787598, 1.43775, -0.3013916, 1.43775, 0.8778626, 1.43775, 0.7099237, 1.43775, -3.4351146
0.1699412, -0.005539, 1.4445, 0.1168823, 1.4445, -0.9796143, 1.4445, -0.2996216, 1.4445, 1, 1.4445, 0.7251908, 1.4445, -3.259542
0.1707353, -0.0052033, 1.45125, 0.1172485, 1.45125, -0.9786987, 1.45125, -0.3045654, 1.45125, 0.9007633, 1.45125, 1.0152671, 1.45125, -3.3282442
0.1715294, -0.0045319, 1.458, 0.1184082, 1.458, -0.9781494, 1.458, -0.3057251, 1.458, 0.740458, 1.458, 0.9007633, 1.458, -3.038168
0.1723235, -0.0041962, 1.46475, 0.1200562, 1.46475, -0.9778442, 1.46475, -0.30896, 1.46475, 0.7175573, 1.46475, 1.1679389, 1.46475, -3.0152671
0.1731176, -0.005539, 1.4715, 0.1165161, 1.4715, -0.9779663, 1.4715, -0.303894, 1.4715, 0.7480916, 1.4715, 1.0152671, 1.4715, -3.2290077
0.1739118, -0.0072175, 1.47825, 0.1124878, 1.47825, -0.9789429, 1.47825, -0.3033447, 1.47825, 0.9007633, 1.47825, 1.0610687, 1.47825, -3.1450381
0.1747059, -0.012253, 1.485, 0.1085205, 1.485, -0.9797363, 1.485, -0.305481, 1.485, 0.8854962, 1.485, 1.2137405, 1.485, -2.961832
0.1755, -0.0152743, 1.49175, 0.1089478, 1.49175, -0.9776611, 1.49175, -0.3062134, 1.49175, 0.8015267, 1.49175, 1.0839695, 1.49175, -3.1450381
0.1762941, -0.0135958, 1.4985, 0.1066895, 1.4985, -0.9800415, 1.4985, -0.3062134, 1.4985, 0.6030535, 1.4985, 0.4122137, 1.4985, -3.3129771
0.1770882, -0.012253, 1.50525, 0.109314, 1.50525, -0.9793701, 1.50525, -0.309021, 1.50525, 0.6641222, 1.50525, 0.3587786, 1.50525, -3.3969467
0.1778824, -0.0102388, 1.512, 0.1119995, 1.512, -0.9785156, 1.512, -0.3045654, 1.512, 0.8320611, 1.512, 0.1679389, 1.512, -3.4885497
0.1786765, -0.0112459, 1.51875, 0.1140747, 1.51875, -0.9771729, 1.51875, -0.3077393, 1.51875, 0.9312977, 1.51875, 0.1068702, 1.51875, -3.4122138
0.1794706, -0.01561, 1.5255, 0.1156616, 1.5255, -0.9783325, 1.5255, -0.3060913, 1.5255, 1.0534351, 1.5255, 0.1755725, 1.5255, -3.389313
0.1802647, -0.0176242, 1.53225, 0.1171265, 1.53225, -0.9776001, 1.53225, -0.3040771, 1.53225, 0.8015267, 1.53225, 0.4351145, 1.53225, -3.4045801
0.1810588, -0.0182956, 1.539, 0.1171265, 1.539, -0.9779053, 1.539, -0.3058472, 1.539, 0.8015267, 1.539, 0.7022901, 1.539, -3.2977099
0.1818529, -0.018967, 1.54575, 0.1171875, 1.54575, -0.9772339, 1.54575, -0.3063354, 1.54575, 0.9389313, 1.54575, 1.0305344, 1.54575, -3.1526718
0.1826471, -0.0186313, 1.5525, 0.1154785, 1.5525, -0.9777832, 1.5525, -0.3059692, 1.5525, 0.9236641, 1.5525, 1.0534351, 1.5525, -3.2900763
0.1834412, -0.0149386, 1.55925, 0.1124878, 1.55925, -0.9801636, 1.55925, -0.3045044, 1.55925, 1.1221374, 1.55925, 1.1526718, 1.55925, -3.1755726
0.1842353, -0.0125887, 1.566, 0.114624, 1.566, -0.9800415, 1.566, -0.3051147, 1.566, 1.1374046, 1.566, 1.1755725, 1.566, -3.129771
0.1850294, -0.0157778, 1.57275, 0.1138306, 1.57275, -0.975708, 1.57275, -0.3074951, 1.57275, 1.2519084, 1.57275, 0.908397, 1.57275, -3.1832061
0.1858235, -0.0182956, 1.5795, 0.1105347, 1.5795, -0.9772339, 1.5795, -0.3063354, 1.5795, 1.038168, 1.5795, 0.9694657, 1.5795, -3.351145
0.1866176, -0.0162814, 1.58625, 0.1140137, 1.58625, -0.9778442, 1.58625, -0.3056641, 1.58625, 1.0839695, 1.58625, 0.8167939, 1.58625, -3.2290077
0.1874118, -0.0162814, 1.593, 0.1166992, 1.593, -0.9768677, 1.593, -0.3059692, 1.593, 1.2748091, 1.593, 0.8320611, 1.593, -3.2290077
0.1882059, -0.0149386, 1.59975, 0.1142578, 1.59975, -0.9786377, 1.59975, -0.3046875, 1.59975, 1.038168, 1.59975, 0.7251908, 1.59975, -3.5343511
0.189, -0.0119173, 1.6065, 0.1126709, 1.6065, -0.9777832, 1.6065, -0.3065796, 1.6065, 0.778626, 1.6065, 0.6564885, 1.6065, -3.3816793
0.1897941, -0.0068818, 1.61325, 0.1151733, 1.61325, -0.9782715, 1.61325, -0.303894, 1.61325, 0.7480916, 1.61325, 0.3358779, 1.61325, -3.221374
0.1905882, -0.0095674, 1.62, 0.1124878, 1.62, -0.977478, 1.62, -0.309021, 1.62, 0.9541985, 1.62, 0.8320611, 1.62, -3.0687022
0.1913824, -0.0169528, 1.62675, 0.1115723, 1.62675, -0.980957, 1.62675, -0.3067627, 1.62675, 0.7862595, 1.62675, 0.7099237, 1.62675, -3.3129771
0.1921765, -0.0166171, 1.6335, 0.1119995, 1.6335, -0.975769, 1.6335, -0.3032227, 1.6335, 0.519084, 1.6335, 0.7328244, 1.6335, -3.2061069
0.1929706, -0.0169528, 1.64025, 0.112915, 1.64025, -0.9811401, 1.64025, -0.3034668, 1.64025, 0.648855, 1.64025, 0.7099237, 1.64025, -3.0610688
0.1937647, -0.0250095, 1.647, 0.1122437, 1.647, -0.9793701, 1.647, -0.3041992, 1.647, 0.610687, 1.647, 0.7251908, 1.647, -3.091603
0.1945588, -0.0290379, 1.65375, 0.1148682, 1.65375, -0.9751587, 1.65375, -0.3022461, 1.65375, 0.5648855, 1.65375, 0.2748092, 1.65375, -3.1450381
0.1953529, -0.0250095, 1.6605, 0.1148682, 1.6605, -0.977478, 1.6605, -0.3049927, 1.6605, 0.6259542, 1.6605, 0.2671756, 1.6605, -3.2290077
0.1961471, -0.0250095, 1.66725, 0.1137695, 1.66725, -0.9790039, 1.66725, -0.3027344, 1.66725, 0.6717557, 1.66725, 0.351145, 1.66725, -3.0839694
0.1969412, -0.0226596, 1.674, 0.1149902, 1.674, -0.9794922, 1.674, -0.3045654, 1.674, 0.778626, 1.674, 0.5419847, 1.674, -3.2366412
0.1977353, -0.018967, 1.68075, 0.1171265, 1.68075, -0.980957, 1.68075, -0.3061523, 1.68075, 0.9541985, 1.68075, 0.7557252, 1.68075, -3.1526718
0.1985294, -0.0152743, 1.6875, 0.1143188, 1.6875, -0.9803467, 1.6875, -0.3021851, 1.6875, 0.961832, 1.6875, 0.778626, 1.6875, -2.9465649
0.1993235, -0.0184634, 1.69425, 0.1146851, 1.69425, -0.9804077, 1.69425, -0.3026123, 1.69425, 1.0458015, 1.69425, 0.9541985, 1.69425, -2.9847329
0.2001176, -0.0203098, 1.701, 0.1116943, 1.701, -0.9794312, 1.701, -0.3035278, 1.701, 1.0839695, 1.701, 0.9236641, 1.701, -3.0076337
0.2009118, -0.0191348, 1.70775, 0.1116943, 1.70775, -0.9766235, 1.70775, -0.3104248, 1.70775, 1.1221374, 1.70775, 1.0305344, 1.70775, -3.0610688
0.2017059, -0.014435, 1.7145, 0.1124878, 1.7145, -0.9775391, 1.7145, -0.3065796, 1.7145, 1.0458015, 1.7145, 0.8396947, 1.7145, -3.0534351
0.2025, -0.0146029, 1.72125, 0.1154785, 1.72125, -0.9744873, 1.72125, -0.3051147, 1.72125, 1.0229008, 1.72125, 0.740458, 1.72125, -3.0534351
0.2032941, -0.012253, 1.728, 0.1123047, 1.728, -0.9786377, 1.728, -0.3041992, 1.728, 1.0992366, 1.728, 0.7709923, 1.728, -3.1068702
0.2040882, -0.0082246, 1.73475, 0.1148682, 1.73475, -0.9777222, 1.73475, -0.3083496, 1.73475, 1.2900764, 1.73475, 0.6183206, 1.73475, -3.2671757
0.2048824, -0.0083925, 1.7415, 0.1142578, 1.7415, -0.9804688, 1.7415, -0.3057251, 1.7415, 1.1068702, 1.7415, 0.6717557, 1.7415, -3.129771
0.2056765, -0.0085603, 1.74825, 0.1169434, 1.74825, -0.977356, 1.74825, -0.3042603, 1.74825, 1.2366412, 1.74825, 0.5801527, 1.74825, -3.2748091
0.2064706, -0.0072175, 1.755, 0.1124268, 1.755, -0.9779053, 1.755, -0.3031006, 1.755, 1.1526718, 1.755, 0.3740458, 1.755, -3.2977099
0.2072647, -0.0065461, 1.76175, 0.1147461, 1.76175, -0.9795532, 1.76175, -0.3029175, 1.76175, 1.0839695, 1.76175, 0.1832061, 1.76175, -3.3969467
0.2080588, -0.012253, 1.7685, 0.1133423, 1.7685, -0.9780884, 1.7685, -0.3040161, 1.7685, 1.0839695, 1.7685, 0.1755725, 1.7685, -3.3206108
0.2088529, -0.0162814, 1.77525, 0.114624, 1.77525, -0.9780273, 1.77525, -0.3068848, 1.77525, 0.7633588, 1.77525, 0.3206107, 1.77525, -3.2061069
0.2096471, -0.01561, 1.782, 0.116272, 1.782, -0.9779053, 1.782, -0.3046875, 1.782, 0.9770992, 1.782, 0.1755725, 1.782, -3.3358779
0.2104412, -0.0162814, 1.78875, 0.1182251, 1.78875, -0.9771729, 1.78875, -0.307312, 1.78875, 0.7862595, 1.78875, 0.3816794, 1.78875, -3.2900763
0.2112353, -0.017792, 1.7955, 0.1171265, 1.7955, -0.9777222, 1.7955, -0.3060303, 1.7955, 0.8549618, 1.7955, 0.6335878, 1.7955, -3.1908398
0.2120294, -0.0149386, 1.80225, 0.1160889, 1.80225, -0.9783325, 1.80225, -0.3065186, 1.80225, 0.7633588, 1.80225, 0.6793893, 1.80225, -3.2519083
0.2128235, -0.01561, 1.809, 0.1168823, 1.809, -0.9782715, 1.809, -0.3036499, 1.809, 0.7938932, 1.809, 0.5801527, 1.809, -3.0687022
0.2136176, -0.0191348, 1.81575, 0.114624, 1.81575, -0.9797974, 1.81575, -0.3051758, 1.81575, 0.8015267, 1.81575, 0.778626, 1.81575, -3.129771
0.2144118, -0.0179599, 1.8225, 0.1144409, 1.8225, -0.9767456, 1.8225, -0.3075562, 1.8225, 0.9236641, 1.8225, 0.6717557, 1.8225, -3.1679389
0.2152059, -0.0182956, 1.82925, 0.1134644, 1.82925, -0.9781494, 1.82925, -0.3040161, 1.82925, 0.961832, 1.82925, 0.610687, 1.82925, -3.0839694
0.216, -0.0182956, 1.836, 0.1118774, 1.836, -0.9761963, 1.836, -0.3043823, 1.836, 0.9236641, 1.836, 0.8091603, 1.836, -3.0687022
0.2167941, -0.0169528, 1.84275, 0.1096191, 1.84275, -0.9765015, 1.84275, -0.3046265, 1.84275, 1.0305344, 1.84275, 0.9160305, 1.84275, -3.0763359
0.2175882, -0.0169528, 1.8495, 0.1119995, 1.8495, -0.9785767, 1.8495, -0.3037109, 1.8495, 0.9923664, 1.8495, 0.7862595, 1.8495, -3.0839694
0.2183824, -0.0152743, 1.85625, 0.1122437, 1.85625, -0.9796143, 1.85625, -0.3052979, 1.85625, 0.9770992, 1.85625, 0.8549618, 1.85625, -3.0610688
0.2191765, -0.0117494, 1.863, 0.1134644, 1.863, -0.9788208, 1.863, -0.3046875, 1.863, 0.9465649, 1.863, 0.961832, 1.863, -3.1526718
0.2199706, -0.0109102, 1.86975, 0.1131592, 1.86975, -0.9796143, 1.86975, -0.3030396, 1.86975, 1.1068702, 1.86975, 1.038168, 1.86975, -3.129771
0.2207647, -0.0090639, 1.8765, 0.112854, 1.8765, -0.9777832, 1.8765, -0.3070068, 1.8765, 1.0152671, 1.8765, 1.0687023, 1.8765, -3.1374047
0.2215588, -0.0099031, 1.88325, 0.1115112, 1.88325, -0.9804077, 1.88325, -0.3067627, 1.88325, 0.8320611, 1.88325, 1.1221374, 1.88325, -2.9694657
0.2223529, -0.0112459, 1.89, 0.1126709, 1.89, -0.9795532, 1.89, -0.3085938, 1.89, 0.9770992, 1.89, 1.1832061, 1.89, -3.1450381
0.2231471, -0.0130922, 1.89675, 0.1099243, 1.89675, -0.979126, 1.89675, -0.3099365, 1.89675, 0.7099237, 1.89675, 1.1984733, 1.89675, -3.0458016
0.2239412, -0.0139315, 1.9035, 0.1131592, 1.9035, -0.9772949, 1.9035, -0.3075562, 1.9035, 0.519084, 1.9035, 0.9770992, 1.9035, -3.091603
0.2247353, -0.0179599, 1.91025, 0.1079712, 1.91025, -0.9765625, 1.91025, -0.3060303, 1.91025, 0.5648855, 1.91025, 0.6641222, 1.91025, -3.3435113
0.2255294, -0.0208133, 1.917, 0.1112671, 1.917, -0.9769287, 1.917, -0.3050537, 1.917, 0.6564885, 1.917, 0.4351145, 1.917, -3.2824428
0.2263235, -0.0184634, 1.92375, 0.1121216, 1.92375, -0.9764404, 1.92375, -0.3069458, 1.92375, 0.6717557, 1.92375, 0.389313, 1.92375, -3.3435113
0.2271176, -0.0203098, 1.9305, 0.1138306, 1.9305, -0.977417, 1.9305, -0.3078003, 1.9305, 0.6183206, 1.9305, 0.3740458, 1.9305, -3.4274809
0.2279118, -0.0206455, 1.93725, 0.1125488, 1.93725, -0.9833984, 1.93725, -0.3065796, 1.93725, 0.8091603, 1.93725, 0.2061069, 1.93725, -3.3969467
0.2287059, -0.0219883, 1.944, 0.1178589, 1.944, -0.9801636, 1.944, -0.3057861, 1.944, 0.7251908, 1.944, 0.4351145, 1.944, -3.4122138
0.2295, -0.0182956, 1.95075, 0.1182251, 1.95075, -0.979126, 1.95075, -0.3024902, 1.95075, 0.7480916, 1.95075, 0.5801527, 1.95075, -3.3129771
0.2302941, -0.0176242, 1.9575, 0.1179199, 1.9575, -0.980896, 1.9575, -0.3031616, 1.9575, 0.8549618, 1.9575, 0.740458, 1.9575, -3.3664122
0.2310882, -0.0135958, 1.96425, 0.114563, 1.96425, -0.9794922, 1.96425, -0.3001709, 1.96425, 0.9541985, 1.96425, 0.5954198, 1.96425, -3.3129771
0.2318824, -0.0105745, 1.971, 0.1143799, 1.971, -0.9769897, 1.971, -0.3032227, 1.971, 1.1221374, 1.971, 0.8549618, 1.971, -3.3282442
0.2326765, -0.008896, 1.97775, 0.1137695, 1.97775, -0.9783936, 1.97775, -0.3084106, 1.97775, 1.2671756, 1.97775, 0.9007633, 1.97775, -3.1603053
0.2334706, -0.0082246, 1.9845, 0.1132812, 1.9845, -0.9775391, 1.9845, -0.3081665, 1.9845, 1.4274809, 1.9845, 0.9770992, 1.9845, -3.1755726
0.2342647, -0.005539, 1.99125, 0.1151733, 1.99125, -0.9750977, 1.99125, -0.3118896, 1.99125, 1.389313, 1.99125, 0.9847328, 1.99125, -3.0839694
0.2350588, -0.0078889, 1.998, 0.1173706, 1.998, -0.9764404, 1.998, -0.3097534, 1.998, 1.2977099, 1.998, 0.9312977, 1.998, -3.0076337
0.2358529, -0.0099031, 2.00475, 0.116272, 2.00475, -0.977478, 2.00475, -0.3114014, 2.00475, 1.2366412, 2.00475, 1.0992366, 2.00475, -3.0610688
0.2366471, -0.0112459, 2.0115, 0.1125488, 2.0115, -0.9782715, 2.0115, -0.3101807, 2.0115, 1.091603, 2.0115, 1.0687023, 2.0115, -2.8931298
0.2374412, -0.0048676, 2.01825, 0.1132202, 2.01825, -0.9782104, 2.01825, -0.3071289, 2.01825, 1.2748091, 2.01825, 0.7938932, 2.01825, -2.908397
0.2382353, -0.0018463, 2.025, 0.1129761, 2.025, -0.9795532, 2.025, -0.3079834, 2.025, 1.1145039, 2.025, 0.9541985, 2.025, -2.8778627
0.2390294, -0.0008392, 2.03175, 0.1118164, 2.03175, -0.9799805, 2.03175, -0.3056641, 2.03175, 1, 2.03175, 0.870229, 2.03175, -2.9465649
0.2398235, -0.0031891, 2.0385, 0.1173096, 2.0385, -0.9796753, 2.0385, -0.3094482, 2.0385, 0.9389313, 2.0385, 0.6870229, 2.0385, -3.0763359
0.2406176, -0.0052033, 2.04525, 0.1178589, 2.04525, -0.979126, 2.04525, -0.3068848, 2.04525, 0.7862595, 2.04525, 0.8931298, 2.04525, -3.0839694
0.2414118, -0.0179599, 2.052, 0.1185913, 2.052, -0.9796753, 2.052, -0.3062134, 2.052, 0.6412213, 2.052, 1.0458015, 2.052, -2.9236641
0.2422059, -0.0256809, 2.05875, 0.1160889, 2.05875, -0.9796143, 2.05875, -0.307251, 2.05875, 0.740458, 2.05875, 1.091603, 2.05875, -2.8931298
0.243, -0.0280308, 2.0655, 0.1150513, 2.0655, -0.9800415, 2.0655, -0.3040771, 2.0655, 0.6641222, 2.0655, 1.2061069, 2.0655, -2.8473282
0.2437941, -0.0260166, 2.07225, 0.1130981, 2.07225, -0.9801636, 2.07225, -0.3079834, 2.07225, 0.9465649, 2.07225, 1.0610687, 2.07225, -2.9312978
0.2445882, -0.0270237, 2.079, 0.1105347, 2.079, -0.9803467, 2.079, -0.3081055, 2.079, 0.8244275, 2.079, 1.0229008, 2.079, -2.8244274
0.2453824, -0.0290379, 2.08575, 0.1089478, 2.08575, -0.9804077, 2.08575, -0.3058472, 2.08575, 0.8396947, 2.08575, 0.8015267, 2.08575, -2.9694657
0.2461765, -0.0270237, 2.0925, 0.1082764, 2.0925, -0.9777222, 2.0925, -0.3044434, 2.0925, 1.0229008, 2.0925, 0.5343512, 2.0925, -3.0229008
0.2469706, -0.0240024, 2.09925, 0.1097412, 2.09925, -0.9768677, 2.09925, -0.3041992, 2.09925, 0.9465649, 2.09925, 0.4503817, 2.09925, -3.0763359
0.2477647, -0.021149, 2.106, 0.1098022, 2.106, -0.9767456, 2.106, -0.3026733, 2.106, 1.1526718, 2.106, 0.6259542, 2.106, -2.9770992
0.2485588, -0.012253, 2.11275, 0.1109009, 2.11275, -0.9772949, 2.11275, -0.3013916, 2.11275, 1.1145039, 2.11275, 0.4885496, 2.11275, -3.0076337
0.2493529, -0.0115816, 2.1195, 0.1120605, 2.1195, -0.9758301, 2.1195, -0.3031616, 2.1195, 1.4351145, 2.1195, 0.5572519, 2.1195, -3
0.2501471, -0.0129244, 2.12625, 0.1124878, 2.12625, -0.9771729, 2.12625, -0.3042603, 2.12625, 1.1450381, 2.12625, 0.648855, 2.12625, -3.2061069
0.2509412, -0.0203098, 2.133, 0.1088867, 2.133, -0.9764404, 2.133, -0.2991943, 2.133, 1.2442749, 2.133, 0.610687, 2.133, -3.1221373
0.2517353, -0.0270237, 2.13975, 0.1105347, 2.13975, -0.9784546, 2.13975, -0.3016968, 2.13975, 1.3740458, 2.13975, 0.6030535, 2.13975, -2.9694657
0.2525294, -0.0176242, 2.1465, 0.1085815, 2.1465, -0.977478, 2.1465, -0.3023071, 2.1465, 1.4274809, 2.1465, 0.6259542, 2.1465, -3.0076337
0.2533235, -0.0124208, 2.15325, 0.1110229, 2.15325, -0.9783936, 2.15325, -0.3093262, 2.15325, 1.2366412, 2.15325, 0.6946565, 2.15325, -3.038168
0.2541176, -0.0095674, 2.16, 0.1119995, 2.16, -0.9790039, 2.16, -0.3083496, 2.16, 0.9465649, 2.16, 0.3587786, 2.16, -3.1679389
0.2549118, -0.0095674, 2.16675, 0.1146851, 2.16675, -0.9755859, 2.16675, -0.3002319, 2.16675, 0.8396947, 2.16675, 0.2366412, 2.16675, -3.3282442
0.2557059, -0.0112459, 2.1735, 0.114563, 2.1735, -0.9786377, 2.1735, -0.3034058, 2.1735, 0.5877863, 2.1735, 0.0839695, 2.1735, -3.2900763
0.2565, -0.0073854, 2.18025, 0.1143188, 2.18025, -0.9782715, 2.18025, -0.3070068, 2.18025, 0.5343512, 2.18025, 0.3053435, 2.18025, -3.2137403
0.2572941, -0.0090639, 2.187, 0.1117554, 2.187, -0.9790649, 2.187, -0.3085327, 2.187, 0.5038168, 2.187, 0.2519084, 2.187, -3.1755726
0.2580882, -0.0092317, 2.19375, 0.1106567, 2.19375, -0.980896, 2.19375, -0.3056641, 2.19375, 0.3435115, 2.19375, 0.4274809, 2.19375, -3.351145
0.2588824, -0.0102388, 2.2005, 0.1134644, 2.2005, -0.9784546, 2.2005, -0.3062744, 2.2005, 0.4045801, 2.2005, 0.3435115, 2.2005, -3.3587787
0.2596765, -0.012253, 2.20725, 0.1116943, 2.20725, -0.9783325, 2.20725, -0.3088379, 2.20725, 0.3358779, 2.20725, 0.6030535, 2.20725, -3.4122138
0.2604706, -0.0105745, 2.214, 0.1099243, 2.214, -0.9763184, 2.214, -0.3070068, 2.214, 0.4122137, 2.214, 0.6946565, 2.214, -3.3816793
0.2612647, -0.0105745, 2.22075, 0.1127319, 2.22075, -0.977356, 2.22075, -0.3047485, 2.22075, 0.3282443, 2.22075, 0.4122137, 2.22075, -3.2061069
0.2620588, -0.0139315, 2.2275, 0.1116943, 2.2275, -0.9807129, 2.2275, -0.3070068, 2.2275, 0.4427481, 2.2275, 0.2900763, 2.2275, -3.4198472
0.2628529, -0.0135958, 2.23425, 0.1116333, 2.23425, -0.9802856, 2.23425, -0.3046265, 2.23425, 0.778626, 2.23425, 0.1755725, 2.23425, -3.4732823
0.2636471, -0.0162814, 2.241, 0.1144409, 2.241, -0.9802856, 2.241, -0.3060303, 2.241, 0.8015267, 2.241, 0.2061069, 2.241, -3.4885497
0.2644412, -0.0172885, 2.24775, 0.1151733, 2.24775, -0.9799194, 2.24775, -0.3070679, 2.24775, 0.9312977, 2.24775, 0.4122137, 2.24775, -3.3129771
0.2652353, -0.0164492, 2.2545, 0.1174927, 2.2545, -0.9762573, 2.2545, -0.303894, 2.2545, 0.8473282, 2.2545, 0.5114504, 2.2545, -3.2290077
0.2660294, -0.0179599, 2.26125, 0.117981, 2.26125, -0.9790649, 2.26125, -0.3052368, 2.26125, 1.0076336, 2.26125, 0.7022901, 2.26125, -3.2977099
0.2668235, -0.0142672, 2.268, 0.1188354, 2.268, -0.9786377, 2.268, -0.3023071, 2.268, 1.0534351, 2.268, 0.6641222, 2.268, -3.2748091
0.2676176, -0.0095674, 2.27475, 0.1157227, 2.27475, -0.9780884, 2.27475, -0.3051147, 2.27475, 1.2137405, 2.27475, 0.9312977, 2.27475, -3.0076337
0.2684118, -0.0125887, 2.2815, 0.1165161, 2.2815, -0.9781494, 2.2815, -0.3046875, 2.2815, 1.0992366, 2.2815, 1.0763359, 2.2815, -3.2061069
0.2692059, -0.0172885, 2.28825, 0.1168823, 2.28825, -0.9786987, 2.28825, -0.3027954, 2.28825, 1.0534351, 2.28825, 1.2061069, 2.28825, -3.1374047
0.27, -0.0149386, 2.295, 0.1150513, 2.295, -0.9788208, 2.295, -0.3034058, 2.295, 1.1755725, 2.295, 1.2900764, 2.295, -2.9770992
0.2707941, -0.0109102, 2.30175, 0.1117554, 2.30175, -0.9777222, 2.30175, -0.3078003, 2.30175, 1.1526718, 2.30175, 1.0763359, 2.30175, -3.0152671
0.2715882, -0.0095674, 2.3085, 0.1126099, 2.3085, -0.9794312, 2.3085, -0.3078003, 2.3085, 0.9389313, 2.3085, 1.0076336, 2.3085, -3.1374047
0.2723824, -0.0105745, 2.31525, 0.1101074, 2.31525, -0.9798584, 2.31525, -0.3092041, 2.31525, 0.9770992, 2.31525, 0.961832, 2.31525, -3.1374047
0.2731765, -0.0132601, 2.322, 0.1115112, 2.322, -0.9778442, 2.322, -0.3110352, 2.322, 0.8931298, 2.322, 0.7099237, 2.322, -3.0763359
0.2739706, -0.0139315, 2.32875, 0.1123047, 2.32875, -0.9777832, 2.32875, -0.3083496, 2.32875, 0.6641222, 2.32875, 0.5877863, 2.32875, -3.1679389
0.2747647, -0.01561, 2.3355, 0.1137695, 2.3355, -0.9812012, 2.3355, -0.3083496, 2.3355, 0.8167939, 2.3355, 0.5496183, 2.3355, -3.1908398
0.2755588, -0.0169528, 2.34225, 0.1113892, 2.34225, -0.979126, 2.34225, -0.3063354, 2.34225, 0.7328244, 2.34225, 0.5038168, 2.34225, -3.3435113
0.2763529, -0.018967, 2.349, 0.1134033, 2.349, -0.9780884, 2.349, -0.3054199, 2.349, 0.6641222, 2.349, 0.5343512, 2.349, -3.1145039
0.2771471, -0.0191348, 2.35575, 0.1151733, 2.35575, -0.9771729, 2.35575, -0.3037109, 2.35575, 0.778626, 2.35575, 0.740458, 2.35575, -3.221374
0.2779412, -0.0186313, 2.3625, 0.1132812, 2.3625, -0.9779663, 2.3625, -0.3046265, 2.3625, 0.8931298, 2.3625, 0.9007633, 2.3625, -3.221374
0.2787353, -0.0236667, 2.36925, 0.1190796, 2.36925, -0.9764404, 2.36925, -0.3087769, 2.36925, 0.7938932, 2.36925, 1.0152671, 2.36925, -3.3129771
0.2795294, -0.0285344, 2.376, 0.1170654, 2.376, -0.9748535, 2.376, -0.3059692, 2.376, 0.6259542, 2.376, 0.9847328, 2.376, -3.091603
0.2803235, -0.0256809, 2.38275, 0.1155396, 2.38275, -0.9777832, 2.38275, -0.3082275, 2.38275, 0.6183206, 2.38275, 1.091603, 2.38275, -3.038168
0.2811176, -0.0236667, 2.3895, 0.1114502, 2.3895, -0.9780884, 2.3895, -0.3087769, 2.3895, 0.8244275, 2.3895, 1.1603054, 2.3895, -3.1068702
0.2819118, -0.0256809, 2.39625, 0.1118774, 2.39625, -0.9830322, 2.39625, -0.3083496, 2.39625, 1.0458015, 2.39625, 1.1755725, 2.39625, -3.038168
0.2827059, -0.0243381, 2.403, 0.1112061, 2.403, -0.9782104, 2.403, -0.3061523, 2.403, 0.9389313, 2.403, 1.091603, 2.403, -3.1450381
0.2835, -0.0182956, 2.40975, 0.1123657, 2.40975, -0.9777832, 2.40975, -0.3033447, 2.40975, 0.9007633, 2.40975, 1.0687023, 2.40975, -3.1068702
0.2842941, -0.0146029, 2.4165, 0.1108398, 2.4165, -0.9786377, 2.4165, -0.3031616, 2.4165, 0.8244275, 2.4165, 1.0839695, 2.4165, -3.1679389
0.2850882, -0.0182956, 2.42325, 0.1123657, 2.42325, -0.9749756, 2.42325, -0.3053589, 2.42325, 0.9541985, 2.42325, 1.0305344, 2.42325, -3.2442749
0.2858824, -0.0203098, 2.43, 0.1156006, 2.43, -0.9768677, 2.43, -0.3062134, 2.43, 1, 2.43, 1.1145039, 2.43, -3.0534351
0.2866765, -0.0184634, 2.43675, 0.1154175, 2.43675, -0.9754028, 2.43675, -0.3092651, 2.43675, 0.9236641, 2.43675, 1.1603054, 2.43675, -3.038168
0.2874706, -0.0193027, 2.4435, 0.1082764, 2.4435, -0.9765015, 2.4435, -0.3063354, 2.4435, 0.9312977, 2.4435, 1.1068702, 2.4435, -3.0763359
0.2882647, -0.0159457, 2.45025, 0.1090698, 2.45025, -0.9753418, 2.45025, -0.305603, 2.45025, 1.0763359, 2.45025, 0.9007633, 2.45025, -2.8396947
0.2890588, -0.0146029, 2.457, 0.1084595, 2.457, -0.9785767, 2.457, -0.307373, 2.457, 0.9465649, 2.457, 0.6641222, 2.457, -3.1374047
0.2898529, -0.0149386, 2.46375, 0.1100464, 2.46375, -0.9801025, 2.46375, -0.3065796, 2.46375, 0.8320611, 2.46375, 0.5267175, 2.46375, -3.1526718
0.2906471, -0.0182956, 2.4705, 0.1102905, 2.4705, -0.9821777, 2.4705, -0.3046265, 2.4705, 0.610687, 2.4705, 0.5267175, 2.4705, -3.1755726
0.2914412, -0.0198062, 2.47725, 0.1123657, 2.47725, -0.9798584, 2.47725, -0.3076782, 2.47725, 0.6641222, 2.47725, 0.7557252, 2.47725, -3.2900763
0.2922353, -0.0186313, 2.484, 0.1130981, 2.484, -0.9797974, 2.484, -0.3056641, 2.484, 0.5114504, 2.484, 0.8244275, 2.484, -3.1450381
0.2930294, -0.0162814, 2.49075, 0.1169434, 2.49075, -0.9816284, 2.49075, -0.3051147, 2.49075, 0.5419847, 2.49075, 0.7328244, 2.49075, -3.0839694
0.2938235, -0.0120851, 2.4975, 0.1178589, 2.4975, -0.980957, 2.4975, -0.3088379, 2.4975, 0.7328244, 2.4975, 0.6259542, 2.4975, -3.1603053
0.2946176, -0.0109102, 2.50425, 0.121582, 2.50425, -0.9813843, 2.50425, -0.3067017, 2.50425, 0.8854962, 2.50425, 0.9160305, 2.50425, -3.1832061
0.2954118, -0.0115816, 2.511, 0.1218262, 2.511, -0.9801025, 2.511, -0.3064575, 2.511, 0.7480916, 2.511, 1.091603, 2.511, -2.9312978
0.2962059, -0.0093996, 2.51775, 0.1182861, 2.51775, -0.9790649, 2.51775, -0.3103638, 2.51775, 0.8320611, 2.51775, 1.3053435, 2.51775, -2.7175572
0.297, -0.0072175, 2.5245, 0.1178589, 2.5245, -0.9767456, 2.5245, -0.3120728, 2.5245, 0.7328244, 2.5245, 1.6717557, 2.5245, -2.8931298
0.2977941, -0.0065461, 2.53125, 0.1148071, 2.53125, -0.9769287, 2.53125, -0.3120117, 2.53125, 0.8931298, 2.53125, 1.7022901, 2.53125, -2.9236641
0.2985882, -0.0045319, 2.538, 0.1115112, 2.538, -0.9763184, 2.538, -0.3093872, 2.538, 1, 2.538, 1.7862595, 2.538, -2.8854961
0.2993824, -0.0075532, 2.54475, 0.1098022, 2.54475, -0.9782715, 2.54475, -0.3082886, 2.54475, 0.9770992, 2.54475, 1.259542, 2.54475, -3.0839694
0.3001765, -0.0221561, 2.5515, 0.1084595, 2.5515, -0.9802246, 2.5515, -0.3085938, 2.5515, 1.091603, 2.5515, 1.0152671, 2.5515, -2.9770992
0.3009706, -0.0206455, 2.55825, 0.109436, 2.55825, -0.9783325, 2.55825, -0.3065186, 2.55825, 1.1145039, 2.55825, 0.4961832, 2.55825, -2.9236641
0.3017647, -0.0142672, 2.565, 0.1099243, 2.565, -0.979187, 2.565, -0.3065796, 2.565, 1.1832061, 2.565, 0.4580153, 2.565, -3.1908398
0.3025588, -0.0119173, 2.57175, 0.1106567, 2.57175, -0.9785156, 2.57175, -0.3074341, 2.57175, 1.1068702, 2.57175, 0.4732825, 2.57175, -3.2900763
0.3033529, -0.011078, 2.5785, 0.1101685, 2.5785, -0.9796753, 2.5785, -0.3088379, 2.5785, 0.9770992, 2.5785, 0.6946565, 2.5785, -3.2137403
0.3041471, -0.0125887, 2.58525, 0.112854, 2.58525, -0.9778442, 2.58525, -0.3025513, 2.58525, 1.1679389, 2.58525, 0.2900763, 2.58525, -3.2366412
0.3049412, -0.0135958, 2.592, 0.1133423, 2.592, -0.9769287, 2.592, -0.3036499, 2.592, 1.0687023, 2.592, 0.2290076, 2.592, -3.1603053
0.3057353, -0.0099031, 2.59875, 0.1082153, 2.59875, -0.9749756, 2.59875, -0.3049316, 2.59875, 1.3206106, 2.59875, 0.3435115, 2.59875, -3.2900763
0.3065294, -0.0063783, 2.6055, 0.1098022, 2.6055, -0.9779053, 2.6055, -0.3046875, 2.6055, 1.2824427, 2.6055, 0.3282443, 2.6055, -3.1984732
0.3073235, -0.0092317, 2.61225, 0.1125488, 2.61225, -0.9780884, 2.61225, -0.305603, 2.61225, 0.9312977, 2.61225, 0.1221374, 2.61225, -3.1984732
0.3081176, -0.0132601, 2.619, 0.1141357, 2.619, -0.9800415, 2.619, -0.303894, 2.619, 0.778626, 2.619, 0.1450382, 2.619, -3.3587787
0.3089118, -0.0199741, 2.62575, 0.1104126, 2.62575, -0.9767456, 2.62575, -0.3048096, 2.62575, 0.8625954, 2.62575, 0.3053435, 2.62575, -3.2366412
0.3097059, -0.0229953, 2.6325, 0.1106567, 2.6325, -0.9766846, 2.6325, -0.3067017, 2.6325, 0.9007633, 2.6325, 0.2824427, 2.6325, -3.4580152
0.3105, -0.0240024, 2.63925, 0.1124878, 2.63925, -0.9775391, 2.63925, -0.3069458, 2.63925, 0.870229, 2.63925, 0.3587786, 2.63925, -3.2290077
0.3112941, -0.0258488, 2.646, 0.1123047, 2.646, -0.9777222, 2.646, -0.3093262, 2.646, 0.9312977, 2.646, 0.4885496, 2.646, -3.2900763
0.3120882, -0.0246738, 2.65275, 0.1149902, 2.65275, -0.975708, 2.65275, -0.3071289, 2.65275, 1.0076336, 2.65275, 0.519084, 2.65275, -3.221374
0.3128824, -0.0216526, 2.6595, 0.1156006, 2.6595, -0.9771729, 2.6595, -0.3074951, 2.6595, 1.1145039, 2.6595, 0.519084, 2.6595, -3.1908398
0.3136765, -0.0231632, 2.66625, 0.1133423, 2.66625, -0.9803467, 2.66625, -0.3077393, 2.66625, 0.8396947, 2.66625, 0.4427481, 2.66625, -3.2061069
0.3144706, -0.0223239, 2.673, 0.1095581, 2.673, -0.9766235, 2.673, -0.3062744, 2.673, 1.0152671, 2.673, 0.6793893, 2.673, -3.4045801
0.3152647, -0.018967, 2.67975, 0.1099854, 2.67975, -0.9776611, 2.67975, -0.3067627, 2.67975, 1.0992366, 2.67975, 0.5343512, 2.67975, -3.3206108
0.3160588, -0.018967, 2.6865, 0.1134033, 2.6865, -0.9763794, 2.6865, -0.3062744, 2.6865, 1.1221374, 2.6865, 0.351145, 2.6865, -3.2900763
0.3168529, -0.0179599, 2.69325, 0.1142578, 2.69325, -0.9779053, 2.69325, -0.312439, 2.69325, 1.0687023, 2.69325, 0.6183206, 2.69325, -3.2519083
0.3176471, -0.0109102, 2.7, 0.1148071, 2.7, -0.9810791, 2.7, -0.3076782, 2.7, 0.8549618, 2.7, 0.4351145, 2.7, -3.4427481
0.3184412, -0.0062104, 2.70675, 0.1165161, 2.70675, -0.9805908, 2.70675, -0.3080444, 2.70675, 0.8931298, 2.70675, 0.5343512, 2.70675, -3.3435113
0.3192353, -0.0057069, 2.7135, 0.1137085, 2.7135, -0.9828491, 2.7135, -0.3079834, 2.7135, 1.1145039, 2.7135, 0.4885496, 2.7135, -3.4198472
0.3200294, -0.0082246, 2.72025, 0.1112671, 2.72025, -0.9768677, 2.72025, -0.3082275, 2.72025, 1.038168, 2.72025, 0.4656489, 2.72025, -3.4045801
0.3208235, -0.0068818, 2.727, 0.1107178, 2.727, -0.9760132, 2.727, -0.3040161, 2.727, 1.1068702, 2.727, 0.3969466, 2.727, -3.4351146
0.3216176, -0.0082246, 2.73375, 0.1118164, 2.73375, -0.9786987, 2.73375, -0.3013916, 2.73375, 1.1603054, 2.73375, 0.4274809, 2.73375, -3.3740458
0.3224118, -0.008896, 2.7405, 0.1148682, 2.7405, -0.9787598, 2.7405, -0.3033447, 2.7405, 1, 2.7405, 0.2061069, 2.7405, -3.389313
0.3232059, -0.0102388, 2.74725, 0.1135864, 2.74725, -0.9782715, 2.74725, -0.3075562, 2.74725, 1.038168, 2.74725, 0.3129771, 2.74725, -3.4503818
0.324, -0.0135958, 2.754, 0.1159668, 2.754, -0.9807129, 2.754, -0.309082, 2.754, 0.7557252, 2.754, 0.4122137, 2.754, -3.3206108
0.3247941, -0.0129244, 2.76075, 0.1201782, 2.76075, -0.9793091, 2.76075, -0.3093262, 2.76075, 0.8473282, 2.76075, 0.5648855, 2.76075, -3.3206108
0.3255882, -0.0171206, 2.7675, 0.118042, 2.7675, -0.9793701, 2.7675, -0.3070068, 2.7675, 0.7480916, 2.7675, 0.870229, 2.7675, -3.3969467
0.3263824, -0.0166171, 2.77425, 0.1154175, 2.77425, -0.9807739, 2.77425, -0.3037109, 2.77425, 0.5954198, 2.77425, 1.0763359, 2.77425, -3.1755726
0.3271765, -0.0209812, 2.781, 0.116272, 2.781, -0.977356, 2.781, -0.3063965, 2.781, 0.8854962, 2.781, 1.0458015, 2.781, -3.2137403
0.3279706, -0.0191348, 2.78775, 0.1129761, 2.78775, -0.975708, 2.78775, -0.305603, 2.78775, 1.0458015, 2.78775, 0.8778626, 2.78775, -3.1755726
0.3287647, -0.0179599, 2.7945, 0.1101074, 2.7945, -0.977417, 2.7945, -0.3081055, 2.7945, 1.0610687, 2.7945, 0.4503817, 2.7945, -3.3053436
0.3295588, -0.0209812, 2.80125, 0.1091919, 2.80125, -0.9771729, 2.80125, -0.3110352, 2.80125, 1.221374, 2.80125, 0.6030535, 2.80125, -3.3816793
0.3303529, -0.023331, 2.808, 0.1130371, 2.808, -0.9747925, 2.808, -0.3094482, 2.808, 1.4351145, 2.808, 0.4503817, 2.808, -3.2977099
0.3311471, -0.0216526, 2.81475, 0.118103, 2.81475, -0.9754028, 2.81475, -0.3122559, 2.81475, 1.5801526, 2.81475, 0.4198473, 2.81475, -3.2442749
0.3319412, -0.0203098, 2.8215, 0.1193237, 2.8215, -0.9782104, 2.8215, -0.3094482, 2.8215, 1.5648855, 2.8215, 0.5343512, 2.8215, -3.3206108
0.3327353, -0.0186313, 2.82825, 0.1187134, 2.82825, -0.9766235, 2.82825, -0.3097534, 2.82825, 1.8167939, 2.82825, 0.5877863, 2.82825, -3.1145039
0.3335294, -0.018967, 2.835, 0.1204224, 2.835, -0.9770508, 2.835, -0.3051147, 2.835, 1.2671756, 2.835, 0.7633588, 2.835, -3.038168
0.3343235, -0.0162814, 2.84175, 0.1151733, 2.84175, -0.9804077, 2.84175, -0.3049927, 2.84175, 1.389313, 2.84175, 0.7862595, 2.84175, -3.0839694
0.3351176, -0.0119173, 2.8485, 0.1152344, 2.8485, -0.9820557, 2.8485, -0.3045044, 2.8485, 1.389313, 2.8485, 0.9007633, 2.8485, -2.9770992
0.3359118, -0.0109102, 2.85525, 0.1125488, 2.85525, -0.9817505, 2.85525, -0.3043823, 2.85525, 1.4503816, 2.85525, 0.8396947, 2.85525, -2.9923663
0.3367059, -0.008896, 2.862, 0.1114502, 2.862, -0.9797974, 2.862, -0.3081055, 2.862, 1.389313, 2.862, 0.9541985, 2.862, -2.9312978
0.3375, -0.0063783, 2.86875, 0.1135864, 2.86875, -0.9840698, 2.86875, -0.307373, 2.86875, 1.2671756, 2.86875, 0.9389313, 2.86875, -2.740458
0.3382941, -0.0072175, 2.8755, 0.1132812, 2.8755, -0.9793701, 2.8755, -0.3060303, 2.8755, 1.2900764, 2.8755, 0.9007633, 2.8755, -2.8091602
0.3390882, -0.005539, 2.88225, 0.1113892, 2.88225, -0.9775391, 2.88225, -0.3057861, 2.88225, 1.4351145, 2.88225, 0.6030535, 2.88225, -2.9694657
0.3398824, -0.0065461, 2.889, 0.1137085, 2.889, -0.9770508, 2.889, -0.3104248, 2.889, 1.3282443, 2.889, 0.519084, 2.889, -2.8473282
0.3406765, -0.0099031, 2.89575, 0.1119995, 2.89575, -0.9740601, 2.89575, -0.3097534, 2.89575, 0.9923664, 2.89575, 0.3129771, 2.89575, -3.1374047
0.3414706, -0.0104067, 2.9025, 0.1073608, 2.9025, -0.9787598, 2.9025, -0.3066406, 2.9025, 0.9694657, 2.9025, 0.5572519, 2.9025, -3.0763359
0.3422647, -0.0119173, 2.90925, 0.1096802, 2.90925, -0.9771118, 2.90925, -0.3049927, 2.90925, 0.9389313, 2.90925, 0.3053435, 2.90925, -3.0305343
0.3430588, -0.0219883, 2.916, 0.1107788, 2.916, -0.9790039, 2.916, -0.3030396, 2.916, 0.8320611, 2.916, 0.4656489, 2.916, -3.3816793
0.3438529, -0.0199741, 2.92275, 0.1109009, 2.92275, -0.9754639, 2.92275, -0.3001099, 2.92275, 0.8931298, 2.92275, 0.3282443, 2.92275, -3.2824428
0.3446471, -0.0135958, 2.9295, 0.1114502, 2.9295, -0.9763184, 2.9295, -0.302124, 2.9295, 1.091603, 2.9295, 0.4503817, 2.9295, -3.3435113
0.3454412, -0.0171206, 2.93625, 0.1113892, 2.93625, -0.9768066, 2.93625, -0.3036499, 2.93625, 0.870229, 2.93625, 0.610687, 2.93625, -3.3358779
0.3462353, -0.018967, 2.943, 0.112915, 2.943, -0.9771118, 2.943, -0.3004761, 2.943, 0.9465649, 2.943, 0.5419847, 2.943, -3.3129771
0.3470294, -0.018967, 2.94975, 0.1134644, 2.94975, -0.9769287, 2.94975, -0.2981567, 2.94975, 0.9465649, 2.94975, 0.9007633, 2.94975, -3.3282442
0.3478235, -0.0124208, 2.9565, 0.1124268, 2.9565, -0.9790039, 2.9565, -0.3013916, 2.9565, 1.0076336, 2.9565, 0.7862595, 2.9565, -3.2824428
0.3486176, -0.0125887, 2.96325, 0.1157227, 2.96325, -0.9763794, 2.96325, -0.3045654, 2.96325, 0.9465649, 2.96325, 0.778626, 2.96325, -3.3587787
0.3494118, -0.0171206, 2.97, 0.1150513, 2.97, -0.9776001, 2.97, -0.3040771, 2.97, 0.8473282, 2.97, 1.091603, 2.97, -3.1908398
0.3502059, -0.0162814, 2.97675, 0.1112061, 2.97675, -0.9783936, 2.97675, -0.3084717, 2.97675, 0.9541985, 2.97675, 1, 2.97675, -3.1679389
0.351, -0.012253, 2.9835, 0.1136475, 2.9835, -0.9770508, 2.9835, -0.3099976, 2.9835, 1, 2.9835, 0.6564885, 2.9835, -3.389313
0.3517941, -0.0109102, 2.99025, 0.1101685, 2.99025, -0.9788818, 2.99025, -0.3077393, 2.99025, 0.961832, 2.99025, 0.3816794, 2.99025, -3.3435113
0.3525882, -0.0135958, 2.997, 0.1115112, 2.997, -0.9802246, 2.997, -0.3040771, 2.997, 0.8091603, 2.997, 0.2290076, 2.997, -3.6564887
0.3533824, -0.01561, 3.00375, 0.1116333, 3.00375, -0.9777832, 3.00375, -0.3056641, 3.00375, 0.8015267, 3.00375, -0.0381679, 3.00375, -3.4580152
0.3541765, -0.0152743, 3.0105, 0.1127319, 3.0105, -0.9778442, 3.0105, -0.3049927, 3.0105, 0.7099237, 3.0105, -0.0992366, 3.0105, -3.5801528
0.3549706, -0.0169528, 3.01725, 0.1140747, 3.01725, -0.9783325, 3.01725, -0.305542, 3.01725, 0.740458, 3.01725, 0.0839695, 3.01725, -3.4732823
0.3557647, -0.0196384, 3.024, 0.1143799, 3.024, -0.9777832, 3.024, -0.3077393, 3.024, 0.7557252, 3.024, -0.1755725, 3.024, -3.519084
0.3565588, -0.0186313, 3.03075, 0.1139526, 3.03075, -0.9771729, 3.03075, -0.3070679, 3.03075, 0.8396947, 3.03075, -0.1755725, 3.03075, -3.519084
0.3573529, -0.0196384, 3.0375, 0.1153564, 3.0375, -0.9782715, 3.0375, -0.3041382, 3.0375, 0.7633588, 3.0375, 0.0152672, 3.0375, -3.5114503
0.3581471, -0.0162814, 3.04425, 0.1171875, 3.04425, -0.9771729, 3.04425, -0.3031616, 3.04425, 1.0610687, 3.04425, 0.0610687, 3.04425, -3.5725191
0.3589412, -0.0169528, 3.051, 0.1156006, 3.051, -0.9724731, 3.051, -0.3047485, 3.051, 0.7099237, 3.051, 0.3282443, 3.051, -3.5572519
0.3597353, -0.0218204, 3.05775, 0.114624, 3.05775, -0.9772339, 3.05775, -0.3053589, 3.05775, 0.5648855, 3.05775, 0.4427481, 3.05775, -3.4351146
0.3605294, -0.0209812, 3.0645, 0.1178589, 3.0645, -0.975769, 3.0645, -0.3045044, 3.0645, 0.7022901, 3.0645, 0.5954198, 3.0645, -3.3358779
0.3613235, -0.0223239, 3.07125, 0.1143799, 3.07125, -0.9772339, 3.07125, -0.3052979, 3.07125, 0.7938932, 3.07125, 0.6564885, 3.07125, -3.1450381
0.3621176, -0.0240024, 3.078, 0.116272, 3.078, -0.9783325, 3.078, -0.3047485, 3.078, 0.8091603, 3.078, 0.8778626, 3.078, -3.221374
0.3629118, -0.0209812, 3.08475, 0.1152954, 3.08475, -0.9770508, 3.08475, -0.3076782, 3.08475, 0.7709923, 3.08475, 1.038168, 3.08475, -3.2442749
0.3637059, -0.0182956, 3.0915, 0.1141357, 3.0915, -0.9804077, 3.0915, -0.3081055, 3.0915, 0.7099237, 3.0915, 0.9389313, 3.0915, -3.2366412
0.3645, -0.0218204, 3.09825, 0.1154175, 3.09825, -0.9748535, 3.09825, -0.3121338, 3.09825, 0.7938932, 3.09825, 0.9007633, 3.09825, -3.1526718
0.3652941, -0.0218204, 3.105, 0.114624, 3.105, -0.9766846, 3.105, -0.30896, 3.105, 0.6335878, 3.105, 1.129771, 3.105, -3.221374
0.3660882, -0.0209812, 3.11175, 0.1136475, 3.11175, -0.979126, 3.11175, -0.3095093, 3.11175, 0.6641222, 3.11175, 0.8167939, 3.11175, -3.1374047
0.3668824, -0.0142672, 3.1185, 0.1161499, 3.1185, -0.9783325, 3.1185, -0.3098755, 3.1185, 0.4580153, 3.1185, 0.7709923, 3.1185, -3.1755726
0.3676765, -0.0041962, 3.12525, 0.119751, 3.12525, -0.9801636, 3.12525, -0.3094482, 3.12525, 0.6641222, 3.12525, 1.1755725, 3.12525, -3.1908398
0.3684706, -0.005539, 3.132, 0.1131592, 3.132, -0.9766846, 3.132, -0.3040161, 3.132, 0.6870229, 3.132, 1.1755725, 3.132, -3.1145039
0.3692647, -0.008896, 3.13875, 0.1141357, 3.13875, -0.9803467, 3.13875, -0.3070068, 3.13875, 0.778626, 3.13875, 0.8091603, 3.13875, -3.0992367
0.3700588, -0.0078889, 3.1455, 0.1129761, 3.1455, -0.9768066, 3.1455, -0.3061523, 3.1455, 0.8320611, 3.1455, 0.870229, 3.1455, -2.9923663
0.3708529, -0.0082246, 3.15225, 0.1173706, 3.15225, -0.9765015, 3.15225, -0.3061523, 3.15225, 0.8854962, 3.15225, 1.1374046, 3.15225, -3.091603
0.3716471, -0.0109102, 3.159, 0.1191406, 3.159, -0.9799194, 3.159, -0.3063354, 3.159, 1.0076336, 3.159, 1.1603054, 3.159, -3.0305343
0.3724412, -0.0119173, 3.16575, 0.1171875, 3.16575, -0.980835, 3.16575, -0.3079224, 3.16575, 1.129771, 3.16575, 1.0076336, 3.16575, -3.1603053
0.3732353, -0.0115816, 3.1725, 0.1156006, 3.1725, -0.9770508, 3.1725, -0.3106689, 3.1725, 0.9923664, 3.1725, 1.221374, 3.1725, -3.038168
0.3740294, -0.0112459, 3.17925, 0.1125488, 3.17925, -0.977417, 3.17925, -0.3101196, 3.17925, 0.5648855, 3.17925, 0.7633588, 3.17925, -3.0839694
0.3748235, -0.0112459, 3.186, 0.1126709, 3.186, -0.977478, 3.186, -0.3070068, 3.186, 0.5877863, 3.186, 0.610687, 3.186, -3.1679389
0.3756176, -0.01561, 3.19275, 0.1129761, 3.19275, -0.9771729, 3.19275, -0.3087769, 3.19275, 0.8473282, 3.19275, 0.648855, 3.19275, -3.0839694
0.3764118, -0.0171206, 3.1995, 0.1139526, 3.1995, -0.9771118, 3.1995, -0.3060303, 3.1995, 0.9541985, 3.1995, 0.6335878, 3.1995, -3.221374
0.3772059, -0.0176242, 3.20625, 0.1129761, 3.20625, -0.9813843, 3.20625, -0.3060303, 3.20625, 0.7633588, 3.20625, 0.610687, 3.20625, -3.0229008
0.378, -0.0171206, 3.213, 0.112793, 3.213, -0.9760132, 3.213, -0.3045044, 3.213, 0.9312977, 3.213, 0.8473282, 3.213, -3.1145039
0.3787941, -0.0166171, 3.21975, 0.1132202, 3.21975, -0.9754639, 3.21975, -0.3061523, 3.21975, 1.038168, 3.21975, 0.5648855, 3.21975, -3.0687022
0.3795882, -0.0132601, 3.2265, 0.1108398, 3.2265, -0.9785156, 3.2265, -0.3062134, 3.2265, 0.9312977, 3.2265, 0.740458, 3.2265, -3.2519083
0.3803824, -0.0129244, 3.23325, 0.1143799, 3.23325, -0.9799805, 3.23325, -0.3024292, 3.23325, 0.7022901, 3.23325, 0.7709923, 3.23325, -3.091603
0.3811765, -0.012253, 3.24, 0.116333, 3.24, -0.9760132, 3.24, -0.3044434, 3.24, 1.0152671, 3.24, 0.8015267, 3.24, -3.0534351
0.3819706, -0.0109102, 3.24675, 0.1151733, 3.24675, -0.977356, 3.24675, -0.3052979, 3.24675, 0.9236641, 3.24675, 0.7022901, 3.24675, -2.9923663
0.3827647, -0.0196384, 3.2535, 0.1137085, 3.2535, -0.9771118, 3.2535, -0.305481, 3.2535, 0.9312977, 3.2535, 0.7709923, 3.2535, -3.0763359
0.3835588, -0.023331, 3.26025, 0.1133423, 3.26025, -0.9780884, 3.26025, -0.3082886, 3.26025, 0.8473282, 3.26025, 0.9007633, 3.26025, -2.908397
0.3843529, -0.0186313, 3.267, 0.1123657, 3.267, -0.9788818, 3.267, -0.3070068, 3.267, 0.7099237, 3.267, 0.9389313, 3.267, -3.0992367
0.3851471, -0.0130922, 3.27375, 0.1126709, 3.27375, -0.9786987, 3.27375, -0.3043213, 3.27375, 0.6870229, 3.27375, 1.1832061, 3.27375, -3.0687022
0.3859412, -0.0109102, 3.2805, 0.1136475, 3.2805, -0.9802246, 3.2805, -0.3021851, 3.2805, 0.5496183, 3.2805, 1.1755725, 3.2805, -3.0763359
0.3867353, -0.012253, 3.28725, 0.1143799, 3.28725, -0.9807129, 3.28725, -0.3077393, 3.28725, 0.6183206, 3.28725, 1.2366412, 3.28725, -2.8320611
0.3875294, -0.0129244, 3.294, 0.1101074, 3.294, -0.9784546, 3.294, -0.3070679, 3.294, 0.7175573, 3.294, 1.3664122, 3.294, -2.8625953
0.3883235, -0.0062104, 3.30075, 0.1106567, 3.30075, -0.977478, 3.30075, -0.3060913, 3.30075, 0.7557252, 3.30075, 0.8854962, 3.30075, -3.038168
0.3891176, -0.0016785, 3.3075, 0.1098633, 3.3075, -0.977478, 3.3075, -0.3060913, 3.3075, 0.8091603, 3.3075, 0.9007633, 3.3075, -2.9694657
0.3899118, -0.0001678, 3.31425, 0.1123657, 3.31425, -0.9798584, 3.31425, -0.3070679, 3.31425, 0.5877863, 3.31425, 0.6946565, 3.31425, -3.091603
0.3907059, -0.0030213, 3.321, 0.1105347, 3.321, -0.9767456, 3.321, -0.3108521, 3.321, 0.7862595, 3.321, 0.6183206, 3.321, -3.3129771
0.3915, -0.0031891, 3.32775, 0.111145, 3.32775, -0.9764404, 3.32775, -0.3096313, 3.32775, 0.6717557, 3.32775, 0.648855, 3.32775, -3.3435113
0.3922941, -0.0028534, 3.3345, 0.1109009, 3.3345, -0.979248, 3.3345, -0.3108521, 3.3345, 0.4351145, 3.3345, 0.3435115, 3.3345, -3.1908398
0.3930882, -0.0075532, 3.34125, 0.1105957, 3.34125, -0.9785156, 3.34125, -0.3080444, 3.34125, 0.351145, 3.34125, 0.3587786, 3.34125, -3.3358779
0.3938824, -0.0090639, 3.348, 0.1122437, 3.348, -0.9799194, 3.348, -0.3086548, 3.348, 0.6412213, 3.348, 0.351145, 3.348, -3.3053436
0.3946765, -0.0209812, 3.35475, 0.1142578, 3.35475, -0.9783936, 3.35475, -0.3083496, 3.35475, 0.8091603, 3.35475, 0.1374046, 3.35475, -3.2671757
0.3954706, -0.0246738, 3.3615, 0.1150513, 3.3615, -0.9761963, 3.3615, -0.3060913, 3.3615, 0.5725191, 3.3615, 0.0839695, 3.3615, -3.3587787
0.3962647, -0.0149386, 3.36825, 0.1136475, 3.36825, -0.9780273, 3.36825, -0.3034668, 3.36825, 0.6259542, 3.36825, 0.1526718, 3.36825, -3.2061069
0.3970588, -0.0149386, 3.375, 0.112854, 3.375, -0.9766846, 3.375, -0.3040771, 3.375, 0.6870229, 3.375, 0.4198473, 3.375, -3.4580152
0.3978529, -0.0171206, 3.38175, 0.1173706, 3.38175, -0.9741821, 3.38175, -0.3081055, 3.38175, 0.7862595, 3.38175, 0.4656489, 3.38175, -3.3282442
0.3986471, -0.0164492, 3.3885, 0.1150513, 3.3885, -0.9776611, 3.3885, -0.3063354, 3.3885, 0.8549618, 3.3885, 0.4656489, 3.3885, -3.3664122
0.3994412, -0.0159457, 3.39525, 0.1148682, 3.39525, -0.9798584, 3.39525, -0.3088379, 3.39525, 0.8015267, 3.39525, 0.610687, 3.39525, -3.2290077
0.4002353, -0.0135958, 3.402, 0.1142578, 3.402, -0.9781494, 3.402, -0.3101807, 3.402, 0.9694657, 3.402, 0.7251908, 3.402, -3.3587787
0.4010294, -0.0135958, 3.40875, 0.1148071, 3.40875, -0.977417, 3.40875, -0.3129883, 3.40875, 0.9312977, 3.40875, 0.6946565, 3.40875, -3.259542
0.4018235, -0.0169528, 3.4155, 0.1130371, 3.4155, -0.9761353, 3.4155, -0.3115845, 3.4155, 1.0152671, 3.4155, 0.8244275, 3.4155, -3.1450381
0.4026176, -0.0152743, 3.42225, 0.1101074, 3.42225, -0.9779053, 3.42225, -0.3081665, 3.42225, 0.8778626, 3.42225, 0.7633588, 3.42225, -3.2824428
0.4034118, -0.0162814, 3.429, 0.1124268, 3.429, -0.9788208, 3.429, -0.3116455, 3.429, 0.9847328, 3.429, 0.6259542, 3.429, -3.0687022
0.4042059, -0.0193027, 3.43575, 0.1133423, 3.43575, -0.9765015, 3.43575, -0.310791, 3.43575, 0.9694657, 3.43575, 0.5648855, 3.43575, -3.0458016
0.405, -0.0159457, 3.4425, 0.1139526, 3.4425, -0.9783325, 3.4425, -0.3135986, 3.4425, 1.0229008, 3.4425, 0.5038168, 3.4425, -3.0839694
0.4057941, -0.01561, 3.44925, 0.1150513, 3.44925, -0.9788208, 3.44925, -0.30896, 3.44925, 1.0687023, 3.44925, 0.6259542, 3.44925, -3.1526718
0.4065882, -0.0206455, 3.456, 0.1149902, 3.456, -0.9794312, 3.456, -0.3053589, 3.456, 1.1450381, 3.456, 0.4961832, 3.456, -3.0687022
0.4073824, -0.0186313, 3.46275, 0.112915, 3.46275, -0.9793091, 3.46275, -0.303772, 3.46275, 1.0152671, 3.46275, 0.6641222, 3.46275, -3.129771
0.4081765, -0.0166171, 3.4695, 0.1134644, 3.4695, -0.9783936, 3.4695, -0.3062134, 3.4695, 1.0534351, 3.4695, 0.7328244, 3.4695, -3.1145039
0.4089706, -0.014435, 3.47625, 0.1147461, 3.47625, -0.9743652, 3.47625, -0.3062744, 3.47625, 0.8473282, 3.47625, 0.7251908, 3.47625, -3.129771
0.4097647, -0.0179599, 3.483, 0.1140137, 3.483, -0.9780273, 3.483, -0.3047485, 3.483, 0.7480916, 3.483, 0.961832, 3.483, -3.1526718
0.4105588, -0.0270237, 3.48975, 0.1123657, 3.48975, -0.980835, 3.48975, -0.3015747, 3.48975, 0.4122137, 3.48975, 1.0305344, 3.48975, -3.0229008
0.4113529, -0.0256809, 3.4965, 0.1127319, 3.4965, -0.980896, 3.4965, -0.3019409, 3.4965, 0.6259542, 3.4965, 1.2137405, 3.4965, -3.1068702
0.4121471, -0.0229953, 3.50325, 0.1137085, 3.50325, -0.9815674, 3.50325, -0.3013306, 3.50325, 0.5648855, 3.50325, 1.1755725, 3.50325, -3.0992367
0.4129412, -0.0164492, 3.51, 0.1102905, 3.51, -0.9786987, 3.51, -0.3009033, 3.51, 0.4732825, 3.51, 1.1679389, 3.51, -3.2748091
0.4137353, -0.0166171, 3.51675, 0.1085815, 3.51675, -0.9790039, 3.51675, -0.3018188, 3.51675, 0.3969466, 3.51675, 1.0610687, 3.51675, -3.3969467
0.4145294, -0.01561, 3.5235, 0.1090698, 3.5235, -0.9783936, 3.5235, -0.3039551, 3.5235, 0.4580153, 3.5235, 0.9770992, 3.5235, -3.3816793
0.4153235, -0.0115816, 3.53025, 0.109436, 3.53025, -0.9780884, 3.53025, -0.3043823, 3.53025, 0.2748092, 3.53025, 0.9389313, 3.53025, -3.3664122
0.4161176, -0.0114137, 3.537, 0.1177979, 3.537, -0.9810791, 3.537, -0.3087769, 3.537, 0.3816794, 3.537, 0.8015267, 3.537, -3.389313
0.4169118, -0.0149386, 3.54375, 0.1138306, 3.54375, -0.9834595, 3.54375, -0.3082886, 3.54375, 0.3282443, 3.54375, 0.9847328, 3.54375, -3.389313
0.4177059, -0.0152743, 3.5505, 0.1173706, 3.5505, -0.9802856, 3.5505, -0.3054199, 3.5505, 0.351145, 3.5505, 1.2061069, 3.5505, -3.3664122
0.4185, -0.0149386, 3.55725, 0.1159668, 3.55725, -0.9796753, 3.55725, -0.3052979, 3.55725, 0.4427481, 3.55725, 1.1679389, 3.55725, -3.3206108
0.4192941, -0.0124208, 3.564, 0.1177368, 3.564, -0.9781494, 3.564, -0.3062744, 3.564, 0.7175573, 3.564, 1.1908396, 3.564, -3.3969467
0.4200882, -0.012253, 3.57075, 0.1135254, 3.57075, -0.9770508, 3.57075, -0.3095703, 3.57075, 0.7175573, 3.57075, 1.1832061, 3.57075, -3.4045801
0.4208824, -0.0105745, 3.5775, 0.1170654, 3.5775, -0.975769, 3.5775, -0.3126221, 3.5775, 0.8244275, 3.5775, 1.3282443, 3.5775, -3.0687022
0.4216765, -0.0135958, 3.58425, 0.1236572, 3.58425, -0.9763794, 3.58425, -0.3146973, 3.58425, 0.7633588, 3.58425, 1.5038168, 3.58425, -3.2442749
0.4224706, -0.0199741, 3.591, 0.1207275, 3.591, -0.9768066, 3.591, -0.3152466, 3.591, 0.7328244, 3.591, 1.5038168, 3.591, -3.129771
0.4232647, -0.0221561, 3.59775, 0.1170654, 3.59775, -0.9799194, 3.59775, -0.3119507, 3.59775, 0.7099237, 3.59775, 1.4351145, 3.59775, -2.9847329
0.4240588, -0.0203098, 3.6045, 0.116272, 3.6045, -0.9761963, 3.6045, -0.312439, 3.6045, 0.7862595, 3.6045, 1.4580153, 3.6045, -2.9541984
0.4248529, -0.0253452, 3.61125, 0.1176758, 3.61125, -0.975647, 3.61125, -0.3141479, 3.61125, 0.778626, 3.61125, 1.2290076, 3.61125, -3.0152671
0.4256471, -0.0263523, 3.618, 0.1168213, 3.618, -0.9793091, 3.618, -0.312561, 3.618, 0.778626, 3.618, 1.3587786, 3.618, -3.0152671
0.4264412, -0.0224918, 3.62475, 0.1167603, 3.62475, -0.9793701, 3.62475, -0.3108521, 3.62475, 0.7862595, 3.62475, 1.3282443, 3.62475, -2.9312978
0.4272353, -0.0263523, 3.6315, 0.1173096, 3.6315, -0.9802246, 3.6315, -0.3120728, 3.6315, 0.8625954, 3.6315, 1.3740458, 3.6315, -2.6946564
0.4280294, -0.030045, 3.63825, 0.1164551, 3.63825, -0.977417, 3.63825, -0.3138428, 3.63825, 0.8167939, 3.63825, 1.3206106, 3.63825, -3.038168
0.4288235, -0.0250095, 3.645, 0.1149292, 3.645, -0.9780884, 3.645, -0.3131104, 3.645, 0.8091603, 3.645, 1.3358779, 3.645, -2.7938931
0.4296176, -0.0203098, 3.65175, 0.1133423, 3.65175, -0.9766846, 3.65175, -0.3104858, 3.65175, 0.8778626, 3.65175, 1.4122137, 3.65175, -2.8320611
0.4304118, -0.0206455, 3.6585, 0.1160889, 3.6585, -0.9752808, 3.6585, -0.3082275, 3.6585, 1.0229008, 3.6585, 1.2290076, 3.6585, -2.7557251
0.4312059, -0.0186313, 3.66525, 0.1127319, 3.66525, -0.9784546, 3.66525, -0.3120117, 3.66525, 1.1755725, 3.66525, 0.9847328, 3.66525, -2.8320611
0.432, -0.0166171, 3.672, 0.1113892, 3.672, -0.9777222, 3.672, -0.3074951, 3.672, 1.2061069, 3.672, 0.8931298, 3.672, -2.8167939
0.4327941, -0.0179599, 3.67875, 0.1083374, 3.67875, -0.9796753, 3.67875, -0.3092041, 3.67875, 1.129771, 3.67875, 0.9541985, 3.67875, -2.870229
0.4335882, -0.0169528, 3.6855, 0.1116943, 3.6855, -0.9779663, 3.6855, -0.3056641, 3.6855, 1.2748091, 3.6855, 0.4961832, 3.6855, -2.961832
0.4343824, -0.0179599, 3.69225, 0.1114502, 3.69225, -0.9777222, 3.69225, -0.3063965, 3.69225, 1.1832061, 3.69225, 0.5496183, 3.69225, -2.8625953
0.4351765, -0.0129244, 3.699, 0.1092529, 3.699, -0.9732056, 3.699, -0.3048096, 3.699, 1.259542, 3.699, 0.5801527, 3.699, -2.9312978
0.4359706, -0.0057069, 3.70575, 0.1138916, 3.70575, -0.9726562, 3.70575, -0.303772, 3.70575, 1.2519084, 3.70575, 0.5496183, 3.70575, -3.0534351
0.4367647, -0.005539, 3.7125, 0.1103516, 3.7125, -0.9754639, 3.7125, -0.3065796, 3.7125, 1.2137405, 3.7125, 0.6335878, 3.7125, -3.1374047
0.4375588, -0.0095674, 3.71925, 0.1104736, 3.71925, -0.9764404, 3.71925, -0.3081665, 3.71925, 0.9465649, 3.71925, 0.7862595, 3.71925, -2.961832
0.4383529, -0.0092317, 3.726, 0.1104736, 3.726, -0.9753418, 3.726, -0.3036499, 3.726, 1.0305344, 3.726, 0.8091603, 3.726, -2.9312978
0.4391471, -0.0031891, 3.73275, 0.1106567, 3.73275, -0.9735718, 3.73275, -0.3046875, 3.73275, 0.908397, 3.73275, 0.6412213, 3.73275, -3.0687022
0.4399412, -0.0010071, 3.7395, 0.1102295, 3.7395, -0.9770508, 3.7395, -0.3057251, 3.7395, 0.9770992, 3.7395, 0.4427481, 3.7395, -3.2748091
0.4407353, -0.0003357, 3.74625, 0.1115723, 3.74625, -0.9776001, 3.74625, -0.3106079, 3.74625, 0.9236641, 3.74625, 0.4274809, 3.74625, -3.1679389
0.4415294, -0.0003357, 3.753, 0.1131592, 3.753, -0.9750366, 3.753, -0.3063965, 3.753, 0.8396947, 3.753, 0.351145, 3.753, -3.0229008
0.4423235, -0.0018463, 3.75975, 0.1155396, 3.75975, -0.9769897, 3.75975, -0.307312, 3.75975, 0.648855, 3.75975, 0.2366412, 3.75975, -3.091603
0.4431176, -0.002182, 3.7665, 0.116272, 3.7665, -0.9788818, 3.7665, -0.3086548, 3.7665, 0.9236641, 3.7665, 0.1221374, 3.7665, -3.0687022
0.4439118, -0.0045319, 3.77325, 0.1140747, 3.77325, -0.9761963, 3.77325, -0.3074951, 3.77325, 0.8778626, 3.77325, 0.389313, 3.77325, -3.259542
0.4447059, -0.0139315, 3.78, 0.1156006, 3.78, -0.9793701, 3.78, -0.3082275, 3.78, 0.8778626, 3.78, 0.3358779, 3.78, -3.1679389
0.4455, -0.0203098, 3.78675, 0.1174316, 3.78675, -0.9813232, 3.78675, -0.3048706, 3.78675, 0.8244275, 3.78675, 0.4198473, 3.78675, -3.2137403
0.4462941, -0.0179599, 3.7935, 0.1170044, 3.7935, -0.9807739, 3.7935, -0.3057251, 3.7935, 0.8167939, 3.7935, 0.5801527, 3.7935, -3.1145039
0.4470882, -0.0193027, 3.80025, 0.1184082, 3.80025, -0.9766846, 3.80025, -0.3068848, 3.80025, 0.8778626, 3.80025, 0.6412213, 3.80025, -3.2442749
0.4478824, -0.0209812, 3.807, 0.1147461, 3.807, -0.9790039, 3.807, -0.3036499, 3.807, 0.7862595, 3.807, 0.8091603, 3.807, -3.1984732
0.4486765, -0.0219883, 3.81375, 0.1113892, 3.81375, -0.9784546, 3.81375, -0.3078003, 3.81375, 0.8244275, 3.81375, 0.7480916, 3.81375, -3.1374047
0.4494706, -0.0203098, 3.8205, 0.1154175, 3.8205, -0.9798584, 3.8205, -0.3078613, 3.8205, 0.8549618, 3.8205, 0.7862595, 3.8205, -3.2442749
0.4502647, -0.0157778, 3.82725, 0.114563, 3.82725, -0.9766846, 3.82725, -0.307312, 3.82725, 0.7862595, 3.82725, 0.8015267, 3.82725, -3.0839694
0.4510588, -0.0149386, 3.834, 0.1095581, 3.834, -0.9769897, 3.834, -0.3060303, 3.834, 0.870229, 3.834, 0.9465649, 3.834, -3.091603
0.4518529, -0.0152743, 3.84075, 0.1105347, 3.84075, -0.9776611, 3.84075, -0.3070068, 3.84075, 0.9007633, 3.84075, 1.0458015, 3.84075, -2.9541984
0.4526471, -0.0139315, 3.8475, 0.1109009, 3.8475, -0.9764404, 3.8475, -0.3111572, 3.8475, 1.0534351, 3.8475, 1.1450381, 3.8475, -3.1145039
0.4534412, -0.0166171, 3.85425, 0.1123657, 3.85425, -0.977478, 3.85425, -0.3115234, 3.85425, 0.9541985, 3.85425, 1.0610687, 3.85425, -2.9923663
0.4542353, -0.0164492, 3.861, 0.1131592, 3.861, -0.9747925, 3.861, -0.310791, 3.861, 1.1526718, 3.861, 0.8091603, 3.861, -3.0458016
0.4550294, -0.0135958, 3.86775, 0.1134033, 3.86775, -0.9743652, 3.86775, -0.3119507, 3.86775, 1.1450381, 3.86775, 0.7251908, 3.86775, -3.0152671
0.4558235, -0.017792, 3.8745, 0.114502, 3.8745, -0.9785767, 3.8745, -0.3084106, 3.8745, 1.1603054, 3.8745, 0.6412213, 3.8745, -3.0610688
0.4566176, -0.018967, 3.88125, 0.1157837, 3.88125, -0.9772339, 3.88125, -0.3066406, 3.88125, 0.961832, 3.88125, 0.7633588, 3.88125, -2.9923663
0.4574118, -0.0162814, 3.888, 0.1148682, 3.888, -0.9800415, 3.888, -0.3091431, 3.888, 1.221374, 3.888, 0.5572519, 3.888, -3.2824428
0.4582059, -0.021149, 3.89475, 0.111084, 3.89475, -0.9777222, 3.89475, -0.3068237, 3.89475, 1.1832061, 3.89475, 0.6030535, 3.89475, -3.1679389
0.459, -0.0243381, 3.9015, 0.112854, 3.9015, -0.9779663, 3.9015, -0.3051758, 3.9015, 1.221374, 3.9015, 0.7251908, 3.9015, -3.0992367
0.4597941, -0.0273594, 3.90825, 0.1119385, 3.90825, -0.9770508, 3.90825, -0.3050537, 3.90825, 0.9847328, 3.90825, 0.7099237, 3.90825, -3.259542
0.4605882, -0.0293736, 3.915, 0.1104126, 3.915, -0.9770508, 3.915, -0.3060913, 3.915, 1.0305344, 3.915, 0.8320611, 3.915, -3.1068702
0.4613824, -0.0297093, 3.92175, 0.1101074, 3.92175, -0.9765625, 3.92175, -0.3051147, 3.92175, 1.1374046, 3.92175, 1.1374046, 3.92175, -3.2290077
0.4621765, -0.0253452, 3.9285, 0.1073608, 3.9285, -0.9761353, 3.9285, -0.3057251, 3.9285, 1.038168, 3.9285, 0.9923664, 3.9285, -3.1526718
0.4629706, -0.0243381, 3.93525, 0.1066284, 3.93525, -0.9777832, 3.93525, -0.3069458, 3.93525, 0.9770992, 3.93525, 1.0152671, 3.93525, -3.259542
0.4637647, -0.0236667, 3.942, 0.1079102, 3.942, -0.9764404, 3.942, -0.3074341, 3.942, 0.908397, 3.942, 0.9923664, 3.942, -3.2519083
0.4645588, -0.0216526, 3.94875, 0.1088867, 3.94875, -0.9740601, 3.94875, -0.3078003, 3.94875, 1.0839695, 3.94875, 1.0152671, 3.94875, -3.2671757
0.4653529, -0.0157778, 3.9555, 0.1117554, 3.9555, -0.9752808, 3.9555, -0.3112183, 3.9555, 1.0229008, 3.9555, 1.0305344, 3.9555, -3.3587787
0.4661471, -0.0129244, 3.96225, 0.1137695, 3.96225, -0.9758911, 3.96225, -0.3093262, 3.96225, 1.1450381, 3.96225, 0.8854962, 3.96225, -3.2366412
0.4669412, -0.0124208, 3.969, 0.112915, 3.969, -0.9785767, 3.969, -0.3070679, 3.969, 0.8854962, 3.969, 0.8854962, 3.969, -3.3282442
0.4677353, -0.0109102, 3.97575, 0.1123047, 3.97575, -0.980896, 3.97575, -0.3112793, 3.97575, 0.8778626, 3.97575, 0.7633588, 3.97575, -3.2977099
0.4685294, -0.0105745, 3.9825, 0.1167603, 3.9825, -0.977417, 3.9825, -0.3087158, 3.9825, 0.961832, 3.9825, 0.6564885, 3.9825, -3.3129771
0.4693235, -0.0095674, 3.98925, 0.1187134, 3.98925, -0.9746094, 3.98925, -0.3070679, 3.98925, 0.9007633, 3.98925, 0.6717557, 3.98925, -3.2977099
0.4701176, -0.0075532, 3.996, 0.1173706, 3.996, -0.9799805, 3.996, -0.3030396, 3.996, 0.5954198, 3.996, 0.7709923, 3.996, -3.1145039
0.4709118, -0.0112459, 4.00275, 0.1149292, 4.00275, -0.9803467, 4.00275, -0.3070679, 4.00275, 0.740458, 4.00275, 0.7633588, 4.00275, -3.1908398
0.4717059, -0.0139315, 4.0095, 0.1124878, 4.0095, -0.9778442, 4.0095, -0.3101807, 4.0095, 0.6564885, 4.0095, 0.5648855, 4.0095, -3.1908398
0.4725, -0.0095674, 4.01625, 0.114563, 4.01625, -0.9769897, 4.01625, -0.309082, 4.01625, 0.7633588, 4.01625, 0.6564885, 4.01625, -3.2824428
0.4732941, -0.011078, 4.023, 0.1096191, 4.023, -0.9771118, 4.023, -0.3076172, 4.023, 0.7022901, 4.023, 0.6030535, 4.023, -3.2748091
0.4740882, -0.0112459, 4.02975, 0.1106567, 4.02975, -0.9752197, 4.02975, -0.3074951, 4.02975, 0.7099237, 4.02975, 0.4732825, 4.02975, -3.351145
0.4748824, -0.0095674, 4.0365, 0.1098022, 4.0365, -0.9780273, 4.0365, -0.3088379, 4.0365, 0.7099237, 4.0365, 0.3664122, 4.0365, -3.2824428
0.4756765, -0.0105745, 4.04325, 0.1114502, 4.04325, -0.9772949, 4.04325, -0.3063965, 4.04325, 0.7328244, 4.04325, 0.4656489, 4.04325, -3.3740458
0.4764706, -0.0082246, 4.05, 0.112854, 4.05, -0.9779053, 4.05, -0.3045044, 4.05, 0.961832, 4.05, 0.1679389, 4.05, -3.3053436
0.4772647, -0.0078889, 4.05675, 0.1129761, 4.05675, -0.9761353, 4.05675, -0.3084717, 4.05675, 0.908397, 4.05675, 0.0992366, 4.05675, -3.3740458
0.4780588, -0.0132601, 4.0635, 0.1175537, 4.0635, -0.9778442, 4.0635, -0.3096313, 4.0635, 1.0610687, 4.0635, 0.2137405, 4.0635, -3.2519083
0.4788529, -0.0135958, 4.07025, 0.1134033, 4.07025, -0.9745483, 4.07025, -0.3069458, 4.07025, 0.9541985, 4.07025, 0.519084, 4.07025, -3.5343511
0.4796471, -0.0119173, 4.077, 0.1138306, 4.077, -0.9771118, 4.077, -0.3081665, 4.077, 0.7862595, 4.077, 0.5114504, 4.077, -3.3587787
0.4804412, -0.008896, 4.08375, 0.116272, 4.08375, -0.9776611, 4.08375, -0.3087769, 4.08375, 0.9236641, 4.08375, 0.778626, 4.08375, -3.1755726
0.4812353, -0.0052033, 4.0905, 0.1186523, 4.0905, -0.979126, 4.0905, -0.3061523, 4.0905, 0.8396947, 4.0905, 0.8854962, 4.0905, -3.2442749
0.4820294, -0.0062104, 4.09725, 0.1168213, 4.09725, -0.977356, 4.09725, -0.3112183, 4.09725, 1.038168, 4.09725, 0.8778626, 4.09725, -3.2137403
0.4828235, -0.0062104, 4.104, 0.1149292, 4.104, -0.9760742, 4.104, -0.3096924, 4.104, 1.0610687, 4.104, 0.8625954, 4.104, -3.2366412
0.4836176, -0.0072175, 4.11075, 0.1118164, 4.11075, -0.9783325, 4.11075, -0.3065796, 4.11075, 1.0458015, 4.11075, 0.778626, 4.11075, -3.1832061
0.4844118, -0.0115816, 4.1175, 0.1151123, 4.1175, -0.9782104, 4.1175, -0.3063354, 4.1175, 0.8778626, 4.1175, 0.7022901, 4.1175, -3.129771
0.4852059, -0.0166171, 4.12425, 0.1136475, 4.12425, -0.9789429, 4.12425, -0.3063354, 4.12425, 0.6793893, 4.12425, 0.7709923, 4.12425, -3.1374047
0.486, -0.0229953, 4.131, 0.1130371, 4.131, -0.9804688, 4.131, -0.3058472, 4.131, 0.8778626, 4.131, 0.5725191, 4.131, -3.1374047
0.4867941, -0.0256809, 4.13775, 0.1123657, 4.13775, -0.9777832, 4.13775, -0.3067017, 4.13775, 0.8244275, 4.13775, 0.7709923, 4.13775, -3.3129771
0.4875882, -0.0223239, 4.1445, 0.114563, 4.1445, -0.9768677, 4.1445, -0.3104248, 4.1445, 0.7709923, 4.1445, 0.7633588, 4.1445, -3.1221373
0.4883824, -0.0283665, 4.15125, 0.1126099, 4.15125, -0.9779663, 4.15125, -0.3128662, 4.15125, 0.8396947, 4.15125, 0.7480916, 4.15125, -3.038168
0.4891765, -0.0243381, 4.158, 0.1112671, 4.158, -0.9753418, 4.158, -0.3071899, 4.158, 0.7480916, 4.158, 0.5343512, 4.158, -2.9389312
0.4899706, -0.0199741, 4.16475, 0.1112671, 4.16475, -0.97229, 4.16475, -0.3081665, 4.16475, 0.740458, 4.16475, 0.3969466, 4.16475, -3.1068702
0.4907647, -0.0231632, 4.1715, 0.1126099, 4.1715, -0.9780884, 4.1715, -0.3079224, 4.1715, 0.740458, 4.1715, 0.3053435, 4.1715, -3.1755726
0.4915588, -0.0186313, 4.17825, 0.1118774, 4.17825, -0.9771729, 4.17825, -0.3086548, 4.17825, 1, 4.17825, 0.4885496, 4.17825, -3.259542
0.4923529, -0.0152743, 4.185, 0.1118164, 4.185, -0.9762573, 4.185, -0.3101196, 4.185, 0.8091603, 4.185, 0.3358779, 4.185, -3.2824428
0.4931471, -0.0129244, 4.19175, 0.1113892, 4.19175, -0.9760132, 4.19175, -0.3099365, 4.19175, 0.9007633, 4.19175, 0.2671756, 4.19175, -3.3206108
0.4939412, -0.0135958, 4.1985, 0.114563, 4.1985, -0.9763794, 4.1985, -0.3099976, 4.1985, 0.8167939, 4.1985, 0.2290076, 4.1985, -3.2366412
0.4947353, -0.0162814, 4.20525, 0.1150513, 4.20525, -0.975708, 4.20525, -0.3092041, 4.20525, 1.0839695, 4.20525, 0.3740458, 4.20525, -3.4427481
0.4955294, -0.0134279, 4.212, 0.1134033, 4.212, -0.9758911, 4.212, -0.3128052, 4.212, 1.1374046, 4.212, 0.480916, 4.212, -3.480916
0.4963235, -0.0105745, 4.21875, 0.1116333, 4.21875, -0.9752197, 4.21875, -0.3096924, 4.21875, 0.9007633, 4.21875, 0.3053435, 4.21875, -3.4580152
0.4971176, -0.0078889, 4.2255, 0.1121826, 4.2255, -0.9779053, 4.2255, -0.3135986, 4.2255, 1.1984733, 4.2255, 0.3816794, 4.2255, -3.0458016
0.4979118, -0.0050355, 4.23225, 0.1131592, 4.23225, -0.9799805, 4.23225, -0.3109131, 4.23225, 0.9847328, 4.23225, 0.4961832, 4.23225, -3.1755726
0.4987059, -0.0099031, 4.239, 0.1159058, 4.239, -0.9786377, 4.239, -0.3056641, 4.239, 0.7480916, 4.239, 0.4885496, 4.239, -3.1068702
0.4995, -0.0063783, 4.24575, 0.1230469, 4.24575, -0.9764404, 4.24575, -0.3101807, 4.24575, 0.778626, 4.24575, 0.7099237, 4.24575, -2.908397
0.5002941, -0.0075532, 4.2525, 0.1221313, 4.2525, -0.9760132, 4.2525, -0.3103027, 4.2525, 0.0610687, 4.2525, 1.1526718, 4.2525, -2.7022901
0.5010882, -0.0082246, 4.25925, 0.1234131, 4.25925, -0.9764404, 4.25925, -0.3092651, 4.25925, -0.3816794, 4.25925, 1.8244275, 4.25925, -2.2977099
0.5018824, -0.0062104, 4.266, 0.1271973, 4.266, -0.9802856, 4.266, -0.3013916, 4.266, -0.8015267, 4.266, 2.3053436, 4.266, -2.0305343
0.5026765, -0.0095674, 4.27275, 0.1293335, 4.27275, -0.9847412, 4.27275, -0.3018799, 4.27275, -0.8167939, 4.27275, 2.7938931, 4.27275, -2.1068702
0.5034706, -0.0077211, 4.2795, 0.1231689, 4.2795, -0.9790039, 4.2795, -0.3128662, 4.2795, -0.8778626, 4.2795, 2.8015268, 4.2795, -1.9236641
0.5042647, -0.0063783, 4.28625, 0.1176147, 4.28625, -0.9744873, 4.28625, -0.3184814, 4.28625, -0.9312977, 4.28625, 2.4656489, 4.28625, -1.9923664
0.5050588, -0.0085603, 4.293, 0.1098022, 4.293, -0.9790649, 4.293, -0.3101807, 4.293, -1.0687023, 4.293, 2.5801528, 4.293, -1.8625954
0.5058529, -0.0115816, 4.29975, 0.1088257, 4.29975, -0.9786987, 4.29975, -0.3045044, 4.29975, -0.9312977, 4.29975, 2.4580152, 4.29975, -1.8320611
0.5066471, -0.012253, 4.3065, 0.1135254, 4.3065, -0.9776611, 4.3065, -0.3088989, 4.3065, -0.7633588, 4.3065, 2.5725191, 4.3065, -1.8244275
0.5074412, -0.0109102, 4.31325, 0.1126709, 4.31325, -0.9768677, 4.31325, -0.3126221, 4.31325, -0.8854962, 4.31325, 2.7099237, 4.31325, -1.908397
0.5082353, -0.0130922, 4.32, 0.1155396, 4.32, -0.9790039, 4.32, -0.3145142, 4.32, -0.740458, 4.32, 2.2671757, 4.32, -1.8091604
0.5090294, -0.0164492, 4.32675, 0.1195068, 4.32675, -0.9776001, 4.32675, -0.3114624, 4.32675, -0.5267175, 4.32675, 2.2061069, 4.32675, -1.8167939
0.5098235, -0.0179599, 4.3335, 0.1216431, 4.3335, -0.9754028, 4.3335, -0.3088379, 4.3335, -0.351145, 4.3335, 2.961832, 4.3335, -1.5343511
0.5106176, -0.0216526, 4.34025, 0.1240234, 4.34025, -0.9750977, 4.34025, -0.309021, 4.34025, -0.1068702, 4.34025, 3.0076337, 4.34025, -1.6946565
0.5114118, -0.023331, 4.347, 0.1235352, 4.347, -0.9805908, 4.347, -0.3088989, 4.347, -0.2061069, 4.347, 3.4427481, 4.347, -1.5419847
0.5122059, -0.0243381, 4.35375, 0.1121216, 4.35375, -0.975647, 4.35375, -0.3162842, 4.35375, -0.9389313, 4.35375, 4.4732823, 4.35375, -1.221374
0.513, -0.0221561, 4.3605, 0.1083374, 4.3605, -0.9772339, 4.3605, -0.3157349, 4.3605, -1.3053435, 4.3605, 4.5801525, 4.3605, -0.8473282
0.5137941, -0.0243381, 4.36725, 0.1137695, 4.36725, -0.9761353, 4.36725, -0.3151855, 4.36725, -1.4274809, 4.36725, 4.6564884, 4.36725, -0.8244275
0.5145882, -0.0246738, 4.374, 0.1165771, 4.374, -0.979187, 4.374, -0.315918, 4.374, -1.9465649, 4.374, 5.0763359, 4.374, -0.8167939
0.5153824, -0.0236667, 4.38075, 0.1314697, 4.38075, -0.9772949, 4.38075, -0.3147583, 4.38075, -2.5114503, 4.38075, 5.4198475, 4.38075, -0.3816794
0.5161765, -0.0209812, 4.3875, 0.1399536, 4.3875, -0.9761353, 4.3875, -0.3218384, 4.3875, -2.870229, 4.3875, 5.6259542, 4.3875, -0.1832061
0.5169706, -0.018967, 4.39425, 0.1375732, 4.39425, -0.9818115, 4.39425, -0.3285522, 4.39425, -2.5496182, 4.39425, 5.9160304, 4.39425, 0.1679389
0.5177647, -0.0164492, 4.401, 0.1294556, 4.401, -0.9837036, 4.401, -0.3240356, 4.401, -2.0763359, 4.401, 6.2366414, 4.401, 0.1603053
0.5185588, -0.018967, 4.40775, 0.1259155, 4.40775, -0.9839478, 4.40775, -0.3237915, 4.40775, -1.6412214, 4.40775, 6.4580154, 4.40775, 0.2748092
0.5193529, -0.0209812, 4.4145, 0.123291, 4.4145, -0.9832764, 4.4145, -0.3236084, 4.4145, -1.1374046, 4.4145, 6.5496182, 4.4145, 0.4580153
0.5201471, -0.0182956, 4.42125, 0.1242676, 4.42125, -0.9805908, 4.42125, -0.3212891, 4.42125, -0.7022901, 4.42125, 7.1145039, 4.42125, 0.4351145
0.5209412, -0.0124208, 4.428, 0.1190186, 4.428, -0.973938, 4.428, -0.3222656, 4.428, -1.0763359, 4.428, 7.519084, 4.428, 0.7175573
0.5217353, -0.0149386, 4.43475, 0.1162109, 4.43475, -0.9761353, 4.43475, -0.3259888, 4.43475, -1.5419847, 4.43475, 7.7557254, 4.43475, 0.8625954
0.5225294, -0.0112459, 4.4415, 0.1187134, 4.4415, -0.9779663, 4.4415, -0.3218384, 4.4415, -1.5648855, 4.4415, 8.0305347, 4.4415, 0.9770992
0.5233235, -0.0112459, 4.44825, 0.1199341, 4.44825, -0.9772339, 4.44825, -0.3179321, 4.44825, -1.4198474, 4.44825, 7.6717558, 4.44825, 1.1450381
0.5241176, -0.0112459, 4.455, 0.1137085, 4.455, -0.9741211, 4.455, -0.3278809, 4.455, -0.9541985, 4.455, 6.8778625, 4.455, 1.2137405
0.5249118, -0.0095674, 4.46175, 0.1069946, 4.46175, -0.9716797, 4.46175, -0.3237915, 4.46175, -1.1526718, 4.46175, 7.0687022, 4.46175, 1.0229008
0.5257059, -0.0092317, 4.4685, 0.1027832, 4.4685, -0.9714966, 4.4685, -0.3238525, 4.4685, -1.6870229, 4.4685, 6.9923663, 4.4685, 1.3129771
0.5265, -0.0075532, 4.47525, 0.1022949, 4.47525, -0.9719849, 4.47525, -0.3178101, 4.47525, -1.6412214, 4.47525, 5.8167939, 4.47525, 1.0763359
0.5272941, -0.0099031, 4.482, 0.1078491, 4.482, -0.9777222, 4.482, -0.3137817, 4.482, -1.4656489, 4.482, 5.8702292, 4.482, 1.1068702
0.5280882, -0.0137636, 4.48875, 0.1107788, 4.48875, -0.9825439, 4.48875, -0.307251, 4.48875, -1.6870229, 4.48875, 6.4122138, 4.48875, 1.0305344
0.5288824, -0.0135958, 4.4955, 0.1072998, 4.4955, -0.9786377, 4.4955, -0.3071289, 4.4955, -1.2137405, 4.4955, 7.1374044, 4.4955, 0.8549618
0.5296765, -0.0176242, 4.50225, 0.1020508, 4.50225, -0.9744263, 4.50225, -0.3060913, 4.50225, -0.9770992, 4.50225, 7.480916, 4.50225, 0.8091603
0.5304706, -0.0162814, 4.509, 0.1013184, 4.509, -0.9765625, 4.509, -0.3050537, 4.509, -0.8778626, 4.509, 7.2290077, 4.509, 0.7099237
0.5312647, -0.0182956, 4.51575, 0.09198, 4.51575, -0.9780884, 4.51575, -0.2990112, 4.51575, -0.389313, 4.51575, 6.8091602, 4.51575, 0.4198473
0.5320588, -0.0176242, 4.5225, 0.090271, 4.5225, -0.9770508, 4.5225, -0.3081055, 4.5225, -0.1450382, 4.5225, 6.4198475, 4.5225, 0.3816794
0.5328529, -0.0149386, 4.52925, 0.0878296, 4.52925, -0.9782104, 4.52925, -0.3048706, 4.52925, -0.4351145, 4.52925, 6.3206105, 4.52925, 0.0839695
0.5336471, -0.0139315, 4.536, 0.0840454, 4.536, -0.9807129, 4.536, -0.305481, 4.536, -0.5419847, 4.536, 6.3282442, 4.536, -0.0152672
0.5344412, -0.01561, 4.54275, 0.0957031, 4.54275, -0.9765625, 4.54275, -0.3137207, 4.54275, -0.3129771, 4.54275, 5.7557254, 4.54275, -0.1984733
0.5352353, -0.0132601, 4.5495, 0.0933228, 4.5495, -0.9768066, 4.5495, -0.3181763, 4.5495, -0.4045801, 4.5495, 5.3893127, 4.5495, -0.5496183
0.5360294, -0.0139315, 4.55625, 0.0921631, 4.55625, -0.9752197, 4.55625, -0.3133545, 4.55625, -0.740458, 4.55625, 4.9007635, 4.55625, -0.4656489
0.5368235, -0.0124208, 4.563, 0.0957031, 4.563, -0.9741821, 4.563, -0.3126221, 4.563, -0.8778626, 4.563, 4.4656487, 4.563, -0.519084
0.5376176, -0.0139315, 4.56975, 0.098999, 4.56975, -0.9747314, 4.56975, -0.3118896, 4.56975, -1.0610687, 4.56975, 4.519084, 4.56975, -0.5877863
0.5384118, -0.0176242, 4.5765, 0.1050415, 4.5765, -0.9790649, 4.5765, -0.3106079, 4.5765, -0.6030535, 4.5765, 4.9236641, 4.5765, -0.6030535
0.5392059, -0.0169528, 4.58325, 0.1097412, 4.58325, -0.9821167, 4.58325, -0.3049316, 4.58325, -0.1068702, 4.58325, 5.4198475, 4.58325, -0.9007633
0.54, -0.0229953, 4.59, 0.1071167, 4.59, -0.9762573, 4.59, -0.3109131, 4.59, -0.1068702, 4.59, 5.3893127, 4.59, -0.5725191
0.5407941, -0.0209812, 4.59675, 0.104248, 4.59675, -0.9716187, 4.59675, -0.3126221, 4.59675, -0.3740458, 4.59675, 5.4961834, 4.59675, -0.7938932
0.5415882, -0.0176242, 4.6035, 0.0982056, 4.6035, -0.9707031, 4.6035, -0.3173828, 4.6035, -0.7862595, 4.6035, 5.1755724, 4.6035, -0.9160305
0.5423824, -0.0186313, 4.61025, 0.100769, 4.61025, -0.9761963, 4.61025, -0.3236084, 4.61025, -0.4351145, 4.61025, 4.7328243, 4.61025, -0.9007633
0.5431765, -0.0193027, 4.617, 0.1011353, 4.617, -0.9790649, 4.617, -0.3179321, 4.617, -0.4732825, 4.617, 3.9160306, 4.617, -0.9694657
0.5439706, -0.0216526, 4.62375, 0.1068726, 4.62375, -0.9776611, 4.62375, -0.3163452, 4.62375, -1.0839695, 4.62375, 3.9160306, 4.62375, -0.908397
0.5447647, -0.0203098, 4.6305, 0.1044922, 4.6305, -0.9737549, 4.6305, -0.3227539, 4.6305, -0.8320611, 4.6305, 3.778626, 4.6305, -0.8091603
0.5455588, -0.0139315, 4.63725, 0.0975342, 4.63725, -0.9735718, 4.63725, -0.3275757, 4.63725, -0.5114504, 4.63725, 3.3358779, 4.63725, -1.0763359
0.5463529, -0.018967, 4.644, 0.0983887, 4.644, -0.9768677, 4.644, -0.3212891, 4.644, -1.1221374, 4.644, 3.259542, 4.644, -0.8549618
0.5471471, -0.0182956, 4.65075, 0.1018677, 4.65075, -0.9794922, 4.65075, -0.3155518, 4.65075, -1.7480916, 4.65075, 2.9160306, 4.65075, -0.8625954
0.5479412, -0.0176242, 4.6575, 0.1029053, 4.6575, -0.9760132, 4.6575, -0.3186646, 4.6575, -1.221374, 4.6575, 2.4198472, 4.6575, -0.9389313
0.5487353, -0.017792, 4.66425, 0.098877, 4.66425, -0.9708252, 4.66425, -0.3291016, 4.66425, -1.5038168, 4.66425, 2.3816793, 4.66425, -0.8778626
0.5495294, -0.0149386, 4.671, 0.0916138, 4.671, -0.9777222, 4.671, -0.3244019, 4.671, -1.1450381, 4.671, 2.2366412, 4.671, -0.9389313
0.5503235, -0.0135958, 4.67775, 0.1005859, 4.67775, -0.979187, 4.67775, -0.3141479, 4.67775, -1.0534351, 4.67775, 2.3664122, 4.67775, -1.1603054
0.5511176, -0.0142672, 4.6845, 0.1014404, 4.6845, -0.9804077, 4.6845, -0.3084106, 4.6845, -0.778626, 4.6845, 2.5114503, 4.6845, -1.2061069
0.5519118, -0.0119173, 4.69125, 0.0948486, 4.69125, -0.977417, 4.69125, -0.3189697, 4.69125, -0.8778626, 4.69125, 2.4732823, 4.69125, -1.2748091
0.5527059, -0.0162814, 4.698, 0.0955811, 4.698, -0.9788208, 4.698, -0.317688, 4.698, -1.519084, 4.698, 2.5267177, 4.698, -1.2977099
0.5535, -0.0226596, 4.70475, 0.1054077, 4.70475, -0.9760742, 4.70475, -0.3161621, 4.70475, -1.6946565, 4.70475, 3.0305343, 4.70475, -1.259542
0.5542941, -0.0194705, 4.7115, 0.107605, 4.7115, -0.9782715, 4.7115, -0.3096313, 4.7115, -1.9160305, 4.7115, 3.1908398, 4.7115, -1.3282443
0.5550882, -0.0129244, 4.71825, 0.1037598, 4.71825, -0.9781494, 4.71825, -0.3150635, 4.71825, -1.8396946, 4.71825, 3.6870229, 4.71825, -1.4351145
0.5558824, -0.0125887, 4.725, 0.1043091, 4.725, -0.9785156, 4.725, -0.3163452, 4.725, -1.8167939, 4.725, 3.6259542, 4.725, -1.3587786
0.5566765, -0.0115816, 4.73175, 0.0977783, 4.73175, -0.9779663, 4.73175, -0.3087769, 4.73175, -1.8244275, 4.73175, 3.9160306, 4.73175, -1.2442749
0.5574706, -0.0124208, 4.7385, 0.0966797, 4.7385, -0.9761353, 4.7385, -0.3079224, 4.7385, -1.6412214, 4.7385, 3.7709923, 4.7385, -1.2671756
0.5582647, -0.0135958, 4.74525, 0.0933228, 4.74525, -0.9780273, 4.74525, -0.310791, 4.74525, -2.0076337, 4.74525, 4.8320613, 4.74525, -1.4122137
0.5590588, -0.0129244, 4.752, 0.0962524, 4.752, -0.9762573, 4.752, -0.3165283, 4.752, -2.1221373, 4.752, 5.1068702, 4.752, -1.4503816
0.5598529, -0.0193027, 4.75875, 0.0961304, 4.75875, -0.9703369, 4.75875, -0.3175049, 4.75875, -2.038168, 4.75875, 4.5038166, 4.75875, -1.8396946
0.5606471, -0.0283665, 4.7655, 0.0926514, 4.7655, -0.9760742, 4.7655, -0.3129272, 4.7655, -2.4045801, 4.7655, 4.6106873, 4.7655, -2.0305343
0.5614412, -0.0270237, 4.77225, 0.0914307, 4.77225, -0.9811401, 4.77225, -0.3208618, 4.77225, -2.4351146, 4.77225, 4.6564884, 4.77225, -2.0229008
0.5622353, -0.0283665, 4.779, 0.0975342, 4.779, -0.9769897, 4.779, -0.3250122, 4.779, -2.4198472, 4.779, 2.7938931, 4.779, -2.0839694
0.5630294, -0.0216526, 4.78575, 0.1004639, 4.78575, -0.9763184, 4.78575, -0.3244019, 4.78575, -2.961832, 4.78575, 2.1526718, 4.78575, -2.3206108
0.5638235, -0.0130922, 4.7925, 0.0974121, 4.7925, -0.9732056, 4.7925, -0.3157959, 4.7925, -3.0992367, 4.7925, 2.3206108, 4.7925, -2.5267177
0.5646176, -0.0132601, 4.79925, 0.0953979, 4.79925, -0.9758301, 4.79925, -0.3154297, 4.79925, -3.2671757, 4.79925, 2.5267177, 4.79925, -2.6259542
0.5654118, -0.0125887, 4.806, 0.0935059, 4.806, -0.9772339, 4.806, -0.3146362, 4.806, -3.0610688, 4.806, 2.389313, 4.806, -2.6564887
0.5662059, -0.0102388, 4.81275, 0.0883179, 4.81275, -0.9735107, 4.81275, -0.3190308, 4.81275, -2.778626, 4.81275, 2.4503818, 4.81275, -2.778626
0.567, -0.008896, 4.8195, 0.0894775, 4.8195, -0.9750977, 4.8195, -0.3158569, 4.8195, -3.1679389, 4.8195, 3.0229008, 4.8195, -2.6335878
0.5677941, -0.0072175, 4.82625, 0.0956421, 4.82625, -0.9716797, 4.82625, -0.3251953, 4.82625, -3.7099237, 4.82625, 2.870229, 4.82625, -2.7251909
0.5685882, -0.0062104, 4.833, 0.0966797, 4.833, -0.9729614, 4.833, -0.3287964, 4.833, -3.7175572, 4.833, 2.9312978, 4.833, -2.8244274
0.5693824, -0.0058747, 4.83975, 0.0980835, 4.83975, -0.9729004, 4.83975, -0.3286743, 4.83975, -4.0839696, 4.83975, 3.5343511, 4.83975, -2.9465649
0.5701765, -0.0068818, 4.8465, 0.1011353, 4.8465, -0.9751587, 4.8465, -0.3260498, 4.8465, -3.9541984, 4.8465, 3.221374, 4.8465, -2.9007633
0.5709706, -0.0077211, 4.85325, 0.1040649, 4.85325, -0.972168, 4.85325, -0.3244019, 4.85325, -3.870229, 4.85325, 3.8549619, 4.85325, -2.9236641
0.5717647, -0.0082246, 4.86, 0.09729, 4.86, -0.9729004, 4.86, -0.3291626, 4.86, -4.0534353, 4.86, 4.8091602, 4.86, -2.8473282
0.5725588, -0.0078889, 4.86675, 0.09375, 4.86675, -0.9724121, 4.86675, -0.3252563, 4.86675, -4.3511453, 4.86675, 4.961832, 4.86675, -2.7022901
0.5733529, -0.0097353, 4.8735, 0.0933228, 4.8735, -0.9727783, 4.8735, -0.3244019, 4.8735, -4.3206105, 4.8735, 4.0534353, 4.8735, -2.8854961
0.5741471, -0.0146029, 4.88025, 0.0933838, 4.88025, -0.9740601, 4.88025, -0.3215942, 4.88025, -4, 4.88025, 4.1374044, 4.88025, -3.2671757
0.5749412, -0.0152743, 4.887, 0.0926514, 4.887, -0.9675903, 4.887, -0.3236084, 4.887, -4.4198475, 4.887, 4.8167939, 4.887, -3.038168
0.5757353, -0.0129244, 4.89375, 0.09552, 4.89375, -0.9746704, 4.89375, -0.3187256, 4.89375, -4.1145039, 4.89375, 4.9312978, 4.89375, -3.2671757
0.5765294, -0.0166171, 4.9005, 0.0964355, 4.9005, -0.97052, 4.9005, -0.3243408, 4.9005, -4.5954199, 4.9005, 4.7175574, 4.9005, -3.1450381
0.5773235, -0.0193027, 4.90725, 0.095459, 4.90725, -0.9684448, 4.90725, -0.3256226, 4.90725, -4.6641221, 4.90725, 4.7099237, 4.90725, -3.0687022
0.5781176, -0.0216526, 4.914, 0.1034546, 4.914, -0.9718628, 4.914, -0.3300781, 4.914, -4.4656487, 4.914, 4.4351144, 4.914, -2.961832
0.5789118, -0.0236667, 4.92075, 0.1061401, 4.92075, -0.9694214, 4.92075, -0.3308105, 4.92075, -4.3893127, 4.92075, 3.5496182, 4.92075, -3.0992367
0.5797059, -0.0243381, 4.9275, 0.1026611, 4.9275, -0.9710083, 4.9275, -0.3276978, 4.9275, -4.3587785, 4.9275, 3.1908398, 4.9275, -3.4732823
0.5805, -0.0223239, 4.93425, 0.0946655, 4.93425, -0.9703369, 4.93425, -0.3328857, 4.93425, -3.9847329, 4.93425, 3.2671757, 4.93425, -3.5267177
0.5812941, -0.0216526, 4.941, 0.0913696, 4.941, -0.9694214, 4.941, -0.3270874, 4.941, -4.3511453, 4.941, 3.6335878, 4.941, -3.5572519
0.5820882, -0.0224918, 4.94775, 0.0861816, 4.94775, -0.9706421, 4.94775, -0.3325806, 4.94775, -4.2900763, 4.94775, 3.6335878, 4.94775, -3.4656489
0.5828824, -0.0193027, 4.9545, 0.0854492, 4.9545, -0.9743042, 4.9545, -0.3334961, 4.9545, -4.3587785, 4.9545, 3.6564887, 4.9545, -3.6946564
0.5836765, -0.0196384, 4.96125, 0.0849609, 4.96125, -0.9726562, 4.96125, -0.336792, 4.96125, -4.5801525, 4.96125, 3.3358779, 4.96125, -3.7633588
0.5844706, -0.0181277, 4.968, 0.0880127, 4.968, -0.9735107, 4.968, -0.3429565, 4.968, -3.9541984, 4.968, 2.5725191, 4.968, -4.0305343
0.5852647, -0.0151064, 4.97475, 0.0973511, 4.97475, -0.970459, 4.97475, -0.3372803, 4.97475, -3.8854961, 4.97475, 2.7175572, 4.97475, -4.0839696
0.5860588, -0.01561, 4.9815, 0.1014404, 4.9815, -0.9723511, 4.9815, -0.3374023, 4.9815, -3.8854961, 4.9815, 2.8778627, 4.9815, -3.8854961
0.5868529, -0.0125887, 4.98825, 0.1100464, 4.98825, -0.975647, 4.98825, -0.3447876, 4.98825, -3.9923663, 4.98825, 2.961832, 4.98825, -3.5954199
0.5876471, -0.0109102, 4.995, 0.1181641, 4.995, -0.9738159, 4.995, -0.3418579, 4.995, -4.0610685, 4.995, 3.519084, 4.995, -3.5801528
0.5884412, -0.0105745, 5.00175, 0.1203003, 5.00175, -0.9710083, 5.00175, -0.3392334, 5.00175, -4.1297708, 5.00175, 4.7099237, 5.00175, -3.351145
0.5892353, -0.0082246, 5.0085, 0.1226807, 5.0085, -0.9705811, 5.0085, -0.3384399, 5.0085, -3.8473282, 5.0085, 5.038168, 5.0085, -3.3664122
0.5900294, -0.01561, 5.01525, 0.1119385, 5.01525, -0.9691772, 5.01525, -0.3375854, 5.01525, -3.5343511, 5.01525, 5.5419846, 5.01525, -3.1145039
0.5908235, -0.0162814, 5.022, 0.1049805, 5.022, -0.9644165, 5.022, -0.3432007, 5.022, -3.3740458, 5.022, 5.9236641, 5.022, -2.9465649
0.5916176, -0.0115816, 5.02875, 0.0976562, 5.02875, -0.968811, 5.02875, -0.3378296, 5.02875, -3.4351146, 5.02875, 5.6259542, 5.02875, -2.8854961
0.5924118, -0.0149386, 5.0355, 0.0953369, 5.0355, -0.9665527, 5.0355, -0.34198, 5.0355, -3.351145, 5.0355, 5.3587785, 5.0355, -2.7862597
0.5932059, -0.0171206, 5.04225, 0.098938, 5.04225, -0.9663086, 5.04225, -0.3449097, 5.04225, -3.5572519, 5.04225, 4.4198475, 5.04225, -2.9847329
0.594, -0.0263523, 5.049, 0.09729, 5.049, -0.9680176, 5.049, -0.3422241, 5.049, -3.7633588, 5.049, 3.7633588, 5.049, -2.9541984
0.5947941, -0.036759, 5.05575, 0.0939331, 5.05575, -0.9622192, 5.05575, -0.3452759, 5.05575, -3.6717558, 5.05575, 3.221374, 5.05575, -3.1068702
0.5955882, -0.0340734, 5.0625, 0.0921631, 5.0625, -0.9689941, 5.0625, -0.3400879, 5.0625, -3.778626, 5.0625, 2.610687, 5.0625, -2.9465649
0.5963824, -0.026688, 5.06925, 0.0950317, 5.06925, -0.9630127, 5.06925, -0.3408813, 5.06925, -3.5343511, 5.06925, 2.2977099, 5.06925, -2.7557251
0.5971765, -0.0176242, 5.076, 0.0980835, 5.076, -0.9632568, 5.076, -0.3440552, 5.076, -3.4580152, 5.076, 2.5419848, 5.076, -2.6870229
0.5979706, -0.0157778, 5.08275, 0.0999146, 5.08275, -0.9649048, 5.08275, -0.3363037, 5.08275, -3.2900763, 5.08275, 2.2519083, 5.08275, -2.8625953
0.5987647, -0.0176242, 5.0895, 0.0977173, 5.0895, -0.9743042, 5.0895, -0.348877, 5.0895, -3.0687022, 5.0895, 2.2519083, 5.0895, -2.6793892
0.5995588, -0.0191348, 5.09625, 0.0905151, 5.09625, -0.9776611, 5.09625, -0.3433228, 5.09625, -2.9007633, 5.09625, 2.1068702, 5.09625, -2.6870229
0.6003529, -0.0149386, 5.103, 0.0932617, 5.103, -0.9724121, 5.103, -0.3401489, 5.103, -2.3740458, 5.103, 2.5114503, 5.103, -2.6946564
0.6011471, -0.0065461, 5.10975, 0.1019897, 5.10975, -0.9672241, 5.10975, -0.3444214, 5.10975, -2.1450381, 5.10975, 2.8015268, 5.10975, -2.9160306
0.6019412, -0.0058747, 5.1165, 0.1031494, 5.1165, -0.963623, 5.1165, -0.3474731, 5.1165, -2.5954199, 5.1165, 3.1068702, 5.1165, -3.2671757
0.6027353, -0.0028534, 5.12325, 0.0990601, 5.12325, -0.9642944, 5.12325, -0.3480225, 5.12325, -3.0992367, 5.12325, 3.259542, 5.12325, -3.2061069
0.6035294, -0.002182, 5.13, 0.1025391, 5.13, -0.9713135, 5.13, -0.343689, 5.13, -3.129771, 5.13, 2.8549619, 5.13, -3.091603
0.6043235, -0.005539, 5.13675, 0.1210938, 5.13675, -0.9714355, 5.13675, -0.3479004, 5.13675, -3.389313, 5.13675, 3.480916, 5.13675, -3.1679389
0.6051176, -0.0035248, 5.1435, 0.1210938, 5.1435, -0.9743042, 5.1435, -0.3578491, 5.1435, -3.5343511, 5.1435, 4.0076337, 5.1435, -3.3053436
0.6059118, -0.0001678, 5.15025, 0.1118774, 5.15025, -0.9751587, 5.15025, -0.3540649, 5.15025, -3.1832061, 5.15025, 4.7709923, 5.15025, -3.2671757
0.6067059, -0.0001678, 5.157, 0.1043091, 5.157, -0.9731445, 5.157, -0.3543701, 5.157, -3.2061069, 5.157, 4.9541984, 5.157, -3.0305343
0.6075, -0.0041962, 5.16375, 0.0930786, 5.16375, -0.9754639, 5.16375, -0.354126, 5.16375, -2.7099237, 5.16375, 3.9541984, 5.16375, -3.0763359
0.6082941, -0.0085603, 5.1705, 0.0928345, 5.1705, -0.9731445, 5.1705, -0.354248, 5.1705, -2.5419848, 5.1705, 3.3587787, 5.1705, -3.2061069
0.6090882, -0.0104067, 5.17725, 0.0906982, 5.17725, -0.9699097, 5.17725, -0.3552856, 5.17725, -2.8320611, 5.17725, 3.0458016, 5.17725, -3.5114503
0.6098824, -0.0102388, 5.184, 0.0955811, 5.184, -0.9716797, 5.184, -0.3510132, 5.184, -2.4580152, 5.184, 2.6717558, 5.184, -3.4274809
0.6106765, -0.0115816, 5.19075, 0.0951538, 5.19075, -0.9691772, 5.19075, -0.3526001, 5.19075, -2.4045801, 5.19075, 2.3664122, 5.19075, -3.4580152
0.6114706, -0.0125887, 5.1975, 0.0946655, 5.1975, -0.9650269, 5.1975, -0.3590088, 5.1975, -2.3358779, 5.1975, 1.9465649, 5.1975, -3.4656489
0.6122647, -0.0162814, 5.20425, 0.1014404, 5.20425, -0.9594727, 5.20425, -0.3660889, 5.20425, -2.6870229, 5.20425, 1.4503816, 5.20425, -3.4045801
0.6130588, -0.0137636, 5.211, 0.1026611, 5.211, -0.961792, 5.211, -0.3614502, 5.211, -2.7709923, 5.211, 1.2824427, 5.211, -3.5496182
0.6138529, -0.0125887, 5.21775, 0.1116333, 5.21775, -0.9668579, 5.21775, -0.3574219, 5.21775, -2.8549619, 5.21775, 1.2671756, 5.21775, -3.5954199
0.6146471, -0.0114137, 5.2245, 0.105896, 5.2245, -0.9667969, 5.2245, -0.3552246, 5.2245, -2.8015268, 5.2245, 1.2442749, 5.2245, -3.1374047
0.6154412, -0.0115816, 5.23125, 0.1089478, 5.23125, -0.9696045, 5.23125, -0.3537598, 5.23125, -2.6641221, 5.23125, 1.3969465, 5.23125, -3.1374047
0.6162353, -0.011078, 5.238, 0.1032715, 5.238, -0.9655151, 5.238, -0.3556519, 5.238, -2.0076337, 5.238, 1.3435115, 5.238, -3.3358779
0.6170294, -0.0109102, 5.24475, 0.100769, 5.24475, -0.9628296, 5.24475, -0.3599243, 5.24475, -2.2442749, 5.24475, 1.8931298, 5.24475, -3.3664122
0.6178235, -0.0102388, 5.2515, 0.1049194, 5.2515, -0.9675293, 5.2515, -0.3615723, 5.2515, -2.4503818, 5.2515, 2.2366412, 5.2515, -3.129771
0.6186176, -0.0135958, 5.25825, 0.1063232, 5.25825, -0.9606934, 5.25825, -0.3660278, 5.25825, -2.5038168, 5.25825, 1.6564885, 5.25825, -3.1221373
0.6194118, -0.0179599, 5.265, 0.1033325, 5.265, -0.9613647, 5.265, -0.3724976, 5.265, -2.389313, 5.265, 2.0610688, 5.265, -3.0534351
0.6202059, -0.0166171, 5.27175, 0.1044922, 5.27175, -0.9595337, 5.27175, -0.3720093, 5.27175, -2.1068702, 5.27175, 1.7328244, 5.27175, -3.1221373
0.621, -0.0164492, 5.2785, 0.097168, 5.2785, -0.9612427, 5.2785, -0.3757324, 5.2785, -1.8854961, 5.2785, 1.9007634, 5.2785, -3.0229008
0.6217941, -0.0142672, 5.28525, 0.0961914, 5.28525, -0.9674683, 5.28525, -0.3789062, 5.28525, -1.6335878, 5.28525, 1.2900764, 5.28525, -2.8625953
0.6225882, -0.0124208, 5.292, 0.1046753, 5.292, -0.9650879, 5.292, -0.3790283, 5.292, -1.5114504, 5.292, 1.4885496, 5.292, -2.6259542
0.6233824, -0.0166171, 5.29875, 0.1138916, 5.29875, -0.9615479, 5.29875, -0.3686523, 5.29875, -1.4198474, 5.29875, 1.5343511, 5.29875, -2.5038168
0.6241765, -0.0253452, 5.3055, 0.1195068, 5.3055, -0.9675293, 5.3055, -0.362915, 5.3055, -1.2977099, 5.3055, 1.4198474, 5.3055, -2.5954199
0.6249706, -0.0236667, 5.31225, 0.1173706, 5.31225, -0.968689, 5.31225, -0.3626709, 5.31225, -0.9007633, 5.31225, 1.6259542, 5.31225, -2.519084
0.6257647, -0.0208133, 5.319, 0.1156006, 5.319, -0.9716797, 5.319, -0.3619995, 5.319, -0.2900763, 5.319, 1.740458, 5.319, -2.6870229
0.6265588, -0.0216526, 5.32575, 0.1222534, 5.32575, -0.9691162, 5.32575, -0.3556519, 5.32575, -0.0610687, 5.32575, 2.0687022, 5.32575, -2.7480917
0.6273529, -0.0240024, 5.3325, 0.1178589, 5.3325, -0.9679565, 5.3325, -0.3643188, 5.3325, -0.7328244, 5.3325, 2.5496182, 5.3325, -2.5954199
0.6281471, -0.0271916, 5.33925, 0.1081543, 5.33925, -0.9730225, 5.33925, -0.3578491, 5.33925, -0.8778626, 5.33925, 1.778626, 5.33925, -2.5419848
0.6289412, -0.0325628, 5.346, 0.1100464, 5.346, -0.9711914, 5.346, -0.3598022, 5.346, -0.4961832, 5.346, 0.9465649, 5.346, -2.5114503
0.6297353, -0.0340734, 5.35275, 0.1026611, 5.35275, -0.965332, 5.35275, -0.3588867, 5.35275, -0.3358779, 5.35275, 1.4122137, 5.35275, -2.7251909
0.6305294, -0.0276951, 5.3595, 0.0959473, 5.3595, -0.9647217, 5.3595, -0.3568115, 5.3595, -0.648855, 5.3595, 1.5877863, 5.3595, -2.2977099
0.6313235, -0.0206455, 5.36625, 0.0938721, 5.36625, -0.970459, 5.36625, -0.3591309, 5.36625, -0.6946565, 5.36625, 1.3129771, 5.36625, -2.4427481
0.6321176, -0.0179599, 5.373, 0.0926514, 5.373, -0.9675293, 5.373, -0.3657227, 5.373, -0.6946565, 5.373, 1.038168, 5.373, -2.5725191
0.6329118, -0.0162814, 5.37975, 0.0977783, 5.37975, -0.9626465, 5.37975, -0.3599854, 5.37975, -0.6564885, 5.37975, 0.1374046, 5.37975, -2.6412213
0.6337059, -0.0139315, 5.3865, 0.0977173, 5.3865, -0.9641113, 5.3865, -0.3610229, 5.3865, -0.7709923, 5.3865, 0.2519084, 5.3865, -2.6030533
0.6345, -0.0092317, 5.39325, 0.0990601, 5.39325, -0.9682617, 5.39325, -0.3665771, 5.39325, -0.7328244, 5.39325, 0.0610687, 5.39325, -2.5343511
0.6352941, -0.0062104, 5.4, 0.1026001, 5.4, -0.9691162, 5.4, -0.3614502, 5.4, -0.6335878, 5.4, -0.0152672, 5.4, -2.519084
0.6360882, -0.0085603, 5.40675, 0.1038818, 5.40675, -0.9645386, 5.40675, -0.3567505, 5.40675, -0.9923664, 5.40675, -0.1832061, 5.40675, -2.4961832
0.6368824, -0.0095674, 5.4135, 0.1055298, 5.4135, -0.9619141, 5.4135, -0.3519897, 5.4135, -0.9312977, 5.4135, -0.0152672, 5.4135, -2.4274809
0.6376765, -0.0109102, 5.42025, 0.1027832, 5.42025, -0.960022, 5.42025, -0.3583984, 5.42025, -0.8091603, 5.42025, 0.6564885, 5.42025, -2.2977099
0.6384706, -0.0119173, 5.427, 0.0994873, 5.427, -0.9614258, 5.427, -0.3607788, 5.427, -0.3587786, 5.427, 0.6564885, 5.427, -2.4427481
0.6392647, -0.0062104, 5.43375, 0.1000366, 5.43375, -0.9668579, 5.43375, -0.3602295, 5.43375, -0.2061069, 5.43375, 0.740458, 5.43375, -2.1679389
0.6400588, -0.0038605, 5.4405, 0.1046143, 5.4405, -0.9619751, 5.4405, -0.3673096, 5.4405, 0.1068702, 5.4405, 1.1755725, 5.4405, -1.9770992
0.6408529, -0.0040284, 5.44725, 0.1029053, 5.44725, -0.956604, 5.44725, -0.3718872, 5.44725, 0.0458015, 5.44725, 1.7938931, 5.44725, -2.1068702
0.6416471, -0.0068818, 5.454, 0.0966797, 5.454, -0.9594116, 5.454, -0.3709106, 5.454, 0.1908397, 5.454, 1.8015267, 5.454, -2.038168
0.6424412, -0.0140993, 5.46075, 0.088501, 5.46075, -0.9593506, 5.46075, -0.3707886, 5.46075, -0.1374046, 5.46075, 1.0152671, 5.46075, -2.1145039
0.6432353, -0.0209812, 5.4675, 0.0911255, 5.4675, -0.9598389, 5.4675, -0.3687744, 5.4675, -0.351145, 5.4675, 0.648855, 5.4675, -2.221374
0.6440294, -0.0236667, 5.47425, 0.0928345, 5.47425, -0.9607544, 5.47425, -0.3652344, 5.47425, -0.3053435, 5.47425, 0.480916, 5.47425, -2.2824428
0.6448235, -0.0270237, 5.481, 0.093811, 5.481, -0.9655762, 5.481, -0.3625488, 5.481, -0.2748092, 5.481, 0.5419847, 5.481, -2.3664122
0.6456176, -0.0236667, 5.48775, 0.1016846, 5.48775, -0.9669189, 5.48775, -0.3634644, 5.48775, 0.5801527, 5.48775, 0.3969466, 5.48775, -2.5419848
0.6464118, -0.0193027, 5.4945, 0.1010132, 5.4945, -0.9642944, 5.4945, -0.3596191, 5.4945, 0.8320611, 5.4945, 0.5801527, 5.4945, -2.6564887
0.6472059, -0.0196384, 5.50125, 0.1021118, 5.50125, -0.9638062, 5.50125, -0.3649902, 5.50125, 0.8320611, 5.50125, 1.1450381, 5.50125, -2.5877862
0.648, -0.0152743, 5.508, 0.107605, 5.508, -0.96521, 5.508, -0.3662109, 5.508, 0.5954198, 5.508, 1.4961832, 5.508, -2.4656489
0.6487941, -0.0152743, 5.51475, 0.1071167, 5.51475, -0.9655151, 5.51475, -0.3723755, 5.51475, 0.3664122, 5.51475, 0.8244275, 5.51475, -2.5725191
0.6495882, -0.0124208, 5.5215, 0.102478, 5.5215, -0.9669189, 5.5215, -0.3657837, 5.5215, 0.4580153, 5.5215, 0.3053435, 5.5215, -2.870229
0.6503824, -0.0142672, 5.52825, 0.0929565, 5.52825, -0.9695435, 5.52825, -0.3674927, 5.52825, 0.740458, 5.52825, 0.4885496, 5.52825, -2.7557251
0.6511765, -0.0112459, 5.535, 0.0991211, 5.535, -0.9676514, 5.535, -0.3640137, 5.535, 0.8778626, 5.535, 0.2824427, 5.535, -2.6564887
0.6519706, -0.0072175, 5.54175, 0.1020508, 5.54175, -0.9628906, 5.54175, -0.3626099, 5.54175, 0.9541985, 5.54175, -0.0229008, 5.54175, -2.5419848
0.6527647, -0.0028534, 5.5485, 0.1018066, 5.5485, -0.9641724, 5.5485, -0.3646851, 5.5485, 0.8931298, 5.5485, -0.0687023, 5.5485, -2.7709923
0.6535588, -0.0018463, 5.55525, 0.1009521, 5.55525, -0.9667969, 5.55525, -0.3608398, 5.55525, 0.9541985, 5.55525, 0.2061069, 5.55525, -2.9236641
0.6543529, -0.0041962, 5.562, 0.1013184, 5.562, -0.9678345, 5.562, -0.3607788, 5.562, 1.1068702, 5.562, 0.4351145, 5.562, -2.8320611
0.6551471, -0.0068818, 5.56875, 0.1011963, 5.56875, -0.9681396, 5.56875, -0.3618164, 5.56875, 0.6183206, 5.56875, 0.7633588, 5.56875, -2.7251909
0.6559412, -0.0109102, 5.5755, 0.1020508, 5.5755, -0.9666748, 5.5755, -0.3667603, 5.5755, 0.3816794, 5.5755, 0.8396947, 5.5755, -3.0534351
0.6567353, -0.0169528, 5.58225, 0.1031494, 5.58225, -0.9668579, 5.58225, -0.3683472, 5.58225, 0.3206107, 5.58225, 0.6335878, 5.58225, -3.221374
0.6575294, -0.018967, 5.589, 0.105957, 5.589, -0.9644775, 5.589, -0.3654785, 5.589, 0.0992366, 5.589, 0.6183206, 5.589, -3.0687022
0.6583235, -0.0193027, 5.59575, 0.1062012, 5.59575, -0.96521, 5.59575, -0.3665771, 5.59575, 0.0381679, 5.59575, 0.4198473, 5.59575, -3.4122138
0.6591176, -0.0199741, 5.6025, 0.098999, 5.6025, -0.9692383, 5.6025, -0.3635864, 5.6025, -0.0687023, 5.6025, 0.8167939, 5.6025, -3.5343511
0.6599118, -0.0166171, 5.60925, 0.0913696, 5.60925, -0.9683228, 5.60925, -0.3635254, 5.60925, -0.0763359, 5.60925, 0.8167939, 5.60925, -3.610687
0.6607059, -0.0169528, 5.616, 0.0948486, 5.616, -0.9637451, 5.616, -0.362854, 5.616, -0.2824427, 5.616, 0.7862595, 5.616, -3.3129771
0.6615, -0.0166171, 5.62275, 0.0968018, 5.62275, -0.9672852, 5.62275, -0.3615723, 5.62275, -0.3282443, 5.62275, 0.5801527, 5.62275, -3.5038168
0.6622941, -0.0149386, 5.6295, 0.1034546, 5.6295, -0.9636841, 5.6295, -0.3690796, 5.6295, -0.6412213, 5.6295, 1.1755725, 5.6295, -3.4656489
0.6630882, -0.0135958, 5.63625, 0.102478, 5.63625, -0.9609375, 5.63625, -0.3746338, 5.63625, -0.6412213, 5.63625, 1.1145039, 5.63625, -3.6259542
0.6638824, -0.0129244, 5.643, 0.1008911, 5.643, -0.9624634, 5.643, -0.3708496, 5.643, -0.3053435, 5.643, 0.8244275, 5.643, -3.3969467
0.6646765, -0.0162814, 5.64975, 0.1090698, 5.64975, -0.9708252, 5.64975, -0.3682861, 5.64975, 0.0152672, 5.64975, 0.9160305, 5.64975, -3.3587787
0.6654706, -0.0196384, 5.6565, 0.1121216, 5.6565, -0.9697876, 5.6565, -0.367981, 5.6565, 0.4122137, 5.6565, 0.9847328, 5.6565, -3.3664122
0.6662647, -0.0209812, 5.66325, 0.1135864, 5.66325, -0.9672852, 5.66325, -0.3657837, 5.66325, 0.648855, 5.66325, 1.4351145, 5.66325, -3.3053436
0.6670588, -0.0182956, 5.67, 0.1078491, 5.67, -0.9637451, 5.67, -0.3718872, 5.67, 0.5648855, 5.67, 1.1374046, 5.67, -3.2748091
0.6678529, -0.018967, 5.67675, 0.1063843, 5.67675, -0.9650269, 5.67675, -0.3740234, 5.67675, 0.8091603, 5.67675, 0.8396947, 5.67675, -3.091603
0.6686471, -0.0171206, 5.6835, 0.1021729, 5.6835, -0.9679565, 5.6835, -0.3693237, 5.6835, 1.0076336, 5.6835, 1.0152671, 5.6835, -3.4351146
0.6694412, -0.012253, 5.69025, 0.1029663, 5.69025, -0.9660645, 5.69025, -0.3743896, 5.69025, 1.1068702, 5.69025, 0.8931298, 5.69025, -3.5114503
0.6702353, -0.008896, 5.697, 0.1026001, 5.697, -0.9678345, 5.697, -0.3706665, 5.697, 1.0305344, 5.697, 1.1679389, 5.697, -3.5496182
0.6710294, -0.0082246, 5.70375, 0.1015625, 5.70375, -0.9699707, 5.70375, -0.3721313, 5.70375, 0.9160305, 5.70375, 1.2061069, 5.70375, -3.5267177
0.6718235, -0.0102388, 5.7105, 0.1005859, 5.7105, -0.968811, 5.7105, -0.3649902, 5.7105, 1.0076336, 5.7105, 1.1068702, 5.7105, -3.5877862
0.6726176, -0.01561, 5.71725, 0.1016846, 5.71725, -0.9672241, 5.71725, -0.3676147, 5.71725, 1.1145039, 5.71725, 1.7938931, 5.71725, -3.5877862
0.6734118, -0.0162814, 5.724, 0.1051025, 5.724, -0.965332, 5.724, -0.3705444, 5.724, 1.0458015, 5.724, 2.0152671, 5.724, -3.3587787
0.6742059, -0.0125887, 5.73075, 0.1017456, 5.73075, -0.9646606, 5.73075, -0.3668213, 5.73075, 0.6335878, 5.73075, 1.6717557, 5.73075, -3.2824428
0.675, -0.0132601, 5.7375, 0.1016235, 5.7375, -0.965271, 5.7375, -0.368042, 5.7375, 0.610687, 5.7375, 1.4274809, 5.7375, -3.2519083
0.6757941, -0.0135958, 5.74425, 0.1010742, 5.74425, -0.9628906, 5.74425, -0.3638306, 5.74425, 0.7709923, 5.74425, 1.2824427, 5.74425, -3.4885497
0.6765882, -0.0139315, 5.751, 0.0993042, 5.751, -0.9609375, 5.751, -0.3686523, 5.751, 0.9923664, 5.751, 0.7480916, 5.751, -3.1984732
0.6773824, -0.0179599, 5.75775, 0.100708, 5.75775, -0.9642334, 5.75775, -0.3610229, 5.75775, 0.8625954, 5.75775, 0.5648855, 5.75775, -3.3664122
0.6781765, -0.0203098, 5.7645, 0.1063232, 5.7645, -0.9633179, 5.7645, -0.3649292, 5.7645, 0.7709923, 5.7645, 0.5801527, 5.7645, -3.4732823
0.6789706, -0.0223239, 5.77125, 0.1049194, 5.77125, -0.9647827, 5.77125, -0.3615723, 5.77125, 0.5954198, 5.77125, 0.6183206, 5.77125, -3.4351146
0.6797647, -0.0198062, 5.778, 0.1057129, 5.778, -0.9613647, 5.778, -0.3615112, 5.778, 0.8091603, 5.778, 1.3740458, 5.778, -3.3053436
