Application:, Trigno Discover (1.7.0)
Date/Time:, 2026/9/9 上午 10:57:31
Collection Length (seconds):, 43.7535
Avanti Sensor 11 (69574)
sensor mode: 50
EMG 1 Time Series (s), EMG 1 (mV), ACC X Time Series (s), ACC X (G), ACC Y Time Series (s), ACC Y (G), ACC Z Time Series (s), ACC Z (G), GYRO X Time Series (s), GYRO X (deg/s), GYRO Y Time Series (s), GYRO Y (deg/s), GYRO Z Time Series (s), GYRO Z (deg/s)
, 1259.2593 Hz, , 148.1481 Hz, , 148.1481 Hz, , 148.1481 Hz, , 148.1481 Hz, , 148.1481 Hz, , 148.1481 Hz
0, -0.0179599, 0, 0.0424194, 0, -1.0084229, 0, -0.0615845, 0, 0.7480916, 0, 0.6717557, 0, -3.2900763
0.0007941, -0.0169528, 0.00675, 0.039978, 0.00675, -1.0059204, 0.00675, -0.0616455, 0.00675, 0.9465649, 0.00675, 0.6030535, 0.00675, -3.3282442
0.0015882, -0.0135958, 0.0135, 0.039978, 0.0135, -1.0061035, 0.0135, -0.0614014, 0.0135, 0.7709923, 0.0135, 0.5114504, 0.0135, -3.3664122
0.0023824, -0.0152743, 0.02025, 0.0441284, 0.02025, -1.005188, 0.02025, -0.0612793, 0.02025, 0.9389313, 0.02025, 0.5419847, 0.02025, -3.259542
0.0031765, -0.0135958, 0.027, 0.0440063, 0.027, -1.0047607, 0.027, -0.0619507, 0.027, 0.6870229, 0.027, 0.6793893, 0.027, -3.1984732
0.0039706, -0.0132601, 0.03375, 0.0430908, 0.03375, -1.0077515, 0.03375, -0.0627441, 0.03375, 0.8091603, 0.03375, 0.6717557, 0.03375, -3.1679389
0.0047647, -0.0127565, 0.0405, 0.0414429, 0.0405, -1.0063477, 0.0405, -0.0617676, 0.0405, 1.0534351, 0.0405, 0.7862595, 0.0405, -3.2519083
0.0055588, -0.0142672, 0.04725, 0.0401001, 0.04725, -1.0053711, 0.04725, -0.0619507, 0.04725, 0.8625954, 0.04725, 1.0610687, 0.04725, -3.2290077
0.0063529, -0.0176242, 0.054, 0.038147, 0.054, -1.0080566, 0.054, -0.0639038, 0.054, 0.961832, 0.054, 0.961832, 0.054, -3.4427481
0.0071471, -0.0182956, 0.06075, 0.0385132, 0.06075, -1.0065308, 0.06075, -0.0639038, 0.06075, 1.129771, 0.06075, 0.9236641, 0.06075, -3.221374
0.0079412, -0.0162814, 0.0675, 0.0370483, 0.0675, -1.0066528, 0.0675, -0.0665283, 0.0675, 1.0763359, 0.0675, 0.961832, 0.0675, -3.3587787
0.0087353, -0.0115816, 0.07425, 0.0391235, 0.07425, -1.0074463, 0.07425, -0.06427, 0.07425, 1.2824427, 0.07425, 0.648855, 0.07425, -3.2137403
0.0095294, -0.012253, 0.081, 0.0361938, 0.081, -1.0078125, 0.081, -0.0650024, 0.081, 1.1755725, 0.081, 0.7938932, 0.081, -3.3206108
0.0103235, -0.0105745, 0.08775, 0.0409546, 0.08775, -1.0045776, 0.08775, -0.0632935, 0.08775, 1.129771, 0.08775, 0.6030535, 0.08775, -3.2519083
0.0111176, -0.0109102, 0.0945, 0.0391846, 0.0945, -1.005188, 0.0945, -0.0651245, 0.0945, 0.9923664, 0.0945, 0.3740458, 0.0945, -3.2519083
0.0119118, -0.0082246, 0.10125, 0.0402222, 0.10125, -1.0078125, 0.10125, -0.0614624, 0.10125, 0.8091603, 0.10125, 0.2900763, 0.10125, -3.351145
0.0127059, -0.0085603, 0.108, 0.0402832, 0.108, -1.006897, 0.108, -0.0629272, 0.108, 0.9160305, 0.108, 0.3053435, 0.108, -3.3282442
0.0135, -0.0115816, 0.11475, 0.0397949, 0.11475, -1.0039673, 0.11475, -0.0650024, 0.11475, 0.9007633, 0.11475, 0.4732825, 0.11475, -3.3816793
0.0142941, -0.0135958, 0.1215, 0.0406494, 0.1215, -1.0060425, 0.1215, -0.0640869, 0.1215, 0.9160305, 0.1215, 0.5114504, 0.1215, -3.1603053
0.0150882, -0.0139315, 0.12825, 0.041626, 0.12825, -1.0061035, 0.12825, -0.0654297, 0.12825, 0.9923664, 0.12825, 0.5419847, 0.12825, -3.2442749
0.0158824, -0.008896, 0.135, 0.0431519, 0.135, -1.0062866, 0.135, -0.0639648, 0.135, 1.0229008, 0.135, 0.648855, 0.135, -3.3129771
0.0166765, -0.0075532, 0.14175, 0.0414429, 0.14175, -1.0073242, 0.14175, -0.0596924, 0.14175, 0.9923664, 0.14175, 0.5954198, 0.14175, -3.4732823
0.0174706, -0.0062104, 0.1485, 0.0432739, 0.1485, -1.0071411, 0.1485, -0.0601807, 0.1485, 0.9007633, 0.1485, 0.2977099, 0.1485, -3.389313
0.0182647, -0.0068818, 0.15525, 0.0449829, 0.15525, -1.0085449, 0.15525, -0.0598145, 0.15525, 0.9694657, 0.15525, 0.5419847, 0.15525, -3.2977099
0.0190588, -0.0083925, 0.162, 0.0474854, 0.162, -1.007019, 0.162, -0.0616455, 0.162, 1.1145039, 0.162, 0.7938932, 0.162, -3.2824428
0.0198529, -0.0045319, 0.16875, 0.0443115, 0.16875, -1.0083008, 0.16875, -0.0664673, 0.16875, 1.1145039, 0.16875, 0.8244275, 0.16875, -3.3358779
0.0206471, -0.0035248, 0.1755, 0.0419312, 0.1755, -1.0056152, 0.1755, -0.0650635, 0.1755, 1.2061069, 0.1755, 1.1526718, 0.1755, -3.1908398
0.0214412, -0.0075532, 0.18225, 0.0375977, 0.18225, -1.0064697, 0.18225, -0.0634155, 0.18225, 1.091603, 0.18225, 1.0687023, 0.18225, -3.2824428
0.0222353, -0.0092317, 0.189, 0.0371704, 0.189, -1.006958, 0.189, -0.0626221, 0.189, 1.2290076, 0.189, 0.9694657, 0.189, -3.389313
0.0230294, -0.0109102, 0.19575, 0.0360718, 0.19575, -1.0056763, 0.19575, -0.0621338, 0.19575, 1.2748091, 0.19575, 0.7251908, 0.19575, -3.4122138
0.0238235, -0.0102388, 0.2025, 0.0383911, 0.2025, -1.0029907, 0.2025, -0.0654297, 0.2025, 1.3129771, 0.2025, 0.648855, 0.2025, -3.1450381
0.0246176, -0.0082246, 0.20925, 0.0391235, 0.20925, -1.006958, 0.20925, -0.0615845, 0.20925, 1.2290076, 0.20925, 0.6412213, 0.20925, -3.1832061
0.0254118, -0.0082246, 0.216, 0.0367432, 0.216, -1.0067139, 0.216, -0.0603027, 0.216, 1.1450381, 0.216, 0.4427481, 0.216, -3.4351146
0.0262059, -0.0119173, 0.22275, 0.0377808, 0.22275, -1.0055542, 0.22275, -0.0615845, 0.22275, 1.1679389, 0.22275, 0.6870229, 0.22275, -3.3435113
0.027, -0.0151064, 0.2295, 0.0429077, 0.2295, -1.0053101, 0.2295, -0.0610962, 0.2295, 1.2290076, 0.2295, 0.4503817, 0.2295, -3.1832061
0.0277941, -0.0162814, 0.23625, 0.0438232, 0.23625, -1.0085449, 0.23625, -0.0623169, 0.23625, 1.3282443, 0.23625, 0.6946565, 0.23625, -3.2061069
0.0285882, -0.0196384, 0.243, 0.0414429, 0.243, -1.0070801, 0.243, -0.0628662, 0.243, 1.0610687, 0.243, 0.8931298, 0.243, -3.1145039
0.0293824, -0.0176242, 0.24975, 0.0431519, 0.24975, -1.005249, 0.24975, -0.0574951, 0.24975, 1.1374046, 0.24975, 0.8320611, 0.24975, -3.1832061
0.0301765, -0.0159457, 0.2565, 0.0404663, 0.2565, -1.0048828, 0.2565, -0.0620728, 0.2565, 1.1908396, 0.2565, 0.9160305, 0.2565, -3.2137403
0.0309706, -0.0209812, 0.26325, 0.0427856, 0.26325, -1.0042114, 0.26325, -0.0618286, 0.26325, 1.1755725, 0.26325, 0.908397, 0.26325, -3.3358779
0.0317647, -0.0236667, 0.27, 0.0371094, 0.27, -1.006897, 0.27, -0.0599365, 0.27, 1.1603054, 0.27, 0.8778626, 0.27, -3.351145
0.0325588, -0.0208133, 0.27675, 0.0401611, 0.27675, -1.0040283, 0.27675, -0.0568237, 0.27675, 1.2061069, 0.27675, 0.8549618, 0.27675, -3.3435113
0.0333529, -0.0182956, 0.2835, 0.0396118, 0.2835, -1.0072021, 0.2835, -0.0591431, 0.2835, 1.2519084, 0.2835, 0.8473282, 0.2835, -3.3435113
0.0341471, -0.0167849, 0.29025, 0.0403442, 0.29025, -1.006897, 0.29025, -0.0596924, 0.29025, 1.1679389, 0.29025, 0.8931298, 0.29025, -3.091603
0.0349412, -0.021149, 0.297, 0.0419922, 0.297, -1.0071411, 0.297, -0.0608521, 0.297, 1.2290076, 0.297, 0.7709923, 0.297, -3.038168
0.0357353, -0.023331, 0.30375, 0.0446167, 0.30375, -1.0045776, 0.30375, -0.0604858, 0.30375, 1.2137405, 0.30375, 0.908397, 0.30375, -3.3129771
0.0365294, -0.0216526, 0.3105, 0.0457153, 0.3105, -1.0040894, 0.3105, -0.0614624, 0.3105, 0.9923664, 0.3105, 0.8931298, 0.3105, -3.2671757
0.0373235, -0.018967, 0.31725, 0.0432739, 0.31725, -1.0062866, 0.31725, -0.0623779, 0.31725, 1.0152671, 0.31725, 1.0305344, 0.31725, -3.0229008
0.0381176, -0.0206455, 0.324, 0.0404663, 0.324, -1.003479, 0.324, -0.0626831, 0.324, 1.0839695, 0.324, 1.1755725, 0.324, -3.2824428
0.0389118, -0.0186313, 0.33075, 0.0391846, 0.33075, -1.0089722, 0.33075, -0.0612793, 0.33075, 1.0076336, 0.33075, 1.1450381, 0.33075, -3.2290077
0.0397059, -0.0166171, 0.3375, 0.0394287, 0.3375, -1.0046387, 0.3375, -0.0618286, 0.3375, 1.1679389, 0.3375, 0.8931298, 0.3375, -3.1145039
0.0405, -0.0204776, 0.34425, 0.0369263, 0.34425, -1.0039673, 0.34425, -0.0623169, 0.34425, 1.2977099, 0.34425, 0.9160305, 0.34425, -3.4198472
0.0412941, -0.0229953, 0.351, 0.0357056, 0.351, -1.0064087, 0.351, -0.0641479, 0.351, 1.2977099, 0.351, 0.5648855, 0.351, -3.1832061
0.0420882, -0.0256809, 0.35775, 0.0377197, 0.35775, -1.0068359, 0.35775, -0.0627441, 0.35775, 1.1908396, 0.35775, 0.3206107, 0.35775, -3.3206108
0.0428824, -0.0236667, 0.3645, 0.0376587, 0.3645, -1.0054932, 0.3645, -0.0632324, 0.3645, 1.2519084, 0.3645, 0.3435115, 0.3645, -3.3129771
0.0436765, -0.0243381, 0.37125, 0.0419312, 0.37125, -1.003418, 0.37125, -0.060791, 0.37125, 1.1145039, 0.37125, 0.1145038, 0.37125, -3.2977099
0.0444706, -0.023331, 0.378, 0.045166, 0.378, -1.0057373, 0.378, -0.0606689, 0.378, 0.9694657, 0.378, 0.2366412, 0.378, -3.3740458
0.0452647, -0.0184634, 0.38475, 0.0432739, 0.38475, -1.0057373, 0.38475, -0.0581055, 0.38475, 0.9007633, 0.38475, 0.4656489, 0.38475, -3.3664122
0.0460588, -0.0182956, 0.3915, 0.0447998, 0.3915, -1.0081177, 0.3915, -0.0567017, 0.3915, 1.0305344, 0.3915, 0.4580153, 0.3915, -3.3969467
0.0468529, -0.0196384, 0.39825, 0.043335, 0.39825, -1.0079956, 0.39825, -0.0552979, 0.39825, 1.0534351, 0.39825, 0.6946565, 0.39825, -3.2519083
0.0476471, -0.01561, 0.405, 0.0410156, 0.405, -1.0042725, 0.405, -0.0585938, 0.405, 1.1755725, 0.405, 0.7709923, 0.405, -3.2137403
0.0484412, -0.0125887, 0.41175, 0.0388184, 0.41175, -1.0010376, 0.41175, -0.0654297, 0.41175, 0.9160305, 0.41175, 0.8854962, 0.41175, -3.3969467
0.0492353, -0.0162814, 0.4185, 0.0383301, 0.4185, -1.0045776, 0.4185, -0.0628662, 0.4185, 0.6946565, 0.4185, 0.9389313, 0.4185, -3.3206108
0.0500294, -0.0162814, 0.42525, 0.0337524, 0.42525, -1.0067139, 0.42525, -0.0593872, 0.42525, 0.8244275, 0.42525, 0.7938932, 0.42525, -3.221374
0.0508235, -0.0162814, 0.432, 0.0335083, 0.432, -1.0048828, 0.432, -0.0576782, 0.432, 0.870229, 0.432, 0.5419847, 0.432, -3.2442749
0.0516176, -0.0157778, 0.43875, 0.0374146, 0.43875, -1.0066528, 0.43875, -0.0619507, 0.43875, 0.9389313, 0.43875, 0.480916, 0.43875, -3.1450381
0.0524118, -0.0139315, 0.4455, 0.0371094, 0.4455, -1.0089111, 0.4455, -0.0596313, 0.4455, 0.8167939, 0.4455, 0.4198473, 0.4455, -3.1679389
0.0532059, -0.0132601, 0.45225, 0.0413818, 0.45225, -1.0085449, 0.45225, -0.0593262, 0.45225, 0.8931298, 0.45225, 0.4274809, 0.45225, -3.1832061
0.054, -0.0109102, 0.459, 0.0409546, 0.459, -1.0101929, 0.459, -0.0585327, 0.459, 0.8244275, 0.459, 0.480916, 0.459, -3.4198472
0.0547941, -0.0095674, 0.46575, 0.0401001, 0.46575, -1.0092773, 0.46575, -0.0628662, 0.46575, 0.8854962, 0.46575, 0.610687, 0.46575, -3.3358779
0.0555882, -0.0102388, 0.4725, 0.0387573, 0.4725, -1.0087891, 0.4725, -0.0629883, 0.4725, 1.0229008, 0.4725, 0.6946565, 0.4725, -3.3129771
0.0563824, -0.0087282, 0.47925, 0.0397339, 0.47925, -1.0053101, 0.47925, -0.0616455, 0.47925, 0.9923664, 0.47925, 0.7938932, 0.47925, -3.0992367
0.0571765, -0.0095674, 0.486, 0.0415649, 0.486, -1.0067749, 0.486, -0.0644531, 0.486, 1.1908396, 0.486, 0.778626, 0.486, -3.1755726
0.0579706, -0.0097353, 0.49275, 0.0425415, 0.49275, -1.0073242, 0.49275, -0.0645752, 0.49275, 0.8015267, 0.49275, 0.9312977, 0.49275, -3.3969467
0.0587647, -0.012253, 0.4995, 0.0447998, 0.4995, -1.0097656, 0.4995, -0.0649414, 0.4995, 0.9694657, 0.4995, 0.7862595, 0.4995, -3.221374
0.0595588, -0.0142672, 0.50625, 0.0435181, 0.50625, -1.0064697, 0.50625, -0.0628662, 0.50625, 1.2900764, 0.50625, 0.9923664, 0.50625, -3.0152671
0.0603529, -0.0105745, 0.513, 0.041748, 0.513, -1.0059204, 0.513, -0.0650635, 0.513, 1.259542, 0.513, 1.0152671, 0.513, -3.0992367
0.0611471, -0.0090639, 0.51975, 0.0429077, 0.51975, -1.0053711, 0.51975, -0.0635376, 0.51975, 1.389313, 0.51975, 1.0305344, 0.51975, -3.1679389
0.0619412, -0.0095674, 0.5265, 0.0438843, 0.5265, -1.0062256, 0.5265, -0.0616455, 0.5265, 1.1755725, 0.5265, 1.0992366, 0.5265, -3.3206108
0.0627353, -0.0102388, 0.53325, 0.0380249, 0.53325, -1.0063477, 0.53325, -0.0639038, 0.53325, 1.2824427, 0.53325, 0.9694657, 0.53325, -3.3129771
0.0635294, -0.008896, 0.54, 0.0369263, 0.54, -1.0070801, 0.54, -0.0644531, 0.54, 1.5038168, 0.54, 1.0839695, 0.54, -3.1221373
0.0643235, -0.0099031, 0.54675, 0.0403442, 0.54675, -1.0063477, 0.54675, -0.0623779, 0.54675, 1.519084, 0.54675, 1.0229008, 0.54675, -3.129771
0.0651176, -0.0092317, 0.5535, 0.0400391, 0.5535, -1.0114136, 0.5535, -0.0649414, 0.5535, 1.4961832, 0.5535, 0.8778626, 0.5535, -3.1450381
0.0659118, -0.0095674, 0.56025, 0.0390625, 0.56025, -1.005188, 0.56025, -0.0646362, 0.56025, 1.4656489, 0.56025, 0.8854962, 0.56025, -3.2290077
0.0667059, -0.0135958, 0.567, 0.0403442, 0.567, -1.006897, 0.567, -0.0646362, 0.567, 1.5267175, 0.567, 0.9236641, 0.567, -3.3816793
0.0675, -0.0112459, 0.57375, 0.0383301, 0.57375, -1.0056763, 0.57375, -0.064209, 0.57375, 1.5496184, 0.57375, 1, 0.57375, -3.2137403
0.0682941, -0.0075532, 0.5805, 0.0375366, 0.5805, -1.0066528, 0.5805, -0.0600586, 0.5805, 1.3740458, 0.5805, 1.038168, 0.5805, -3.2519083
0.0690882, -0.0077211, 0.58725, 0.0411987, 0.58725, -1.0062256, 0.58725, -0.0631104, 0.58725, 1.3206106, 0.58725, 0.908397, 0.58725, -3.2519083
0.0698824, -0.0068818, 0.594, 0.0387573, 0.594, -1.0088501, 0.594, -0.0635986, 0.594, 1.3664122, 0.594, 0.8167939, 0.594, -3.129771
0.0706765, -0.0072175, 0.60075, 0.0390015, 0.60075, -1.0054932, 0.60075, -0.0621948, 0.60075, 1.389313, 0.60075, 0.7251908, 0.60075, -3.2290077
0.0714706, -0.0082246, 0.6075, 0.0410767, 0.6075, -1.0076904, 0.6075, -0.0643921, 0.6075, 1.3969465, 0.6075, 0.6183206, 0.6075, -3.4198472
0.0722647, -0.0085603, 0.61425, 0.0402832, 0.61425, -1.005188, 0.61425, -0.0608521, 0.61425, 1.4198474, 0.61425, 0.778626, 0.61425, -3.1221373
0.0730588, -0.0085603, 0.621, 0.0422974, 0.621, -1.0028687, 0.621, -0.0623779, 0.621, 1.1145039, 0.621, 0.8167939, 0.621, -3.3053436
0.0738529, -0.0070497, 0.62775, 0.0409546, 0.62775, -1.0020142, 0.62775, -0.0602417, 0.62775, 0.8931298, 0.62775, 0.9389313, 0.62775, -3.259542
0.0746471, -0.0075532, 0.6345, 0.0379028, 0.6345, -1.006958, 0.6345, -0.059082, 0.6345, 1.0076336, 0.6345, 0.740458, 0.6345, -3.1908398
0.0754412, -0.0112459, 0.64125, 0.0388794, 0.64125, -1.0071411, 0.64125, -0.0562744, 0.64125, 1.1526718, 0.64125, 0.6946565, 0.64125, -3.2366412
0.0762353, -0.0102388, 0.648, 0.0352173, 0.648, -1.0070801, 0.648, -0.0569458, 0.648, 1.1603054, 0.648, 0.8015267, 0.648, -3.2519083
0.0770294, -0.008896, 0.65475, 0.036499, 0.65475, -1.0043945, 0.65475, -0.0574341, 0.65475, 1.2519084, 0.65475, 0.5725191, 0.65475, -3.3969467
0.0778235, -0.0149386, 0.6615, 0.0379028, 0.6615, -1.0046387, 0.6615, -0.0611572, 0.6615, 1.0839695, 0.6615, 0.4961832, 0.6615, -3.2290077
0.0786176, -0.0146029, 0.66825, 0.0386353, 0.66825, -1.0067749, 0.66825, -0.05896, 0.66825, 0.9465649, 0.66825, 0.5496183, 0.66825, -3.2671757
0.0794118, -0.0146029, 0.675, 0.0396118, 0.675, -1.0084839, 0.675, -0.0584717, 0.675, 1.1374046, 0.675, 0.5114504, 0.675, -3.2824428
0.0802059, -0.0179599, 0.68175, 0.038208, 0.68175, -1.0082397, 0.68175, -0.0582886, 0.68175, 1.1603054, 0.68175, 0.4580153, 0.68175, -3.1603053
0.081, -0.017792, 0.6885, 0.0383911, 0.6885, -1.0082397, 0.6885, -0.0606689, 0.6885, 1.2366412, 0.6885, 0.5496183, 0.6885, -3.2137403
0.0817941, -0.0162814, 0.69525, 0.0379639, 0.69525, -1.0070801, 0.69525, -0.0582275, 0.69525, 1.1908396, 0.69525, 0.6717557, 0.69525, -3.2290077
0.0825882, -0.0162814, 0.702, 0.0377808, 0.702, -1.0042114, 0.702, -0.0596924, 0.702, 1.221374, 0.702, 0.4274809, 0.702, -3.259542
0.0833824, -0.0176242, 0.70875, 0.039856, 0.70875, -1.0042114, 0.70875, -0.0560303, 0.70875, 1.0687023, 0.70875, 0.1679389, 0.70875, -3.3282442
0.0841765, -0.0196384, 0.7155, 0.0427856, 0.7155, -1.0054321, 0.7155, -0.05896, 0.7155, 1.2366412, 0.7155, 0.2442748, 0.7155, -3.4045801
0.0849706, -0.0176242, 0.72225, 0.041687, 0.72225, -1.006897, 0.72225, -0.059082, 0.72225, 1.2137405, 0.72225, 0.2519084, 0.72225, -3.3053436
0.0857647, -0.0146029, 0.729, 0.0465698, 0.729, -1.0054321, 0.729, -0.0604858, 0.729, 0.9465649, 0.729, 0.2824427, 0.729, -3.2366412
0.0865588, -0.0149386, 0.73575, 0.043335, 0.73575, -1.0044556, 0.73575, -0.06073, 0.73575, 0.8473282, 0.73575, 0.4580153, 0.73575, -3.2061069
0.0873529, -0.0104067, 0.7425, 0.0441895, 0.7425, -1.005249, 0.7425, -0.0623779, 0.7425, 1.2137405, 0.7425, 0.6641222, 0.7425, -3.2519083
0.0881471, -0.0125887, 0.74925, 0.0435791, 0.74925, -1.0053101, 0.74925, -0.0652466, 0.74925, 1.1526718, 0.74925, 0.7328244, 0.74925, -3.1908398
0.0889412, -0.0129244, 0.756, 0.0422363, 0.756, -1.0062256, 0.756, -0.0634766, 0.756, 0.9389313, 0.756, 0.8091603, 0.756, -3.1603053
0.0897353, -0.0157778, 0.76275, 0.0424194, 0.76275, -1.0046997, 0.76275, -0.0596924, 0.76275, 1.1145039, 0.76275, 0.8091603, 0.76275, -3.1450381
0.0905294, -0.0152743, 0.7695, 0.0396118, 0.7695, -1.0058594, 0.7695, -0.0641479, 0.7695, 1.0992366, 0.7695, 0.5801527, 0.7695, -3
0.0913235, -0.0135958, 0.77625, 0.0385132, 0.77625, -1.0078125, 0.77625, -0.0621338, 0.77625, 1.1832061, 0.77625, 0.740458, 0.77625, -3.2290077
0.0921176, -0.0139315, 0.783, 0.0388184, 0.783, -1.0062256, 0.783, -0.0646973, 0.783, 1.3664122, 0.783, 0.7480916, 0.783, -3.2977099
0.0929118, -0.0125887, 0.78975, 0.0385742, 0.78975, -1.003418, 0.78975, -0.0618286, 0.78975, 1.0992366, 0.78975, 0.8320611, 0.78975, -3.1603053
0.0937059, -0.0132601, 0.7965, 0.0392456, 0.7965, -1.0042114, 0.7965, -0.0629883, 0.7965, 1.0687023, 0.7965, 0.5343512, 0.7965, -3.3435113
0.0945, -0.0162814, 0.80325, 0.0383301, 0.80325, -1.0049438, 0.80325, -0.0582275, 0.80325, 1.0687023, 0.80325, 0.5648855, 0.80325, -3.2519083
0.0952941, -0.01561, 0.81, 0.0404053, 0.81, -1.006958, 0.81, -0.057312, 0.81, 1.2290076, 0.81, 0.5038168, 0.81, -3.1679389
0.0960882, -0.0169528, 0.81675, 0.0418701, 0.81675, -1.0064697, 0.81675, -0.0578613, 0.81675, 1.3664122, 0.81675, 0.7099237, 0.81675, -3.259542
0.0968824, -0.0203098, 0.8235, 0.0413208, 0.8235, -1.0071411, 0.8235, -0.059021, 0.8235, 1.2671756, 0.8235, 0.7480916, 0.8235, -3.2824428
0.0976765, -0.0218204, 0.83025, 0.0443115, 0.83025, -1.0057373, 0.83025, -0.0583496, 0.83025, 1.1984733, 0.83025, 0.870229, 0.83025, -3.3282442
0.0984706, -0.0236667, 0.837, 0.041748, 0.837, -1.005127, 0.837, -0.0595093, 0.837, 1.0687023, 0.837, 0.9312977, 0.837, -3.1984732
0.0992647, -0.0203098, 0.84375, 0.039917, 0.84375, -1.0076294, 0.84375, -0.0603638, 0.84375, 1.1068702, 0.84375, 1.1526718, 0.84375, -3.351145
0.1000588, -0.0219883, 0.8505, 0.0369873, 0.8505, -1.0078125, 0.8505, -0.0686035, 0.8505, 1.0534351, 0.8505, 0.9694657, 0.8505, -3.4351146
0.1008529, -0.021149, 0.85725, 0.036499, 0.85725, -1.0065308, 0.85725, -0.0625, 0.85725, 1.0763359, 0.85725, 0.8778626, 0.85725, -3.3358779
0.1016471, -0.0182956, 0.864, 0.0371704, 0.864, -1.0054932, 0.864, -0.0610962, 0.864, 1.0152671, 0.864, 0.7938932, 0.864, -3.1908398
0.1024412, -0.0151064, 0.87075, 0.0375977, 0.87075, -1.0076904, 0.87075, -0.0635986, 0.87075, 0.9923664, 0.87075, 0.9160305, 0.87075, -3.0992367
0.1032353, -0.0162814, 0.8775, 0.0357666, 0.8775, -1.0095215, 0.8775, -0.0627441, 0.8775, 1.2519084, 0.8775, 0.7175573, 0.8775, -3.1450381
0.1040294, -0.0169528, 0.88425, 0.0408325, 0.88425, -1.0072632, 0.88425, -0.0606689, 0.88425, 1.221374, 0.88425, 0.6641222, 0.88425, -3.2748091
0.1048235, -0.0139315, 0.891, 0.0424805, 0.891, -1.0058594, 0.891, -0.0610352, 0.891, 1.2519084, 0.891, 0.870229, 0.891, -3.2137403
0.1056176, -0.0139315, 0.89775, 0.0424805, 0.89775, -1.0067749, 0.89775, -0.0605469, 0.89775, 1.091603, 0.89775, 0.870229, 0.89775, -3.221374
0.1064118, -0.0146029, 0.9045, 0.0425415, 0.9045, -1.0091553, 0.9045, -0.0653687, 0.9045, 1.2290076, 0.9045, 0.9541985, 0.9045, -3.1450381
0.1072059, -0.0125887, 0.91125, 0.0410156, 0.91125, -1.0059814, 0.91125, -0.0665894, 0.91125, 1.2977099, 0.91125, 1.038168, 0.91125, -3.221374
0.108, -0.0099031, 0.918, 0.0393066, 0.918, -1.0097046, 0.918, -0.0667114, 0.918, 1.2900764, 0.918, 0.9389313, 0.918, -3.1526718
0.1087941, -0.0099031, 0.92475, 0.0371094, 0.92475, -1.0064697, 0.92475, -0.0638428, 0.92475, 1.4656489, 0.92475, 0.8167939, 0.92475, -3.2977099
0.1095882, -0.0095674, 0.9315, 0.0396729, 0.9315, -1.0068359, 0.9315, -0.0620117, 0.9315, 1.480916, 0.9315, 0.7480916, 0.9315, -3.2748091
0.1103824, -0.0077211, 0.93825, 0.039978, 0.93825, -1.0021362, 0.93825, -0.0640259, 0.93825, 1.389313, 0.93825, 0.5725191, 0.93825, -3.2748091
0.1111765, -0.0092317, 0.945, 0.0429077, 0.945, -1.0071411, 0.945, -0.0606079, 0.945, 1.2748091, 0.945, 0.6564885, 0.945, -3.2366412
0.1119706, -0.0129244, 0.95175, 0.0435791, 0.95175, -1.0061035, 0.95175, -0.0576172, 0.95175, 1.1450381, 0.95175, 0.5877863, 0.95175, -3.0992367
0.1127647, -0.0117494, 0.9585, 0.0402222, 0.9585, -1.0075684, 0.9585, -0.0584717, 0.9585, 1.351145, 0.9585, 0.7328244, 0.9585, -3.1832061
0.1135588, -0.0132601, 0.96525, 0.0384521, 0.96525, -1.0037231, 0.96525, -0.0587158, 0.96525, 1.3664122, 0.96525, 0.9465649, 0.96525, -3.2290077
0.1143529, -0.0151064, 0.972, 0.0388184, 0.972, -1.0032959, 0.972, -0.0584106, 0.972, 1.1068702, 0.972, 0.8854962, 0.972, -3.1450381
0.1151471, -0.0140993, 0.97875, 0.0375977, 0.97875, -1.0025635, 0.97875, -0.0570068, 0.97875, 1.1908396, 0.97875, 1.0305344, 0.97875, -3.2290077
0.1159412, -0.0162814, 0.9855, 0.0395508, 0.9855, -1.0064087, 0.9855, -0.0602417, 0.9855, 1.2366412, 0.9855, 1.0152671, 0.9855, -3.1374047
0.1167353, -0.0130922, 0.99225, 0.0369873, 0.99225, -1.0064697, 0.99225, -0.0609741, 0.99225, 1.2519084, 0.99225, 0.9160305, 0.99225, -3.389313
0.1175294, -0.012253, 0.999, 0.0322266, 0.999, -1.0054321, 0.999, -0.0635986, 0.999, 1.0305344, 0.999, 0.8549618, 0.999, -3.3053436
0.1183235, -0.0135958, 1.00575, 0.0348511, 1.00575, -1.0072021, 1.00575, -0.0646362, 1.00575, 0.9236641, 1.00575, 0.740458, 1.00575, -3.1603053
0.1191176, -0.0119173, 1.0125, 0.0366211, 1.0125, -1.0089722, 1.0125, -0.0608521, 1.0125, 1.038168, 1.0125, 0.4351145, 1.0125, -3.0687022
0.1199118, -0.0115816, 1.01925, 0.0383911, 1.01925, -1.0066528, 1.01925, -0.0596313, 1.01925, 1.1068702, 1.01925, 0.5343512, 1.01925, -3.2442749
0.1207059, -0.012253, 1.026, 0.0443115, 1.026, -1.0059814, 1.026, -0.060791, 1.026, 1.038168, 1.026, 0.480916, 1.026, -3.2137403
0.1215, -0.0102388, 1.03275, 0.0440063, 1.03275, -1.0089722, 1.03275, -0.0600586, 1.03275, 1.2519084, 1.03275, 0.4656489, 1.03275, -3.2824428
0.1222941, -0.0092317, 1.0395, 0.0452881, 1.0395, -1.0040283, 1.0395, -0.0605469, 1.0395, 1.3587786, 1.0395, 0.4656489, 1.0395, -3.1068702
0.1230882, -0.0095674, 1.04625, 0.041626, 1.04625, -1.0064087, 1.04625, -0.0601807, 1.04625, 1.3053435, 1.04625, 0.8015267, 1.04625, -3.0763359
0.1238824, -0.0099031, 1.053, 0.0418091, 1.053, -1.0080566, 1.053, -0.0618896, 1.053, 1.091603, 1.053, 0.9312977, 1.053, -3.1908398
0.1246765, -0.008896, 1.05975, 0.0415649, 1.05975, -1.0072021, 1.05975, -0.0608521, 1.05975, 1.1755725, 1.05975, 0.9465649, 1.05975, -3.4045801
0.1254706, -0.014435, 1.0665, 0.0397949, 1.0665, -1.008667, 1.0665, -0.0614624, 1.0665, 1.2061069, 1.0665, 0.8625954, 1.0665, -3.221374
0.1262647, -0.0125887, 1.07325, 0.0379028, 1.07325, -1.0067749, 1.07325, -0.0632935, 1.07325, 1.2900764, 1.07325, 0.8396947, 1.07325, -3.1526718
0.1270588, -0.0142672, 1.08, 0.0350952, 1.08, -1.0057373, 1.08, -0.0631104, 1.08, 1.129771, 1.08, 0.8396947, 1.08, -3.1221373
0.1278529, -0.018967, 1.08675, 0.0353394, 1.08675, -1.003479, 1.08675, -0.0631714, 1.08675, 1.2137405, 1.08675, 0.7099237, 1.08675, -3.1526718
0.1286471, -0.0203098, 1.0935, 0.0339355, 1.0935, -1.0074463, 1.0935, -0.0625, 1.0935, 1.1832061, 1.0935, 0.648855, 1.0935, -3.259542
0.1294412, -0.0193027, 1.10025, 0.036499, 1.10025, -1.0054932, 1.10025, -0.0578613, 1.10025, 1.4427481, 1.10025, 0.610687, 1.10025, -3.1908398
0.1302353, -0.017792, 1.107, 0.0374146, 1.107, -1.0064087, 1.107, -0.0637207, 1.107, 1.2366412, 1.107, 0.6641222, 1.107, -3.2519083
0.1310294, -0.0203098, 1.11375, 0.0404053, 1.11375, -1.0079346, 1.11375, -0.0598755, 1.11375, 1.3969465, 1.11375, 0.4885496, 1.11375, -3.2900763
0.1318235, -0.0236667, 1.1205, 0.0419922, 1.1205, -1.0058594, 1.1205, -0.0596313, 1.1205, 1.2671756, 1.1205, 0.5801527, 1.1205, -3.1145039
0.1326176, -0.0229953, 1.12725, 0.0415039, 1.12725, -1.006897, 1.12725, -0.0582886, 1.12725, 1.3664122, 1.12725, 0.519084, 1.12725, -3.1908398
0.1334118, -0.0203098, 1.134, 0.0429077, 1.134, -1.0050049, 1.134, -0.0575562, 1.134, 1.3816794, 1.134, 0.6183206, 1.134, -3.2290077
0.1342059, -0.0196384, 1.14075, 0.041626, 1.14075, -1.0054321, 1.14075, -0.0621338, 1.14075, 1.3664122, 1.14075, 0.6641222, 1.14075, -3.1450381
0.135, -0.0196384, 1.1475, 0.0410767, 1.1475, -1.0068359, 1.1475, -0.0606689, 1.1475, 1.091603, 1.1475, 0.4885496, 1.1475, -3.0839694
0.1357941, -0.01561, 1.15425, 0.0413208, 1.15425, -1.0095215, 1.15425, -0.0581665, 1.15425, 1.2900764, 1.15425, 0.7175573, 1.15425, -3.1832061
0.1365882, -0.0162814, 1.161, 0.0397949, 1.161, -1.0106201, 1.161, -0.0591431, 1.161, 1.2519084, 1.161, 0.5496183, 1.161, -3.351145
0.1373824, -0.01561, 1.16775, 0.0408325, 1.16775, -1.0067749, 1.16775, -0.0587158, 1.16775, 1.4045801, 1.16775, 0.6946565, 1.16775, -3.2366412
0.1381765, -0.0132601, 1.1745, 0.0415039, 1.1745, -1.0063477, 1.1745, -0.0601807, 1.1745, 1.4580153, 1.1745, 0.6030535, 1.1745, -3.3435113
0.1389706, -0.010071, 1.18125, 0.0400391, 1.18125, -1.0050049, 1.18125, -0.0663452, 1.18125, 1.221374, 1.18125, 0.6946565, 1.18125, -3.1908398
0.1397647, -0.0117494, 1.188, 0.0450439, 1.188, -1.0049438, 1.188, -0.0605469, 1.188, 1.2519084, 1.188, 0.519084, 1.188, -3.2061069
0.1405588, -0.0135958, 1.19475, 0.039917, 1.19475, -1.0032349, 1.19475, -0.0634155, 1.19475, 1.129771, 1.19475, 0.7099237, 1.19475, -3.2442749
0.1413529, -0.0135958, 1.2015, 0.0404053, 1.2015, -1.0071411, 1.2015, -0.0561523, 1.2015, 0.9160305, 1.2015, 0.4274809, 1.2015, -3.2061069
0.1421471, -0.0119173, 1.20825, 0.0358887, 1.20825, -1.0061035, 1.20825, -0.0596924, 1.20825, 0.7480916, 1.20825, 0.4885496, 1.20825, -3.3740458
0.1429412, -0.0112459, 1.215, 0.0336914, 1.215, -1.0061646, 1.215, -0.0601807, 1.215, 0.7251908, 1.215, 0.7022901, 1.215, -3.1526718
0.1437353, -0.0135958, 1.22175, 0.0343018, 1.22175, -1.0062866, 1.22175, -0.0643311, 1.22175, 0.778626, 1.22175, 0.8320611, 1.22175, -3.4351146
0.1445294, -0.0139315, 1.2285, 0.0328369, 1.2285, -1.0045776, 1.2285, -0.0634155, 1.2285, 1, 1.2285, 0.5954198, 1.2285, -3.4198472
0.1453235, -0.0164492, 1.23525, 0.0378418, 1.23525, -1.0050659, 1.23525, -0.0644531, 1.23525, 0.9465649, 1.23525, 0.3206107, 1.23525, -3.3969467
0.1461176, -0.0135958, 1.242, 0.0387573, 1.242, -1.0066528, 1.242, -0.0622559, 1.242, 1.1068702, 1.242, 0.0381679, 1.242, -3.1603053
0.1469118, -0.0135958, 1.24875, 0.0410767, 1.24875, -1.0064697, 1.24875, -0.0595703, 1.24875, 0.8854962, 1.24875, 0.4351145, 1.24875, -3.2442749
0.1477059, -0.01561, 1.2555, 0.0452271, 1.2555, -1.005127, 1.2555, -0.0623779, 1.2555, 1.2748091, 1.2555, 0.4580153, 1.2555, -3.2519083
0.1485, -0.0166171, 1.26225, 0.0455933, 1.26225, -1.0055542, 1.26225, -0.0615845, 1.26225, 1.3282443, 1.26225, 0.6870229, 1.26225, -3.2519083
0.1492941, -0.0206455, 1.269, 0.0471802, 1.269, -1.0036011, 1.269, -0.0631104, 1.269, 1.3435115, 1.269, 0.6793893, 1.269, -3.2671757
0.1500882, -0.0201419, 1.27575, 0.0429688, 1.27575, -1.006897, 1.27575, -0.0635986, 1.27575, 1.351145, 1.27575, 0.740458, 1.27575, -3.1526718
0.1508824, -0.0157778, 1.2825, 0.0426636, 1.2825, -1.0082397, 1.2825, -0.0638428, 1.2825, 1.3435115, 1.2825, 0.9694657, 1.2825, -3.3435113
0.1516765, -0.0102388, 1.28925, 0.0436401, 1.28925, -1.0077515, 1.28925, -0.0626831, 1.28925, 1.2900764, 1.28925, 1.1526718, 1.28925, -3.221374
0.1524706, -0.0099031, 1.296, 0.0411377, 1.296, -1.0067139, 1.296, -0.0626831, 1.296, 1.2442749, 1.296, 1.0610687, 1.296, -3.3282442
0.1532647, -0.0135958, 1.30275, 0.0377197, 1.30275, -1.0092163, 1.30275, -0.0635986, 1.30275, 1.351145, 1.30275, 1.0458015, 1.30275, -3.1374047
0.1540588, -0.0142672, 1.3095, 0.0375977, 1.3095, -1.0062866, 1.3095, -0.0618896, 1.3095, 1.4122137, 1.3095, 1.129771, 1.3095, -3.1450381
0.1548529, -0.0139315, 1.31625, 0.0367432, 1.31625, -1.0067749, 1.31625, -0.0626831, 1.31625, 1.5267175, 1.31625, 1.0839695, 1.31625, -3.2137403
0.1556471, -0.0115816, 1.323, 0.034668, 1.323, -1.0057373, 1.323, -0.0620728, 1.323, 1.3969465, 1.323, 1.0152671, 1.323, -3.1832061
0.1564412, -0.0078889, 1.32975, 0.0375977, 1.32975, -1.008667, 1.32975, -0.05896, 1.32975, 1.4580153, 1.32975, 0.7938932, 1.32975, -3.1221373
0.1572353, -0.0092317, 1.3365, 0.0401001, 1.3365, -1.0064087, 1.3365, -0.0614624, 1.3365, 1.5572519, 1.3365, 0.908397, 1.3365, -3.2748091
0.1580294, -0.0125887, 1.34325, 0.0403442, 1.34325, -1.0042114, 1.34325, -0.0593872, 1.34325, 1.5648855, 1.34325, 0.9007633, 1.34325, -3.2366412
0.1588235, -0.012253, 1.35, 0.0418701, 1.35, -1.0049438, 1.35, -0.0575562, 1.35, 1.5801526, 1.35, 0.908397, 1.35, -3.1450381
0.1596176, -0.012253, 1.35675, 0.0388794, 1.35675, -1.0050049, 1.35675, -0.0604858, 1.35675, 1.5725191, 1.35675, 0.9694657, 1.35675, -3.2748091
0.1604118, -0.0135958, 1.3635, 0.041687, 1.3635, -1.0046387, 1.3635, -0.0587769, 1.3635, 1.1984733, 1.3635, 1.0534351, 1.3635, -3.259542
0.1612059, -0.01561, 1.37025, 0.0371704, 1.37025, -1.0053711, 1.37025, -0.0583496, 1.37025, 1.2977099, 1.37025, 0.9923664, 1.37025, -3.3053436
0.162, -0.01561, 1.377, 0.0375977, 1.377, -1.0056152, 1.377, -0.0577393, 1.377, 1.2290076, 1.377, 0.908397, 1.377, -3.1679389
0.1627941, -0.012253, 1.38375, 0.0392456, 1.38375, -1.0042114, 1.38375, -0.0611572, 1.38375, 1.0839695, 1.38375, 1.0076336, 1.38375, -3.0687022
0.1635882, -0.0146029, 1.3905, 0.036499, 1.3905, -1.0050659, 1.3905, -0.0579224, 1.3905, 1.1603054, 1.3905, 0.8167939, 1.3905, -3.2900763
0.1643824, -0.018967, 1.39725, 0.0377197, 1.39725, -1.0032349, 1.39725, -0.0566406, 1.39725, 1.3129771, 1.39725, 0.8167939, 1.39725, -3.129771
0.1651765, -0.0139315, 1.404, 0.0421753, 1.404, -1.0023193, 1.404, -0.0563354, 1.404, 1.2366412, 1.404, 0.5954198, 1.404, -3.2442749
0.1659706, -0.0134279, 1.41075, 0.0444946, 1.41075, -1.0061646, 1.41075, -0.0564575, 1.41075, 1.1450381, 1.41075, 0.8931298, 1.41075, -3.1374047
0.1667647, -0.01561, 1.4175, 0.0408325, 1.4175, -1.0083008, 1.4175, -0.0568848, 1.4175, 1.1374046, 1.4175, 0.870229, 1.4175, -3.3129771
0.1675588, -0.0169528, 1.42425, 0.0429688, 1.42425, -1.0075073, 1.42425, -0.0581665, 1.42425, 1.0763359, 1.42425, 0.8320611, 1.42425, -3.2366412
0.1683529, -0.0171206, 1.431, 0.0410156, 1.431, -1.0078735, 1.431, -0.0565186, 1.431, 1.1145039, 1.431, 0.9465649, 1.431, -3.3664122
0.1691471, -0.018967, 1.43775, 0.0387573, 1.43775, -1.0061646, 1.43775, -0.0598755, 1.43775, 1.1450381, 1.43775, 0.7480916, 1.43775, -3.2442749
0.1699412, -0.0169528, 1.4445, 0.0372314, 1.4445, -1.0050049, 1.4445, -0.0643921, 1.4445, 1.0992366, 1.4445, 0.5648855, 1.4445, -3.1679389
0.1707353, -0.01561, 1.45125, 0.0401001, 1.45125, -1.0063477, 1.45125, -0.0615234, 1.45125, 1.0610687, 1.45125, 0.4045801, 1.45125, -3.1908398
0.1715294, -0.0125887, 1.458, 0.0404663, 1.458, -1.0065308, 1.458, -0.0593262, 1.458, 0.8473282, 1.458, 0.0839695, 1.458, -3.2137403
0.1723235, -0.014435, 1.46475, 0.0410156, 1.46475, -1.006897, 1.46475, -0.0585327, 1.46475, 0.8854962, 1.46475, 0.221374, 1.46475, -3.3053436
0.1731176, -0.0135958, 1.4715, 0.0402832, 1.4715, -1.0043335, 1.4715, -0.0593262, 1.4715, 1, 1.4715, 0.2900763, 1.4715, -3.2977099
0.1739118, -0.0132601, 1.47825, 0.0418701, 1.47825, -1.0066528, 1.47825, -0.0604248, 1.47825, 0.9312977, 1.47825, 0.3969466, 1.47825, -3.2290077
0.1747059, -0.0142672, 1.485, 0.0437012, 1.485, -1.008728, 1.485, -0.0605469, 1.485, 1.0305344, 1.485, 0.5267175, 1.485, -3.2442749
0.1755, -0.0109102, 1.49175, 0.0424194, 1.49175, -1.0087891, 1.49175, -0.0582886, 1.49175, 1.129771, 1.49175, 0.5267175, 1.49175, -3.1450381
0.1762941, -0.0135958, 1.4985, 0.0441895, 1.4985, -1.0050049, 1.4985, -0.0571899, 1.4985, 1.091603, 1.4985, 0.6412213, 1.4985, -3.3664122
0.1770882, -0.01561, 1.50525, 0.0396118, 1.50525, -1.0075684, 1.50525, -0.0594482, 1.50525, 1.1526718, 1.50525, 0.5877863, 1.50525, -3.3129771
0.1778824, -0.0135958, 1.512, 0.0380249, 1.512, -1.0081177, 1.512, -0.0636597, 1.512, 0.8778626, 1.512, 0.870229, 1.512, -3.1374047
0.1786765, -0.0102388, 1.51875, 0.0391235, 1.51875, -1.0065308, 1.51875, -0.0615845, 1.51875, 0.8015267, 1.51875, 0.9236641, 1.51875, -3.1908398
0.1794706, -0.0115816, 1.5255, 0.0404053, 1.5255, -1.0025635, 1.5255, -0.0623779, 1.5255, 0.6717557, 1.5255, 0.8549618, 1.5255, -3.1984732
0.1802647, -0.0164492, 1.53225, 0.039917, 1.53225, -1.0042114, 1.53225, -0.05896, 1.53225, 0.6641222, 1.53225, 0.8396947, 1.53225, -3.3358779
0.1810588, -0.0172885, 1.539, 0.0397339, 1.539, -1.0062866, 1.539, -0.0602417, 1.539, 0.9236641, 1.539, 0.6870229, 1.539, -3.2900763
0.1818529, -0.0196384, 1.54575, 0.0360107, 1.54575, -1.0078125, 1.54575, -0.0603638, 1.54575, 0.908397, 1.54575, 0.6946565, 1.54575, -3.221374
0.1826471, -0.0199741, 1.5525, 0.038147, 1.5525, -1.0072632, 1.5525, -0.0592651, 1.5525, 0.908397, 1.5525, 0.8167939, 1.5525, -3.1145039
0.1834412, -0.0181277, 1.55925, 0.0406494, 1.55925, -1.0064697, 1.55925, -0.0601196, 1.55925, 1.1450381, 1.55925, 0.7938932, 1.55925, -3.1526718
0.1842353, -0.0176242, 1.566, 0.0443726, 1.566, -1.0095215, 1.566, -0.0609741, 1.566, 0.9923664, 1.566, 0.9312977, 1.566, -3.259542
0.1850294, -0.0149386, 1.57275, 0.0426025, 1.57275, -1.0045166, 1.57275, -0.0610962, 1.57275, 1.0305344, 1.57275, 0.8396947, 1.57275, -3.4351146
0.1858235, -0.0149386, 1.5795, 0.0388184, 1.5795, -1.0065918, 1.5795, -0.0603027, 1.5795, 1.1679389, 1.5795, 0.7099237, 1.5795, -3.2290077
0.1866176, -0.0181277, 1.58625, 0.0395508, 1.58625, -1.0094604, 1.58625, -0.0648193, 1.58625, 1.0229008, 1.58625, 0.8625954, 1.58625, -3.2900763
0.1874118, -0.0194705, 1.593, 0.0401611, 1.593, -1.0100098, 1.593, -0.0605469, 1.593, 0.9923664, 1.593, 0.9541985, 1.593, -3.1832061
0.1882059, -0.0196384, 1.59975, 0.0359497, 1.59975, -1.0067749, 1.59975, -0.0605469, 1.59975, 1.0458015, 1.59975, 0.610687, 1.59975, -3.1679389
0.189, -0.0216526, 1.6065, 0.0392456, 1.6065, -1.0046997, 1.6065, -0.06427, 1.6065, 1.0992366, 1.6065, 0.7099237, 1.6065, -3.259542
0.1897941, -0.0193027, 1.61325, 0.0385742, 1.61325, -1.0063477, 1.61325, -0.0651245, 1.61325, 1.1755725, 1.61325, 0.7328244, 1.61325, -3.2824428
0.1905882, -0.0204776, 1.62, 0.0376587, 1.62, -1.0075073, 1.62, -0.0606689, 1.62, 1.3282443, 1.62, 0.5954198, 1.62, -3.4122138
0.1913824, -0.0182956, 1.62675, 0.041687, 1.62675, -1.0072021, 1.62675, -0.0604248, 1.62675, 1.1908396, 1.62675, 0.7862595, 1.62675, -3.2290077
0.1921765, -0.0132601, 1.6335, 0.0412598, 1.6335, -1.0081177, 1.6335, -0.0594482, 1.6335, 1.1984733, 1.6335, 0.5801527, 1.6335, -3.3129771
0.1929706, -0.008896, 1.64025, 0.039856, 1.64025, -1.0075073, 1.64025, -0.0597534, 1.64025, 1.3206106, 1.64025, 0.7251908, 1.64025, -3.3969467
0.1937647, -0.0095674, 1.647, 0.0356445, 1.647, -1.0058594, 1.647, -0.0596313, 1.647, 1.1526718, 1.647, 0.5572519, 1.647, -3.3435113
0.1945588, -0.0129244, 1.65375, 0.0390625, 1.65375, -1.0043335, 1.65375, -0.0621338, 1.65375, 1.1755725, 1.65375, 0.9541985, 1.65375, -3.3816793
0.1953529, -0.0117494, 1.6605, 0.0408325, 1.6605, -1.0071411, 1.6605, -0.0628662, 1.6605, 1.1755725, 1.6605, 0.9770992, 1.6605, -3.3816793
0.1961471, -0.0139315, 1.66725, 0.0431519, 1.66725, -1.006897, 1.66725, -0.0631104, 1.66725, 0.9007633, 1.66725, 0.9541985, 1.66725, -3.3969467
0.1969412, -0.0146029, 1.674, 0.0395508, 1.674, -1.0070801, 1.674, -0.0610352, 1.674, 0.8854962, 1.674, 0.9541985, 1.674, -3.2366412
0.1977353, -0.0142672, 1.68075, 0.0418091, 1.68075, -1.0060425, 1.68075, -0.0641479, 1.68075, 1.0229008, 1.68075, 1.0305344, 1.68075, -3.259542
0.1985294, -0.0162814, 1.6875, 0.0407104, 1.6875, -1.0023804, 1.6875, -0.0602417, 1.6875, 1, 1.6875, 0.7328244, 1.6875, -3.1908398
0.1993235, -0.0140993, 1.69425, 0.0403442, 1.69425, -1.0040283, 1.69425, -0.0597534, 1.69425, 1.2671756, 1.69425, 0.8549618, 1.69425, -3.0992367
0.2001176, -0.012253, 1.701, 0.039917, 1.701, -1.0064087, 1.701, -0.0599365, 1.701, 1.0076336, 1.701, 0.7862595, 1.701, -3.0229008
0.2009118, -0.0099031, 1.70775, 0.0421143, 1.70775, -1.0061035, 1.70775, -0.0599365, 1.70775, 1.129771, 1.70775, 0.7557252, 1.70775, -3.1526718
0.2017059, -0.0082246, 1.7145, 0.0410767, 1.7145, -1.005127, 1.7145, -0.060791, 1.7145, 1.2061069, 1.7145, 0.7633588, 1.7145, -3.1984732
0.2025, -0.0062104, 1.72125, 0.0390625, 1.72125, -1.0064087, 1.72125, -0.0634766, 1.72125, 1.2442749, 1.72125, 0.9923664, 1.72125, -3.0687022
0.2032941, -0.0057069, 1.728, 0.0385132, 1.728, -1.0053711, 1.728, -0.0628052, 1.728, 1.2137405, 1.728, 1.0076336, 1.728, -3.091603
0.2040882, -0.0075532, 1.73475, 0.0375977, 1.73475, -1.0054932, 1.73475, -0.0584106, 1.73475, 1.0152671, 1.73475, 0.8015267, 1.73475, -2.9389312
0.2048824, -0.0072175, 1.7415, 0.0372314, 1.7415, -1.0065918, 1.7415, -0.057312, 1.7415, 1.0229008, 1.7415, 0.4198473, 1.7415, -3.259542
0.2056765, -0.0058747, 1.74825, 0.0401611, 1.74825, -1.0039673, 1.74825, -0.0547485, 1.74825, 1.1068702, 1.74825, 0.5343512, 1.74825, -3.2977099
0.2064706, -0.0060426, 1.755, 0.0414429, 1.755, -1.0050049, 1.755, -0.0604858, 1.755, 1.2366412, 1.755, 0.5648855, 1.755, -3.2061069
0.2072647, -0.0082246, 1.76175, 0.0422363, 1.76175, -1.00354, 1.76175, -0.0592651, 1.76175, 1.221374, 1.76175, 0.4961832, 1.76175, -3.1068702
0.2080588, -0.0099031, 1.7685, 0.0400391, 1.7685, -1.0065308, 1.7685, -0.0612793, 1.7685, 0.961832, 1.7685, 0.4885496, 1.7685, -3.2824428
0.2088529, -0.0057069, 1.77525, 0.039917, 1.77525, -1.0071411, 1.77525, -0.0580444, 1.77525, 1, 1.77525, 0.5343512, 1.77525, -3.2519083
0.2096471, -0.0035248, 1.782, 0.041626, 1.782, -1.0046387, 1.782, -0.057312, 1.782, 1.221374, 1.782, 0.5877863, 1.782, -3.1984732
0.2104412, -0.0082246, 1.78875, 0.0352783, 1.78875, -1.003418, 1.78875, -0.0600586, 1.78875, 1.0610687, 1.78875, 0.5572519, 1.78875, -3.3664122
0.2112353, -0.011078, 1.7955, 0.0361328, 1.7955, -1.0046387, 1.7955, -0.06073, 1.7955, 0.9312977, 1.7955, 0.4656489, 1.7955, -3.3435113
0.2120294, -0.0115816, 1.80225, 0.0383301, 1.80225, -1.0036621, 1.80225, -0.0625, 1.80225, 0.9847328, 1.80225, 0.5343512, 1.80225, -3.2061069
0.2128235, -0.0129244, 1.809, 0.0361328, 1.809, -1.0072632, 1.809, -0.0634766, 1.809, 0.8931298, 1.809, 0.6412213, 1.809, -3.4351146
0.2136176, -0.0129244, 1.81575, 0.0368652, 1.81575, -1.0054321, 1.81575, -0.0626831, 1.81575, 0.8854962, 1.81575, 0.4885496, 1.81575, -3.1526718
0.2144118, -0.0162814, 1.8225, 0.0384521, 1.8225, -1.0079346, 1.8225, -0.0586548, 1.8225, 0.9389313, 1.8225, 0.3969466, 1.8225, -3.3206108
0.2152059, -0.01561, 1.82925, 0.0405884, 1.82925, -1.0076904, 1.82925, -0.0618286, 1.82925, 0.8473282, 1.82925, 0.3664122, 1.82925, -3.2748091
0.216, -0.0172885, 1.836, 0.0407715, 1.836, -1.0044556, 1.836, -0.0615234, 1.836, 1.0152671, 1.836, 0.480916, 1.836, -3.0992367
0.2167941, -0.0184634, 1.84275, 0.0440674, 1.84275, -1.0053711, 1.84275, -0.0632324, 1.84275, 1.0458015, 1.84275, 0.4274809, 1.84275, -3.3053436
0.2175882, -0.0182956, 1.8495, 0.0444336, 1.8495, -1.0055542, 1.8495, -0.0588379, 1.8495, 1.2290076, 1.8495, 0.5343512, 1.8495, -3.1984732
0.2183824, -0.0213169, 1.85625, 0.0439453, 1.85625, -1.0064087, 1.85625, -0.0637207, 1.85625, 1.2366412, 1.85625, 0.5725191, 1.85625, -3.1374047
0.2191765, -0.0196384, 1.863, 0.0413208, 1.863, -1.0075073, 1.863, -0.0654907, 1.863, 1.0763359, 1.863, 0.778626, 1.863, -3.1755726
0.2199706, -0.0196384, 1.86975, 0.0432129, 1.86975, -1.0059204, 1.86975, -0.0610352, 1.86975, 1.221374, 1.86975, 0.7709923, 1.86975, -3.1679389
0.2207647, -0.0199741, 1.8765, 0.0401611, 1.8765, -1.0046997, 1.8765, -0.0610962, 1.8765, 1.3816794, 1.8765, 0.9007633, 1.8765, -3.2824428
0.2215588, -0.0196384, 1.88325, 0.0420532, 1.88325, -1.0049438, 1.88325, -0.0596313, 1.88325, 1.3816794, 1.88325, 1.0534351, 1.88325, -3.221374
0.2223529, -0.0176242, 1.89, 0.0440674, 1.89, -1.0064087, 1.89, -0.0597534, 1.89, 1.4045801, 1.89, 0.8473282, 1.89, -3.2519083
0.2231471, -0.0171206, 1.89675, 0.0392456, 1.89675, -1.0075684, 1.89675, -0.0603027, 1.89675, 1.1603054, 1.89675, 0.961832, 1.89675, -3.4580152
0.2239412, -0.0172885, 1.9035, 0.0391846, 1.9035, -1.0053711, 1.9035, -0.0593262, 1.9035, 1.2900764, 1.9035, 0.961832, 1.9035, -3.2366412
0.2247353, -0.0157778, 1.91025, 0.038147, 1.91025, -1.0059204, 1.91025, -0.0613403, 1.91025, 1.389313, 1.91025, 0.9007633, 1.91025, -3.3053436
0.2255294, -0.0146029, 1.917, 0.0377197, 1.917, -1.0053101, 1.917, -0.0605469, 1.917, 1.221374, 1.917, 0.8625954, 1.917, -3.2366412
0.2263235, -0.0166171, 1.92375, 0.0396118, 1.92375, -1.0060425, 1.92375, -0.0614624, 1.92375, 0.9847328, 1.92375, 0.6259542, 1.92375, -3.1068702
0.2271176, -0.017792, 1.9305, 0.0371094, 1.9305, -1.0042725, 1.9305, -0.0620117, 1.9305, 0.9694657, 1.9305, 0.6259542, 1.9305, -3.1908398
0.2279118, -0.0149386, 1.93725, 0.0376587, 1.93725, -1.0058594, 1.93725, -0.0629883, 1.93725, 0.9160305, 1.93725, 0.7328244, 1.93725, -3.1908398
0.2287059, -0.0142672, 1.944, 0.0411377, 1.944, -1.0057373, 1.944, -0.0598755, 1.944, 0.8778626, 1.944, 0.8396947, 1.944, -3.1679389
0.2295, -0.0162814, 1.95075, 0.0413818, 1.95075, -1.0079346, 1.95075, -0.0577393, 1.95075, 0.8396947, 1.95075, 0.8473282, 1.95075, -3.3358779
0.2302941, -0.014435, 1.9575, 0.0380249, 1.9575, -1.0077515, 1.9575, -0.0571899, 1.9575, 0.9312977, 1.9575, 0.8244275, 1.9575, -3.3740458
0.2310882, -0.0146029, 1.96425, 0.0375366, 1.96425, -1.0066528, 1.96425, -0.0596313, 1.96425, 1.1755725, 1.96425, 0.8854962, 1.96425, -3.1755726
0.2318824, -0.0169528, 1.971, 0.0406494, 1.971, -1.0024414, 1.971, -0.0592651, 1.971, 1.2290076, 1.971, 0.8931298, 1.971, -3.1755726
0.2326765, -0.0196384, 1.97775, 0.0404053, 1.97775, -1.0065308, 1.97775, -0.0592041, 1.97775, 1.1679389, 1.97775, 0.8625954, 1.97775, -3.1755726
0.2334706, -0.0216526, 1.9845, 0.0422363, 1.9845, -1.0050049, 1.9845, -0.0576782, 1.9845, 0.9770992, 1.9845, 0.5267175, 1.9845, -3.259542
0.2342647, -0.0193027, 1.99125, 0.0419312, 1.99125, -1.0097656, 1.99125, -0.0562134, 1.99125, 1.0534351, 1.99125, 0.4885496, 1.99125, -3.2900763
0.2350588, -0.0203098, 1.998, 0.0427246, 1.998, -1.0089111, 1.998, -0.0570679, 1.998, 1.0763359, 1.998, 0.5496183, 1.998, -3.1908398
0.2358529, -0.0186313, 2.00475, 0.0430298, 2.00475, -1.0060425, 2.00475, -0.0618286, 2.00475, 1.0305344, 2.00475, 0.8091603, 2.00475, -3.1984732
0.2366471, -0.0149386, 2.0115, 0.0452881, 2.0115, -1.0038452, 2.0115, -0.0618896, 2.0115, 1, 2.0115, 1.0076336, 2.0115, -3.1374047
0.2374412, -0.0152743, 2.01825, 0.043396, 2.01825, -1.0065918, 2.01825, -0.0653687, 2.01825, 1.2824427, 2.01825, 1, 2.01825, -3.2290077
0.2382353, -0.018967, 2.025, 0.0429688, 2.025, -1.0070801, 2.025, -0.0648193, 2.025, 0.8778626, 2.025, 1.2290076, 2.025, -3
0.2390294, -0.0199741, 2.03175, 0.0418091, 2.03175, -1.008606, 2.03175, -0.0600586, 2.03175, 1.2748091, 2.03175, 1.0076336, 2.03175, -3.0458016
0.2398235, -0.021149, 2.0385, 0.0390015, 2.0385, -1.006897, 2.0385, -0.0591431, 2.0385, 1.4045801, 2.0385, 0.8320611, 2.0385, -3.2748091
0.2406176, -0.0171206, 2.04525, 0.0397339, 2.04525, -1.0065308, 2.04525, -0.0620728, 2.04525, 1.3282443, 2.04525, 0.9236641, 2.04525, -3.4351146
0.2414118, -0.0171206, 2.052, 0.0379028, 2.052, -1.0042114, 2.052, -0.0621338, 2.052, 1.3587786, 2.052, 0.961832, 2.052, -3.1755726
0.2422059, -0.0171206, 2.05875, 0.0426025, 2.05875, -1.0001221, 2.05875, -0.0639648, 2.05875, 1.389313, 2.05875, 0.8167939, 2.05875, -3.1145039
0.243, -0.0184634, 2.0655, 0.039917, 2.0655, -1.0048828, 2.0655, -0.0639648, 2.0655, 1.1145039, 2.0655, 0.7862595, 2.0655, -3.129771
0.2437941, -0.0162814, 2.07225, 0.0407715, 2.07225, -1.0056152, 2.07225, -0.0579834, 2.07225, 0.9389313, 2.07225, 0.6412213, 2.07225, -3.1374047
0.2445882, -0.012253, 2.079, 0.0388184, 2.079, -1.0072021, 2.079, -0.057373, 2.079, 1.1832061, 2.079, 0.740458, 2.079, -3.221374
0.2453824, -0.0092317, 2.08575, 0.0415039, 2.08575, -1.0061646, 2.08575, -0.0581055, 2.08575, 1.1908396, 2.08575, 0.7557252, 2.08575, -3.1221373
0.2461765, -0.0092317, 2.0925, 0.039856, 2.0925, -1.0068359, 2.0925, -0.05896, 2.0925, 1.1374046, 2.0925, 0.6717557, 2.0925, -3.389313
0.2469706, -0.0078889, 2.09925, 0.0405273, 2.09925, -1.0084839, 2.09925, -0.0564575, 2.09925, 0.9160305, 2.09925, 0.6030535, 2.09925, -3.221374
0.2477647, -0.0062104, 2.106, 0.0408325, 2.106, -1.0056763, 2.106, -0.0574341, 2.106, 1.2366412, 2.106, 0.7709923, 2.106, -3.2442749
0.2485588, -0.008896, 2.11275, 0.0369873, 2.11275, -1.006897, 2.11275, -0.0582886, 2.11275, 1.2290076, 2.11275, 0.7251908, 2.11275, -3.1068702
0.2493529, -0.008896, 2.1195, 0.0384521, 2.1195, -1.0062866, 2.1195, -0.0602417, 2.1195, 1.4274809, 2.1195, 0.7328244, 2.1195, -3.1450381
0.2501471, -0.0085603, 2.12625, 0.0355225, 2.12625, -1.0072021, 2.12625, -0.0610962, 2.12625, 1.3053435, 2.12625, 0.7328244, 2.12625, -3.1832061
0.2509412, -0.0099031, 2.133, 0.0348511, 2.133, -1.0065308, 2.133, -0.0604858, 2.133, 1.5496184, 2.133, 0.6412213, 2.133, -3.2366412
0.2517353, -0.0102388, 2.13975, 0.0413208, 2.13975, -1.0067139, 2.13975, -0.0623169, 2.13975, 1.3358779, 2.13975, 0.5267175, 2.13975, -3.1221373
0.2525294, -0.0109102, 2.1465, 0.0401001, 2.1465, -1.005249, 2.1465, -0.0595093, 2.1465, 1.3587786, 2.1465, 0.5419847, 2.1465, -3.1221373
0.2533235, -0.0095674, 2.15325, 0.0401001, 2.15325, -1.0029907, 2.15325, -0.0562134, 2.15325, 1.3206106, 2.15325, 0.4732825, 2.15325, -2.9770992
0.2541176, -0.0127565, 2.16, 0.0422363, 2.16, -1.0050049, 2.16, -0.0563354, 2.16, 1.2061069, 2.16, 0.4656489, 2.16, -3.1679389
0.2549118, -0.0152743, 2.16675, 0.0429077, 2.16675, -1.003418, 2.16675, -0.0581055, 2.16675, 1.2748091, 2.16675, 0.6335878, 2.16675, -3.2137403
0.2557059, -0.0154421, 2.1735, 0.0420532, 2.1735, -1.00354, 2.1735, -0.0559692, 2.1735, 1.2519084, 2.1735, 0.7175573, 2.1735, -3.259542
0.2565, -0.0166171, 2.18025, 0.0432739, 2.18025, -1.0058594, 2.18025, -0.0554199, 2.18025, 1.1908396, 2.18025, 0.8244275, 2.18025, -3.2290077
0.2572941, -0.0176242, 2.187, 0.0384521, 2.187, -1.0057373, 2.187, -0.0560913, 2.187, 0.8320611, 2.187, 0.9847328, 2.187, -3.2442749
0.2580882, -0.0186313, 2.19375, 0.0380859, 2.19375, -1.0057983, 2.19375, -0.057312, 2.19375, 0.8931298, 2.19375, 0.908397, 2.19375, -3.1679389
0.2588824, -0.0167849, 2.2005, 0.0358887, 2.2005, -1.0078125, 2.2005, -0.0539551, 2.2005, 0.7557252, 2.2005, 0.8931298, 2.2005, -3.2671757
0.2596765, -0.0179599, 2.20725, 0.0346069, 2.20725, -1.0073242, 2.20725, -0.0568237, 2.20725, 0.8091603, 2.20725, 0.778626, 2.20725, -3.2748091
0.2604706, -0.0152743, 2.214, 0.0362549, 2.214, -1.0049438, 2.214, -0.0618286, 2.214, 0.648855, 2.214, 0.6564885, 2.214, -3.1984732
0.2612647, -0.0157778, 2.22075, 0.0386353, 2.22075, -1.0073853, 2.22075, -0.0574951, 2.22075, -0.2061069, 2.22075, 0.6793893, 2.22075, -3.3206108
0.2620588, -0.0152743, 2.2275, 0.0429688, 2.2275, -1.0020142, 2.2275, -0.0579224, 2.2275, -0.5648855, 2.2275, 0.480916, 2.2275, -3.1679389
0.2628529, -0.0149386, 2.23425, 0.0455322, 2.23425, -1.005127, 2.23425, -0.0578613, 2.23425, -1.7480916, 2.23425, 0.8778626, 2.23425, -2.7328243
0.2636471, -0.0149386, 2.241, 0.0424805, 2.241, -1.0112305, 2.241, -0.0569458, 2.241, -2.091603, 2.241, 0.8015267, 2.241, -2.6335878
0.2644412, -0.0181277, 2.24775, 0.0507812, 2.24775, -1.0117188, 2.24775, -0.0575562, 2.24775, -2.5343511, 2.24775, 2.0763359, 2.24775, -2.4503818
0.2652353, -0.0209812, 2.2545, 0.0598145, 2.2545, -1.020813, 2.2545, -0.0491333, 2.2545, -3.5267177, 2.2545, 3.7328243, 2.2545, -1.7938931
0.2660294, -0.018967, 2.26125, 0.0684814, 2.26125, -1.0276489, 2.26125, -0.0366211, 2.26125, -3.8320611, 2.26125, 4.5954199, 2.26125, -1.2366412
0.2668235, -0.0203098, 2.268, 0.0731201, 2.268, -1.0256958, 2.268, -0.0374146, 2.268, -5.1145039, 2.268, 6.5114503, 2.268, -0.2061069
0.2676176, -0.0182956, 2.27475, 0.0773926, 2.27475, -1.0220947, 2.27475, -0.0739136, 2.27475, -6.2061067, 2.27475, 6.3587785, 2.27475, 0.3053435
0.2684118, -0.0162814, 2.2815, 0.0948486, 2.2815, -1.0251465, 2.2815, -0.0842285, 2.2815, -6.1068702, 2.2815, 2.5725191, 2.2815, -0.221374
0.2692059, -0.012253, 2.28825, 0.1102905, 2.28825, -1.0254517, 2.28825, -0.0753784, 2.28825, -4.5267177, 2.28825, 0.2519084, 2.28825, -0.6641222
0.27, -0.0109102, 2.295, 0.0938721, 2.295, -1.0115356, 2.295, -0.078125, 2.295, -3.3358779, 2.295, 1.4656489, 2.295, -0.7862595
0.2707941, -0.0129244, 2.30175, 0.0690918, 2.30175, -1.0095825, 2.30175, -0.0900269, 2.30175, -3.4961832, 2.30175, 1.6870229, 2.30175, -0.8244275
0.2715882, -0.012253, 2.3085, 0.0576782, 2.3085, -1.0098267, 2.3085, -0.0963135, 2.3085, -3.4961832, 2.3085, 1.8320611, 2.3085, -1.2824427
0.2723824, -0.008896, 2.31525, 0.0366211, 2.31525, -1.0124512, 2.31525, -0.0921021, 2.31525, -2.5419848, 2.31525, 2.4503818, 2.31525, -1.2748091
0.2731765, -0.0085603, 2.322, 0.0245972, 2.322, -1.0053711, 2.322, -0.0791626, 2.322, -1.0534351, 2.322, 4.2748094, 2.322, -1.4580153
0.2739706, -0.0112459, 2.32875, 0.0062866, 2.32875, -0.9989624, 2.32875, -0.0707397, 2.32875, -0.648855, 2.32875, 5.3664122, 2.32875, -1.480916
0.2747647, -0.0139315, 2.3355, -0.0114136, 2.3355, -0.9968872, 2.3355, -0.0698242, 2.3355, -0.4351145, 2.3355, 4.7099237, 2.3355, -1.4427481
0.2755588, -0.0115816, 2.34225, -0.013855, 2.34225, -0.9909058, 2.34225, -0.0690918, 2.34225, -0.4885496, 2.34225, 4.6564884, 2.34225, -1.3435115
0.2763529, -0.0149386, 2.349, -0.0110474, 2.349, -0.9939575, 2.349, -0.0713501, 2.349, -0.3282443, 2.349, 4.3893127, 2.349, -1.3816794
0.2771471, -0.0182956, 2.35575, -0.0090942, 2.35575, -0.9951782, 2.35575, -0.0631714, 2.35575, -0.3358779, 2.35575, 4.2290077, 2.35575, -1.4122137
0.2779412, -0.0223239, 2.3625, 0.0016479, 2.3625, -0.9961548, 2.3625, -0.0484009, 2.3625, 0.0229008, 2.3625, 3.7175572, 2.3625, -1.7480916
0.2787353, -0.0241703, 2.36925, 0.0169067, 2.36925, -0.9938965, 2.36925, -0.0489502, 2.36925, 0.1221374, 2.36925, 3.6183207, 2.36925, -1.8549619
0.2795294, -0.0223239, 2.376, 0.0245361, 2.376, -0.9924927, 2.376, -0.0568848, 2.376, -0.3740458, 2.376, 2.7633588, 2.376, -2.1221373
0.2803235, -0.018967, 2.38275, 0.0264893, 2.38275, -0.9922485, 2.38275, -0.0531006, 2.38275, -0.2900763, 2.38275, 2.6564887, 2.38275, -2.3358779
0.2811176, -0.0194705, 2.3895, 0.0323486, 2.3895, -0.9921265, 2.3895, -0.0512695, 2.3895, -0.4885496, 2.3895, 3.0076337, 2.3895, -2.259542
0.2819118, -0.0206455, 2.39625, 0.0401611, 2.39625, -0.9926147, 2.39625, -0.0510864, 2.39625, -0.2290076, 2.39625, 3.0610688, 2.39625, -2.4732823
0.2827059, -0.0176242, 2.403, 0.0376587, 2.403, -0.9949341, 2.403, -0.0545044, 2.403, -0.1145038, 2.403, 2.9923663, 2.403, -2.610687
0.2835, -0.0142672, 2.40975, 0.0298462, 2.40975, -0.9959717, 2.40975, -0.0571289, 2.40975, 0.0839695, 2.40975, 3.129771, 2.40975, -2.389313
0.2842941, -0.0135958, 2.4165, 0.0288086, 2.4165, -0.9985962, 2.4165, -0.0594482, 2.4165, 0.0687023, 2.4165, 3.6030533, 2.4165, -2.4503818
0.2850882, -0.0159457, 2.42325, 0.0294189, 2.42325, -0.9934692, 2.42325, -0.0668335, 2.42325, -0.1450382, 2.42325, 3.6641221, 2.42325, -2.221374
0.2858824, -0.0182956, 2.43, 0.0297241, 2.43, -0.9934082, 2.43, -0.0710449, 2.43, -0.2900763, 2.43, 2.7709923, 2.43, -2.1374047
0.2866765, -0.0159457, 2.43675, 0.0308838, 2.43675, -0.9994507, 2.43675, -0.0714722, 2.43675, -0.8244275, 2.43675, 2.221374, 2.43675, -2.221374
0.2874706, -0.0159457, 2.4435, 0.0362549, 2.4435, -1.0030518, 2.4435, -0.0664062, 2.4435, -0.519084, 2.4435, 2.4503818, 2.4435, -2.2442749
0.2882647, -0.0176242, 2.45025, 0.0461426, 2.45025, -1.0059814, 2.45025, -0.0620117, 2.45025, -0.5572519, 2.45025, 2.351145, 2.45025, -2.1221373
0.2890588, -0.0139315, 2.457, 0.0455322, 2.457, -1.0090942, 2.457, -0.0584106, 2.457, -0.740458, 2.457, 2.0458016, 2.457, -2.1984732
0.2898529, -0.0125887, 2.46375, 0.0426025, 2.46375, -1.0077515, 2.46375, -0.0623779, 2.46375, -1.648855, 2.46375, 2.5725191, 2.46375, -1.9694656
0.2906471, -0.0119173, 2.4705, 0.0440674, 2.4705, -1.0129395, 2.4705, -0.0692139, 2.4705, -1.7175573, 2.4705, 2.610687, 2.4705, -2.038168
0.2914412, -0.0063783, 2.47725, 0.0463257, 2.47725, -1.0141602, 2.47725, -0.0682373, 2.47725, -1.0839695, 2.47725, 3.3282442, 2.47725, -2.0458016
0.2922353, -0.0065461, 2.484, 0.0443115, 2.484, -1.0137939, 2.484, -0.0724487, 2.484, -1.2671756, 2.484, 4.3129773, 2.484, -1.8244275
0.2930294, -0.0063783, 2.49075, 0.0369873, 2.49075, -1.0117188, 2.49075, -0.0718384, 2.49075, -1.519084, 2.49075, 3.8396947, 2.49075, -1.9465649
0.2938235, -0.006714, 2.4975, 0.0229492, 2.4975, -1.0134277, 2.4975, -0.0742188, 2.4975, -1.4198474, 2.4975, 3.7022901, 2.4975, -2.0839694
0.2946176, -0.0043641, 2.50425, 0.0227051, 2.50425, -1.0112305, 2.50425, -0.0686646, 2.50425, -1.259542, 2.50425, 3.4503818, 2.50425, -1.9007634
0.2954118, -0.005539, 2.511, 0.0270386, 2.511, -1.0106812, 2.511, -0.0718384, 2.511, -1.3969465, 2.511, 2.8396947, 2.511, -2.2519083
0.2962059, -0.0109102, 2.51775, 0.0319214, 2.51775, -1.0061646, 2.51775, -0.0662842, 2.51775, -1.5419847, 2.51775, 1.8091604, 2.51775, -2.2290077
0.297, -0.0135958, 2.5245, 0.0397339, 2.5245, -1.0078125, 2.5245, -0.0709229, 2.5245, -1.5419847, 2.5245, 1.7328244, 2.5245, -2.2748091
0.2977941, -0.0142672, 2.53125, 0.0425415, 2.53125, -1.0062866, 2.53125, -0.0640259, 2.53125, -1.9389313, 2.53125, 2.7557251, 2.53125, -2.091603
0.2985882, -0.0130922, 2.538, 0.0473022, 2.538, -1.007019, 2.538, -0.0623779, 2.538, -1.9236641, 2.538, 3.351145, 2.538, -2.0992367
0.2993824, -0.011078, 2.54475, 0.0464478, 2.54475, -1.0039062, 2.54475, -0.064209, 2.54475, -1.7328244, 2.54475, 4.1908398, 2.54475, -2.3053436
0.3001765, -0.0109102, 2.5515, 0.0426636, 2.5515, -1.0029297, 2.5515, -0.0718994, 2.5515, -2.1145039, 2.5515, 4.3664122, 2.5515, -2.3282442
0.3009706, -0.0137636, 2.55825, 0.0366821, 2.55825, -1.0033569, 2.55825, -0.0641479, 2.55825, -2.221374, 2.55825, 4.221374, 2.55825, -2.2366412
0.3017647, -0.0172885, 2.565, 0.0296631, 2.565, -1.0007935, 2.565, -0.0614624, 2.565, -2.0763359, 2.565, 4.2671757, 2.565, -2.4427481
0.3025588, -0.0176242, 2.57175, 0.0257568, 2.57175, -0.9945068, 2.57175, -0.0645752, 2.57175, -2.3129771, 2.57175, 4.3129773, 2.57175, -2.4427481
0.3033529, -0.012253, 2.5785, 0.0234985, 2.5785, -0.992981, 2.5785, -0.0648804, 2.5785, -2.389313, 2.5785, 4.1297708, 2.5785, -2.2824428
0.3041471, -0.0115816, 2.58525, 0.0216064, 2.58525, -0.9949951, 2.58525, -0.062439, 2.58525, -2.5877862, 2.58525, 4.0610685, 2.58525, -2.3664122
0.3049412, -0.0125887, 2.592, 0.0206299, 2.592, -1.0001831, 2.592, -0.0621948, 2.592, -2.5648854, 2.592, 4.0152674, 2.592, -2.2519083
0.3057353, -0.012253, 2.59875, 0.0221558, 2.59875, -1.0001831, 2.59875, -0.0670776, 2.59875, -2.7938931, 2.59875, 4.1145039, 2.59875, -2.2977099
0.3065294, -0.0137636, 2.6055, 0.0198975, 2.6055, -0.9953613, 2.6055, -0.0725098, 2.6055, -3.1221373, 2.6055, 4.4732823, 2.6055, -2.3053436
0.3073235, -0.0135958, 2.61225, 0.0194092, 2.61225, -0.9954224, 2.61225, -0.0744629, 2.61225, -3.4045801, 2.61225, 4.4885497, 2.61225, -2.1679389
0.3081176, -0.0109102, 2.619, 0.0200195, 2.619, -0.9954224, 2.619, -0.0753784, 2.619, -3.3969467, 2.619, 4.6641221, 2.619, -2.0458016
0.3089118, -0.0115816, 2.62575, 0.0216064, 2.62575, -1.0032959, 2.62575, -0.0767822, 2.62575, -3.5038168, 2.62575, 4.2900763, 2.62575, -2.221374
0.3097059, -0.0095674, 2.6325, 0.0266724, 2.6325, -1.0047607, 2.6325, -0.0784302, 2.6325, -3.4580152, 2.6325, 4.1603055, 2.6325, -2.4961832
0.3105, -0.0095674, 2.63925, 0.0290527, 2.63925, -1.0055542, 2.63925, -0.0812378, 2.63925, -3.4580152, 2.63925, 3.961832, 2.63925, -2.4732823
0.3112941, -0.010071, 2.646, 0.0281372, 2.646, -1.0072632, 2.646, -0.0878296, 2.646, -3.2977099, 2.646, 3.7480917, 2.646, -2.5343511
0.3120882, -0.008896, 2.65275, 0.0244751, 2.65275, -1.0093994, 2.65275, -0.0886841, 2.65275, -3.1450381, 2.65275, 3.2519083, 2.65275, -2.6412213
0.3128824, -0.008896, 2.6595, 0.0240479, 2.6595, -1.0115356, 2.6595, -0.0894775, 2.6595, -2.8625953, 2.6595, 3.3587787, 2.6595, -2.6717558
0.3136765, -0.0112459, 2.66625, 0.0255737, 2.66625, -1.008728, 2.66625, -0.093811, 2.66625, -2.4503818, 2.66625, 3.091603, 2.66625, -2.7938931
0.3144706, -0.01561, 2.673, 0.0247803, 2.673, -1.0116577, 2.673, -0.1038818, 2.673, -2.2824428, 2.673, 2.8931298, 2.673, -2.8244274
0.3152647, -0.0169528, 2.67975, 0.0288086, 2.67975, -1.0130615, 2.67975, -0.1008301, 2.67975, -1.9694656, 2.67975, 2.9465649, 2.67975, -2.6946564
0.3160588, -0.0142672, 2.6865, 0.0289917, 2.6865, -1.0116577, 2.6865, -0.1018677, 2.6865, -1.908397, 2.6865, 3.1755726, 2.6865, -2.6717558
0.3168529, -0.0140993, 2.69325, 0.0282593, 2.69325, -1.010376, 2.69325, -0.1039429, 2.69325, -1.6870229, 2.69325, 3.2748091, 2.69325, -2.6259542
0.3176471, -0.0129244, 2.7, 0.0298462, 2.7, -1.0117798, 2.7, -0.1025391, 2.7, -1.5725191, 2.7, 3.2519083, 2.7, -2.5114503
0.3184412, -0.0130922, 2.70675, 0.0328979, 2.70675, -1.0109253, 2.70675, -0.0922852, 2.70675, -1.4427481, 2.70675, 3.0305343, 2.70675, -2.7099237
0.3192353, -0.0166171, 2.7135, 0.0289307, 2.7135, -1.0081177, 2.7135, -0.0965576, 2.7135, -1.1603054, 2.7135, 3.1450381, 2.7135, -2.9389312
0.3200294, -0.0130922, 2.72025, 0.0267334, 2.72025, -1.0087891, 2.72025, -0.0975952, 2.72025, -1.2519084, 2.72025, 3.2137403, 2.72025, -2.9694657
0.3208235, -0.0095674, 2.727, 0.0231323, 2.727, -1.0112305, 2.727, -0.0953369, 2.727, -1.2748091, 2.727, 3.1145039, 2.727, -2.870229
0.3216176, -0.0112459, 2.73375, 0.0224609, 2.73375, -1.0101318, 2.73375, -0.0932007, 2.73375, -0.8015267, 2.73375, 3.2061069, 2.73375, -2.9007633
0.3224118, -0.0105745, 2.7405, 0.019165, 2.7405, -1.0089111, 2.7405, -0.0953979, 2.7405, -1.221374, 2.7405, 3.1832061, 2.7405, -2.6946564
0.3232059, -0.0115816, 2.74725, 0.0158691, 2.74725, -1.0092163, 2.74725, -0.0960693, 2.74725, -1.4427481, 2.74725, 2.8167939, 2.74725, -2.8396947
0.324, -0.0112459, 2.754, 0.017334, 2.754, -1.012085, 2.754, -0.0927734, 2.754, -1.5496184, 2.754, 2.8167939, 2.754, -3.0229008
0.3247941, -0.0142672, 2.76075, 0.0211182, 2.76075, -1.012146, 2.76075, -0.0931396, 2.76075, -1.3206106, 2.76075, 2.3053436, 2.76075, -2.9465649
0.3255882, -0.0162814, 2.7675, 0.0251465, 2.7675, -1.0114746, 2.7675, -0.0909424, 2.7675, -1.4656489, 2.7675, 2.6030533, 2.7675, -2.9389312
0.3263824, -0.0149386, 2.77425, 0.0275269, 2.77425, -1.0102539, 2.77425, -0.0912476, 2.77425, -1.4580153, 2.77425, 2.8167939, 2.77425, -3.0229008
0.3271765, -0.0171206, 2.781, 0.0300293, 2.781, -1.0118408, 2.781, -0.0905762, 2.781, -1.4580153, 2.781, 2.5954199, 2.781, -2.961832
0.3279706, -0.0191348, 2.78775, 0.0285034, 2.78775, -1.0120239, 2.78775, -0.0836182, 2.78775, -1.0152671, 2.78775, 2.5877862, 2.78775, -3.3053436
0.3287647, -0.0223239, 2.7945, 0.0317993, 2.7945, -1.0150757, 2.7945, -0.0884399, 2.7945, -1.0076336, 2.7945, 3.0305343, 2.7945, -3.2977099
0.3295588, -0.0236667, 2.80125, 0.0337524, 2.80125, -1.0149536, 2.80125, -0.0879517, 2.80125, -1.2824427, 2.80125, 3.4656489, 2.80125, -3.3358779
0.3303529, -0.0256809, 2.808, 0.0275879, 2.808, -1.0134888, 2.808, -0.0895386, 2.808, -1.1450381, 2.808, 3.7709923, 2.808, -3.038168
0.3311471, -0.0276951, 2.81475, 0.0250854, 2.81475, -1.0098267, 2.81475, -0.0917358, 2.81475, -1.0305344, 2.81475, 3.6183207, 2.81475, -3.2366412
0.3319412, -0.0246738, 2.8215, 0.0232544, 2.8215, -1.0078125, 2.8215, -0.0930176, 2.8215, -0.7251908, 2.8215, 3.8778627, 2.8215, -3.4045801
0.3327353, -0.023331, 2.82825, 0.0244751, 2.82825, -1.0075073, 2.82825, -0.0961304, 2.82825, -0.6717557, 2.82825, 3.8473282, 2.82825, -3.3664122
0.3335294, -0.0238346, 2.835, 0.0273438, 2.835, -1.0074463, 2.835, -0.093689, 2.835, -0.7709923, 2.835, 3.7633588, 2.835, -3.3206108
0.3343235, -0.0209812, 2.84175, 0.0214233, 2.84175, -1.0047607, 2.84175, -0.0897217, 2.84175, -0.6335878, 2.84175, 3.4580152, 2.84175, -3.4732823
0.3351176, -0.0172885, 2.8485, 0.0153198, 2.8485, -1.0028687, 2.8485, -0.0952148, 2.8485, -0.4961832, 2.8485, 3.3206108, 2.8485, -3.5419848
0.3359118, -0.012253, 2.85525, 0.0133057, 2.85525, -1.0046387, 2.85525, -0.0963135, 2.85525, -0.3664122, 2.85525, 3.2061069, 2.85525, -3.7022901
0.3367059, -0.0119173, 2.862, 0.0096436, 2.862, -1.0084229, 2.862, -0.0944824, 2.862, -0.3206107, 2.862, 2.908397, 2.862, -3.6946564
0.3375, -0.0129244, 2.86875, 0.0155029, 2.86875, -1.010437, 2.86875, -0.0912476, 2.86875, -0.2442748, 2.86875, 2.389313, 2.86875, -3.6564887
0.3382941, -0.0127565, 2.8755, 0.0192871, 2.8755, -1.0068359, 2.8755, -0.0891724, 2.8755, -0.1603053, 2.8755, 1.9847329, 2.8755, -3.8931298
0.3390882, -0.0109102, 2.88225, 0.0197144, 2.88225, -1.0074463, 2.88225, -0.0911865, 2.88225, -0.0305344, 2.88225, 1.5267175, 2.88225, -4.0687022
0.3398824, -0.0109102, 2.889, 0.0184937, 2.889, -1.0090332, 2.889, -0.0927734, 2.889, -0.0458015, 2.889, 1.2519084, 2.889, -4.1908398
0.3406765, -0.008896, 2.89575, 0.0205078, 2.89575, -1.0123901, 2.89575, -0.0941162, 2.89575, 0.1603053, 2.89575, 0.8091603, 2.89575, -4.2366414
0.3414706, -0.010071, 2.9025, 0.0222778, 2.9025, -1.0095215, 2.9025, -0.0960083, 2.9025, 0.1374046, 2.9025, 0.648855, 2.9025, -4.2748094
0.3422647, -0.0095674, 2.90925, 0.0192871, 2.90925, -1.0076904, 2.90925, -0.0951538, 2.90925, 0.0687023, 2.90925, 0.6564885, 2.90925, -4.2824426
0.3430588, -0.0075532, 2.916, 0.017334, 2.916, -1.0127563, 2.916, -0.0963745, 2.916, -0.3206107, 2.916, 0.5419847, 2.916, -4.1984735
0.3438529, -0.0068818, 2.92275, 0.0203247, 2.92275, -1.0126953, 2.92275, -0.088562, 2.92275, -0.7557252, 2.92275, -0.2061069, 2.92275, -4.3206105
0.3446471, -0.0036927, 2.9295, 0.0234985, 2.9295, -1.012207, 2.9295, -0.0894165, 2.9295, -0.7251908, 2.9295, -1.5954199, 2.9295, -4.3358779
0.3454412, -0.0072175, 2.93625, 0.0266724, 2.93625, -1.0068359, 2.93625, -0.0930786, 2.93625, -0.8854962, 2.93625, -1.4580153, 2.93625, -4.5954199
0.3462353, -0.0132601, 2.943, 0.0379639, 2.943, -1.0106812, 2.943, -0.0940552, 2.943, -1.4274809, 2.943, -1.4732825, 2.943, -4.4045801
0.3470294, -0.0172885, 2.94975, 0.0437012, 2.94975, -1.0125732, 2.94975, -0.0910034, 2.94975, -1.8625954, 2.94975, -1.129771, 2.94975, -4.0534353
0.3478235, -0.0179599, 2.9565, 0.0397339, 2.9565, -1.0111694, 2.9565, -0.0838623, 2.9565, -2, 2.9565, -0.2977099, 2.9565, -4
0.3486176, -0.0149386, 2.96325, 0.0477295, 2.96325, -1.0115356, 2.96325, -0.0819702, 2.96325, -1.7938931, 2.96325, 0.4122137, 2.96325, -4.0229006
0.3494118, -0.0149386, 2.97, 0.0415649, 2.97, -1.008728, 2.97, -0.0975952, 2.97, -1.2748091, 2.97, 0.1603053, 2.97, -4.2061067
0.3502059, -0.0182956, 2.97675, 0.0321045, 2.97675, -1.0070801, 2.97675, -0.0974731, 2.97675, -1.5038168, 2.97675, 0.389313, 2.97675, -4.2290077
0.351, -0.0209812, 2.9835, 0.0276489, 2.9835, -1.0041504, 2.9835, -0.0941162, 2.9835, -1.3816794, 2.9835, 1.1603054, 2.9835, -4.1603055
0.3517941, -0.0223239, 2.99025, 0.020874, 2.99025, -1.0026245, 2.99025, -0.0953369, 2.99025, -1.1908396, 2.99025, 0.8854962, 2.99025, -4.1297708
0.3525882, -0.0216526, 2.997, 0.0188599, 2.997, -1.0023804, 2.997, -0.0983887, 2.997, -0.9312977, 2.997, 0.519084, 2.997, -4.1374044
0.3533824, -0.0219883, 3.00375, 0.0211182, 3.00375, -1.0025635, 3.00375, -0.1002197, 3.00375, -0.9541985, 3.00375, 0.1832061, 3.00375, -4.1984735
0.3541765, -0.0193027, 3.0105, 0.0194702, 3.0105, -1.0031738, 3.0105, -0.1000366, 3.0105, -0.9465649, 3.0105, 0.4580153, 3.0105, -4.2977099
0.3549706, -0.0149386, 3.01725, 0.0215454, 3.01725, -1.0058594, 3.01725, -0.0982666, 3.01725, -0.8244275, 3.01725, 0.7022901, 3.01725, -4.0839696
0.3557647, -0.0125887, 3.024, 0.0265503, 3.024, -1.0061646, 3.024, -0.0966797, 3.024, -0.6870229, 3.024, 0.5419847, 3.024, -4.0534353
0.3565588, -0.0095674, 3.03075, 0.0264893, 3.03075, -1.0093384, 3.03075, -0.0921021, 3.03075, -0.7862595, 3.03075, 0.3053435, 3.03075, -4.1984735
0.3573529, -0.0075532, 3.0375, 0.0336914, 3.0375, -1.0095215, 3.0375, -0.093689, 3.0375, -0.5114504, 3.0375, 0.1145038, 3.0375, -4.1755724
0.3581471, -0.0095674, 3.04425, 0.0370483, 3.04425, -1.0075073, 3.04425, -0.0926514, 3.04425, -0.3587786, 3.04425, 0.3206107, 3.04425, -4.3511453
0.3589412, -0.0083925, 3.051, 0.039917, 3.051, -1.005127, 3.051, -0.0980835, 3.051, -0.4885496, 3.051, 0.1832061, 3.051, -4.6335878
0.3597353, -0.0072175, 3.05775, 0.0394287, 3.05775, -1.0062256, 3.05775, -0.0967407, 3.05775, -0.4274809, 3.05775, 0.259542, 3.05775, -4.4885497
0.3605294, -0.0082246, 3.0645, 0.0367432, 3.0645, -1.0061035, 3.0645, -0.1014404, 3.0645, -0.5954198, 3.0645, 0.7099237, 3.0645, -4.4503818
0.3613235, -0.0078889, 3.07125, 0.0348511, 3.07125, -1.0072021, 3.07125, -0.1069946, 3.07125, -0.8015267, 3.07125, 0.7633588, 3.07125, -4.2900763
0.3621176, -0.0102388, 3.078, 0.0300293, 3.078, -1.006958, 3.078, -0.1057129, 3.078, -0.9694657, 3.078, 0.4885496, 3.078, -4.5114503
0.3629118, -0.0097353, 3.08475, 0.0335693, 3.08475, -1.0055542, 3.08475, -0.1060181, 3.08475, -1.221374, 3.08475, 0.0076336, 3.08475, -4.5114503
0.3637059, -0.0099031, 3.0915, 0.0285645, 3.0915, -1.0040283, 3.0915, -0.1035156, 3.0915, -1.6412214, 3.0915, -0.1679389, 3.0915, -4.2977099
0.3645, -0.0124208, 3.09825, 0.0267334, 3.09825, -1.0099487, 3.09825, -0.097229, 3.09825, -1.4961832, 3.09825, -0.5038168, 3.09825, -4.3129773
0.3652941, -0.0135958, 3.105, 0.0303955, 3.105, -1.0029297, 3.105, -0.0967407, 3.105, -0.8244275, 3.105, -0.4580153, 3.105, -4.4351144
0.3660882, -0.0119173, 3.11175, 0.0328369, 3.11175, -1.0032349, 3.11175, -0.0993652, 3.11175, -0.5725191, 3.11175, -0.3664122, 3.11175, -4.5954199
0.3668824, -0.0129244, 3.1185, 0.0321655, 3.1185, -1.003418, 3.1185, -0.0961304, 3.1185, -0.610687, 3.1185, -0.5343512, 3.1185, -4.5343513
0.3676765, -0.0169528, 3.12525, 0.0323486, 3.12525, -1.0049438, 3.12525, -0.0946655, 3.12525, -0.3969466, 3.12525, -0.5419847, 3.12525, -4.4427481
0.3684706, -0.0146029, 3.132, 0.0292358, 3.132, -1.0064087, 3.132, -0.0967407, 3.132, -0.1679389, 3.132, -0.2977099, 3.132, -4.519084
0.3692647, -0.0149386, 3.13875, 0.0344238, 3.13875, -1.0072021, 3.13875, -0.0982666, 3.13875, -0.0152672, 3.13875, -0.2900763, 3.13875, -4.5419846
0.3700588, -0.0162814, 3.1455, 0.0294189, 3.1455, -1.0071411, 3.1455, -0.0980225, 3.1455, -0.0458015, 3.1455, -0.0152672, 3.1455, -4.3816795
0.3708529, -0.0135958, 3.15225, 0.0276489, 3.15225, -1.0090942, 3.15225, -0.0964966, 3.15225, 0.2061069, 3.15225, -0.0992366, 3.15225, -4.4122138
0.3716471, -0.012253, 3.159, 0.0275269, 3.159, -1.0083618, 3.159, -0.1015015, 3.159, 0.3816794, 3.159, -0.1526718, 3.159, -4.4580154
0.3724412, -0.0112459, 3.16575, 0.0299683, 3.16575, -1.0080566, 3.16575, -0.104248, 3.16575, 0.259542, 3.16575, -0.4351145, 3.16575, -4.3969464
0.3732353, -0.0139315, 3.1725, 0.0325928, 3.1725, -1.005188, 3.1725, -0.1021118, 3.1725, 0.0687023, 3.1725, -0.8473282, 3.1725, -4.4885497
0.3740294, -0.014435, 3.17925, 0.0327759, 3.17925, -1.0048828, 3.17925, -0.0997925, 3.17925, 0.4045801, 3.17925, -0.6793893, 3.17925, -4.3587785
0.3748235, -0.0149386, 3.186, 0.0391235, 3.186, -1.0042114, 3.186, -0.102417, 3.186, 0.2824427, 3.186, -0.8015267, 3.186, -4.5572519
0.3756176, -0.0164492, 3.19275, 0.041626, 3.19275, -1.0083618, 3.19275, -0.1051636, 3.19275, 0.0763359, 3.19275, -0.6335878, 3.19275, -4.3587785
0.3764118, -0.0199741, 3.1995, 0.0464478, 3.1995, -1.0066528, 3.1995, -0.1083984, 3.1995, -0.3740458, 3.1995, -0.3740458, 3.1995, -4.3893127
0.3772059, -0.0196384, 3.20625, 0.043335, 3.20625, -1.0081177, 3.20625, -0.1055298, 3.20625, -0.7328244, 3.20625, -0.4274809, 3.20625, -4.2748094
0.378, -0.0203098, 3.213, 0.0423584, 3.213, -1.0120239, 3.213, -0.102417, 3.213, -0.8015267, 3.213, -0.2061069, 3.213, -4.1679387
0.3787941, -0.0216526, 3.21975, 0.0424805, 3.21975, -1.0161743, 3.21975, -0.102478, 3.21975, -1.4122137, 3.21975, 0.2977099, 3.21975, -4.2061067
0.3795882, -0.0179599, 3.2265, 0.0455322, 3.2265, -1.0108032, 3.2265, -0.0960693, 3.2265, -1.0610687, 3.2265, 0.908397, 3.2265, -3.9847329
0.3803824, -0.0149386, 3.23325, 0.0440674, 3.23325, -1.0124512, 3.23325, -0.1098022, 3.23325, -1.0076336, 3.23325, 1, 3.23325, -4.0076337
0.3811765, -0.0146029, 3.24, 0.0438843, 3.24, -1.0080566, 3.24, -0.111145, 3.24, -1.6030535, 3.24, 1.0229008, 3.24, -3.9007633
0.3819706, -0.0139315, 3.24675, 0.0439453, 3.24675, -1.0144043, 3.24675, -0.1040039, 3.24675, -1.4122137, 3.24675, 1.221374, 3.24675, -3.9312978
0.3827647, -0.0146029, 3.2535, 0.0423584, 3.2535, -1.0153198, 3.2535, -0.1052246, 3.2535, -1.0687023, 3.2535, 1.7480916, 3.2535, -3.8625953
0.3835588, -0.0162814, 3.26025, 0.0392456, 3.26025, -1.0097656, 3.26025, -0.1077881, 3.26025, -0.7022901, 3.26025, 1.480916, 3.26025, -4.038168
0.3843529, -0.0142672, 3.267, 0.034729, 3.267, -1.0081177, 3.267, -0.1038818, 3.267, -0.7099237, 3.267, 1.3282443, 3.267, -4.1145039
0.3851471, -0.0125887, 3.27375, 0.0335083, 3.27375, -1.0083618, 3.27375, -0.112854, 3.27375, -0.6412213, 3.27375, 1.5114504, 3.27375, -3.9694657
0.3859412, -0.0115816, 3.2805, 0.0361938, 3.2805, -1.0055542, 3.2805, -0.1185303, 3.2805, -1.4274809, 3.2805, 1.0992366, 3.2805, -3.8625953
0.3867353, -0.0099031, 3.28725, 0.0387573, 3.28725, -1.0092163, 3.28725, -0.1151123, 3.28725, -1.5267175, 3.28725, 0.6717557, 3.28725, -3.610687
0.3875294, -0.0112459, 3.294, 0.041748, 3.294, -1.0095215, 3.294, -0.1149902, 3.294, -1.2366412, 3.294, 0.3587786, 3.294, -3.8015268
0.3883235, -0.0105745, 3.30075, 0.0418091, 3.30075, -1.0124512, 3.30075, -0.1095581, 3.30075, -0.8167939, 3.30075, 0.389313, 3.30075, -3.8473282
0.3891176, -0.0117494, 3.3075, 0.0432739, 3.3075, -1.0071411, 3.3075, -0.1075439, 3.3075, -0.8320611, 3.3075, 1.2748091, 3.3075, -3.7633588
0.3899118, -0.0137636, 3.31425, 0.0419312, 3.31425, -1.0048828, 3.31425, -0.1061401, 3.31425, -0.7099237, 3.31425, 1.5648855, 3.31425, -3.7938931
0.3907059, -0.0149386, 3.321, 0.0432739, 3.321, -1.0076294, 3.321, -0.1040039, 3.321, -0.6335878, 3.321, 1.8396946, 3.321, -3.7251909
0.3915, -0.0169528, 3.32775, 0.0402222, 3.32775, -1.005127, 3.32775, -0.1070557, 3.32775, -0.3435115, 3.32775, 1.4580153, 3.32775, -3.7328243
0.3922941, -0.0182956, 3.3345, 0.0357056, 3.3345, -1.0058594, 3.3345, -0.1102905, 3.3345, -0.4274809, 3.3345, 1.038168, 3.3345, -3.9236641
0.3930882, -0.018967, 3.34125, 0.0341187, 3.34125, -1.0036011, 3.34125, -0.1054688, 3.34125, -0.2824427, 3.34125, 0.9770992, 3.34125, -3.9847329
0.3938824, -0.0203098, 3.348, 0.0299683, 3.348, -1.0071411, 3.348, -0.0975952, 3.348, 0.0381679, 3.348, 1.1755725, 3.348, -3.8549619
0.3946765, -0.0142672, 3.35475, 0.0236816, 3.35475, -1.0038452, 3.35475, -0.0994263, 3.35475, 0.2061069, 3.35475, 0.8854962, 3.35475, -3.8931298
0.3954706, -0.0102388, 3.3615, 0.0258789, 3.3615, -1.005127, 3.3615, -0.1102905, 3.3615, -0.0458015, 3.3615, 0.7022901, 3.3615, -3.9007633
0.3962647, -0.0117494, 3.36825, 0.0305176, 3.36825, -1.0026855, 3.36825, -0.1088867, 3.36825, 0.0305344, 3.36825, 0.4503817, 3.36825, -3.8320611
0.3970588, -0.012253, 3.375, 0.0345459, 3.375, -1.0041504, 3.375, -0.1074219, 3.375, 0.4122137, 3.375, 0.480916, 3.375, -3.778626
0.3978529, -0.0115816, 3.38175, 0.0362549, 3.38175, -1.0053101, 3.38175, -0.1117554, 3.38175, 0.389313, 3.38175, 0.2442748, 3.38175, -3.908397
0.3986471, -0.0149386, 3.3885, 0.0360718, 3.3885, -1.0054321, 3.3885, -0.1088867, 3.3885, 0.3740458, 3.3885, 0.3587786, 3.3885, -3.8931298
0.3994412, -0.0169528, 3.39525, 0.0361938, 3.39525, -1.0081787, 3.39525, -0.1080933, 3.39525, 0.6030535, 3.39525, 0.7938932, 3.39525, -3.6412213
0.4002353, -0.0196384, 3.402, 0.036438, 3.402, -1.0021362, 3.402, -0.1085815, 3.402, 0.648855, 3.402, 0.8167939, 3.402, -3.7480917
0.4010294, -0.0198062, 3.40875, 0.0339966, 3.40875, -1.0056763, 3.40875, -0.1050415, 3.40875, 0.8473282, 3.40875, 0.5267175, 3.40875, -3.6793892
0.4018235, -0.0213169, 3.4155, 0.0337524, 3.4155, -1.0048828, 3.4155, -0.1084595, 3.4155, 0.6946565, 3.4155, 0.6793893, 3.4155, -3.648855
0.4026176, -0.0166171, 3.42225, 0.0343018, 3.42225, -1.0064087, 3.42225, -0.1008911, 3.42225, 0.6183206, 3.42225, 0.2671756, 3.42225, -3.7099237
0.4034118, -0.01561, 3.429, 0.0357056, 3.429, -1.0059814, 3.429, -0.1016846, 3.429, 1.0610687, 3.429, 0.4427481, 3.429, -3.7251909
0.4042059, -0.0176242, 3.43575, 0.0375977, 3.43575, -1.008606, 3.43575, -0.1087036, 3.43575, 1.129771, 3.43575, 0.9236641, 3.43575, -3.5267177
0.405, -0.018967, 3.4425, 0.0357666, 3.4425, -1.0070801, 3.4425, -0.104126, 3.4425, 0.9923664, 3.4425, 0.7022901, 3.4425, -3.5572519
0.4057941, -0.018967, 3.44925, 0.03125, 3.44925, -1.0058594, 3.44925, -0.1060791, 3.44925, 1.1145039, 3.44925, 0.8549618, 3.44925, -3.7022901
0.4065882, -0.0169528, 3.456, 0.0335083, 3.456, -1.008606, 3.456, -0.1069336, 3.456, 0.8854962, 3.456, 0.6717557, 3.456, -3.6946564
0.4073824, -0.0152743, 3.46275, 0.0372925, 3.46275, -1.0092773, 3.46275, -0.1090698, 3.46275, 0.7709923, 3.46275, 0.5572519, 3.46275, -3.5725191
0.4081765, -0.0159457, 3.4695, 0.0385132, 3.4695, -1.0071411, 3.4695, -0.1102905, 3.4695, 0.6259542, 3.4695, 0.6412213, 3.4695, -3.5419848
0.4089706, -0.0139315, 3.47625, 0.0392456, 3.47625, -1.0053711, 3.47625, -0.1072998, 3.47625, 0.5877863, 3.47625, 0.519084, 3.47625, -3.5877862
0.4097647, -0.0142672, 3.483, 0.039856, 3.483, -1.0070801, 3.483, -0.1057129, 3.483, 0.7633588, 3.483, 0.5572519, 3.483, -3.6564887
0.4105588, -0.0142672, 3.48975, 0.0424805, 3.48975, -1.008606, 3.48975, -0.1012573, 3.48975, 0.7480916, 3.48975, 1.0076336, 3.48975, -3.740458
0.4113529, -0.0186313, 3.4965, 0.0442505, 3.4965, -1.0101318, 3.4965, -0.1087036, 3.4965, 0.9007633, 3.4965, 0.8396947, 3.4965, -3.6870229
0.4121471, -0.0206455, 3.50325, 0.0410767, 3.50325, -1.0082397, 3.50325, -0.1087036, 3.50325, 0.8015267, 3.50325, 0.6717557, 3.50325, -3.6641221
0.4129412, -0.0179599, 3.51, 0.0388794, 3.51, -1.0107422, 3.51, -0.1049194, 3.51, 0.9160305, 3.51, 0.8854962, 3.51, -3.7328243
0.4137353, -0.0157778, 3.51675, 0.0368042, 3.51675, -1.0058594, 3.51675, -0.1052246, 3.51675, 1.2977099, 3.51675, 0.8244275, 3.51675, -3.961832
0.4145294, -0.0159457, 3.5235, 0.0388794, 3.5235, -1.0070801, 3.5235, -0.1049805, 3.5235, 1.4198474, 3.5235, 0.7557252, 3.5235, -3.9007633
0.4153235, -0.0152743, 3.53025, 0.0355835, 3.53025, -1.0026855, 3.53025, -0.1053467, 3.53025, 1.2290076, 3.53025, 0.7862595, 3.53025, -3.8244274
0.4161176, -0.0139315, 3.537, 0.0367432, 3.537, -1.0036621, 3.537, -0.1033936, 3.537, 1.2290076, 3.537, 0.7862595, 3.537, -3.7251909
0.4169118, -0.0112459, 3.54375, 0.0377808, 3.54375, -1.006897, 3.54375, -0.1070557, 3.54375, 1.1679389, 3.54375, 0.8167939, 3.54375, -3.6183207
0.4177059, -0.0109102, 3.5505, 0.0361328, 3.5505, -1.0038452, 3.5505, -0.1071777, 3.5505, 1.4351145, 3.5505, 0.7938932, 3.5505, -3.648855
0.4185, -0.0139315, 3.55725, 0.0390015, 3.55725, -1.0019531, 3.55725, -0.1048584, 3.55725, 1.3358779, 3.55725, 0.8396947, 3.55725, -3.5954199
0.4192941, -0.0109102, 3.564, 0.0436401, 3.564, -1.0048828, 3.564, -0.1000366, 3.564, 0.6946565, 3.564, 0.8473282, 3.564, -3.5496182
0.4200882, -0.0104067, 3.57075, 0.0409546, 3.57075, -1.0001221, 3.57075, -0.1032715, 3.57075, 0.4503817, 3.57075, 0.4503817, 3.57075, -3.5801528
0.4208824, -0.0109102, 3.5775, 0.0437012, 3.5775, -1.0044556, 3.5775, -0.105835, 3.5775, 0.4961832, 3.5775, 0.4732825, 3.5775, -3.4580152
0.4216765, -0.0092317, 3.58425, 0.041626, 3.58425, -1.008667, 3.58425, -0.1013794, 3.58425, 0.6335878, 3.58425, 0.3053435, 3.58425, -3.5496182
0.4224706, -0.0075532, 3.591, 0.0430298, 3.591, -1.012085, 3.591, -0.1022949, 3.591, 0.8244275, 3.591, 0.908397, 3.591, -3.7862597
0.4232647, -0.0063783, 3.59775, 0.0474854, 3.59775, -1.0109863, 3.59775, -0.1044922, 3.59775, 0.4274809, 3.59775, 1.2442749, 3.59775, -3.3587787
0.4240588, -0.0077211, 3.6045, 0.0447998, 3.6045, -1.0062866, 3.6045, -0.1098022, 3.6045, 0.3816794, 3.6045, 1.3282443, 3.6045, -3.5343511
0.4248529, -0.0078889, 3.61125, 0.0390015, 3.61125, -1.0053101, 3.61125, -0.1102905, 3.61125, 0.2442748, 3.61125, 1.1221374, 3.61125, -3.2137403
0.4256471, -0.0105745, 3.618, 0.0359497, 3.618, -1.0043335, 3.618, -0.1113892, 3.618, 0.0534351, 3.618, 1.091603, 3.618, -3.221374
0.4264412, -0.0157778, 3.62475, 0.0396118, 3.62475, -1.0076294, 3.62475, -0.1082153, 3.62475, 0.3435115, 3.62475, 1.2442749, 3.62475, -3.3053436
0.4272353, -0.01561, 3.6315, 0.0368042, 3.6315, -1.0097046, 3.6315, -0.1112671, 3.6315, 0.0839695, 3.6315, 1.3740458, 3.6315, -3.2671757
0.4280294, -0.0142672, 3.63825, 0.0390015, 3.63825, -1.0073242, 3.63825, -0.1050415, 3.63825, -0.3969466, 3.63825, 1.3816794, 3.63825, -3.1145039
0.4288235, -0.0176242, 3.645, 0.0428467, 3.645, -1.0064087, 3.645, -0.1018677, 3.645, -0.610687, 3.645, 1.2671756, 3.645, -2.9007633
0.4296176, -0.0182956, 3.65175, 0.0492554, 3.65175, -1.0078735, 3.65175, -0.0977783, 3.65175, -0.3664122, 3.65175, 1.7480916, 3.65175, -2.870229
0.4304118, -0.0157778, 3.6585, 0.0508423, 3.6585, -1.0057983, 3.6585, -0.1026611, 3.6585, -0.0381679, 3.6585, 1.961832, 3.6585, -2.9694657
0.4312059, -0.0169528, 3.66525, 0.043335, 3.66525, -1.0040894, 3.66525, -0.1080933, 3.66525, -0.2900763, 3.66525, 2.0152671, 3.66525, -2.9236641
0.432, -0.0179599, 3.672, 0.0400391, 3.672, -1.0062256, 3.672, -0.1027222, 3.672, -0.2671756, 3.672, 2.2977099, 3.672, -2.9160306
0.4327941, -0.0199741, 3.67875, 0.031311, 3.67875, -1.0047607, 3.67875, -0.1085205, 3.67875, -0.0229008, 3.67875, 2.2137403, 3.67875, -2.9160306
0.4335882, -0.0179599, 3.6855, 0.0308228, 3.6855, -1.0083618, 3.6855, -0.1055298, 3.6855, -0.1145038, 3.6855, 2.0076337, 3.6855, -3.091603
0.4343824, -0.0135958, 3.69225, 0.0315552, 3.69225, -1.006897, 3.69225, -0.1078491, 3.69225, -0.1679389, 3.69225, 1.6717557, 3.69225, -3.0534351
0.4351765, -0.0129244, 3.699, 0.0287476, 3.699, -1.0080566, 3.699, -0.1129761, 3.699, -0.1374046, 3.699, 1.6641221, 3.699, -2.9312978
0.4359706, -0.0104067, 3.70575, 0.0315552, 3.70575, -1.0067139, 3.70575, -0.112915, 3.70575, -0.2061069, 3.70575, 1.5801526, 3.70575, -2.8549619
0.4367647, -0.0099031, 3.7125, 0.0336304, 3.7125, -1.0070801, 3.7125, -0.1124878, 3.7125, 0.0076336, 3.7125, 1.2748091, 3.7125, -2.7251909
0.4375588, -0.0075532, 3.71925, 0.0332642, 3.71925, -1.0072632, 3.71925, -0.1188965, 3.71925, -0.351145, 3.71925, 1.480916, 3.71925, -2.8091602
0.4383529, -0.0062104, 3.726, 0.0386963, 3.726, -1.008606, 3.726, -0.1207886, 3.726, -0.2748092, 3.726, 1.3358779, 3.726, -2.7938931
0.4391471, -0.0092317, 3.73275, 0.0432129, 3.73275, -1.0095215, 3.73275, -0.1132812, 3.73275, -0.2977099, 3.73275, 1.3206106, 3.73275, -2.8931298
0.4399412, -0.0095674, 3.7395, 0.043457, 3.7395, -1.0102539, 3.7395, -0.1146851, 3.7395, -0.1145038, 3.7395, 1.3435115, 3.7395, -2.778626
0.4407353, -0.0099031, 3.74625, 0.0460815, 3.74625, -1.0126343, 3.74625, -0.1160278, 3.74625, 0.2137405, 3.74625, 1.4503816, 3.74625, -2.9465649
0.4415294, -0.0102388, 3.753, 0.0441895, 3.753, -1.0076904, 3.753, -0.1173706, 3.753, 0.4274809, 3.753, 1.7557251, 3.753, -3.1221373
0.4423235, -0.0082246, 3.75975, 0.0392456, 3.75975, -1.0092773, 3.75975, -0.1125488, 3.75975, -0.0076336, 3.75975, 1.8931298, 3.75975, -2.8854961
0.4431176, -0.0105745, 3.7665, 0.0355835, 3.7665, -1.0042114, 3.7665, -0.1088257, 3.7665, 0.0992366, 3.7665, 1.8244275, 3.7665, -3.0534351
0.4439118, -0.0112459, 3.77325, 0.0330811, 3.77325, -1.0078735, 3.77325, -0.1102295, 3.77325, 0.6564885, 3.77325, 1.480916, 3.77325, -3.0534351
0.4447059, -0.0135958, 3.78, 0.0327759, 3.78, -1.00177, 3.78, -0.112915, 3.78, 0.5877863, 3.78, 1.4656489, 3.78, -3.1526718
0.4455, -0.0151064, 3.78675, 0.0336304, 3.78675, -1.0029297, 3.78675, -0.1159058, 3.78675, 0.5801527, 3.78675, 1.1145039, 3.78675, -3.2366412
0.4462941, -0.0149386, 3.7935, 0.0283813, 3.7935, -1.0040894, 3.7935, -0.1193848, 3.7935, 0.4885496, 3.7935, 1.1755725, 3.7935, -3.221374
0.4470882, -0.0124208, 3.80025, 0.0297241, 3.80025, -1.0067139, 3.80025, -0.1146851, 3.80025, 0.4351145, 3.80025, 1.2900764, 3.80025, -3.0305343
0.4478824, -0.0135958, 3.807, 0.0320435, 3.807, -1.0096436, 3.807, -0.1173706, 3.807, 0.5954198, 3.807, 1.3053435, 3.807, -3.1984732
0.4486765, -0.0152743, 3.81375, 0.0321045, 3.81375, -1.0124512, 3.81375, -0.1147461, 3.81375, 0.6793893, 3.81375, 1.4885496, 3.81375, -3.2137403
0.4494706, -0.0140993, 3.8205, 0.0298462, 3.8205, -1.0114746, 3.8205, -0.1141968, 3.8205, 0.6412213, 3.8205, 1.740458, 3.8205, -3.221374
0.4502647, -0.0193027, 3.82725, 0.0354004, 3.82725, -1.0112305, 3.82725, -0.112854, 3.82725, 0.7633588, 3.82725, 1.5038168, 3.82725, -3.1755726
0.4510588, -0.0172885, 3.834, 0.0388794, 3.834, -1.0117188, 3.834, -0.1226807, 3.834, 0.7099237, 3.834, 1.3740458, 3.834, -3.3129771
0.4518529, -0.0176242, 3.84075, 0.0422974, 3.84075, -1.0108643, 3.84075, -0.1269531, 3.84075, 0.6259542, 3.84075, 1.3358779, 3.84075, -3.0992367
0.4526471, -0.0208133, 3.8475, 0.0421143, 3.8475, -1.010376, 3.8475, -0.1276245, 3.8475, 0.3435115, 3.8475, 1.3664122, 3.8475, -3.259542
0.4534412, -0.0226596, 3.85425, 0.0386963, 3.85425, -1.012207, 3.85425, -0.1241455, 3.85425, 0.4198473, 3.85425, 1.4122137, 3.85425, -3.1374047
0.4542353, -0.0196384, 3.861, 0.0400391, 3.861, -1.0130005, 3.861, -0.1229248, 3.861, 0.8931298, 3.861, 1.519084, 3.861, -3.1908398
0.4550294, -0.0191348, 3.86775, 0.0441284, 3.86775, -1.0110474, 3.86775, -0.1213989, 3.86775, 1.3358779, 3.86775, 1.4351145, 3.86775, -3.3740458
0.4558235, -0.0179599, 3.8745, 0.0428467, 3.8745, -1.0147705, 3.8745, -0.124939, 3.8745, 1.3969465, 3.8745, 1.4961832, 3.8745, -3.4045801
0.4566176, -0.0162814, 3.88125, 0.0402832, 3.88125, -1.0125122, 3.88125, -0.1270142, 3.88125, 1.6641221, 3.88125, 1.5725191, 3.88125, -3.1984732
0.4574118, -0.01561, 3.888, 0.038147, 3.888, -1.0119019, 3.888, -0.1256714, 3.888, 1.9770992, 3.888, 1.6717557, 3.888, -3.2748091
0.4582059, -0.0135958, 3.89475, 0.03479, 3.89475, -1.0112915, 3.89475, -0.1260986, 3.89475, 2.2137403, 3.89475, 2, 3.89475, -3.3282442
0.459, -0.0140993, 3.9015, 0.0308228, 3.9015, -1.0098877, 3.9015, -0.1273193, 3.9015, 2.038168, 3.9015, 2.1603053, 3.9015, -3.091603
0.4597941, -0.0130922, 3.90825, 0.0288696, 3.90825, -1.005188, 3.90825, -0.125061, 3.90825, 2.2137403, 3.90825, 1.7709924, 3.90825, -3.2442749
0.4605882, -0.0132601, 3.915, 0.0302734, 3.915, -1.0026855, 3.915, -0.1213989, 3.915, 2.4732823, 3.915, 1.6335878, 3.915, -3.0763359
0.4613824, -0.0135958, 3.92175, 0.0275879, 3.92175, -1.0072632, 3.92175, -0.1159058, 3.92175, 2.7022901, 3.92175, 1.351145, 3.92175, -3.2442749
0.4621765, -0.0149386, 3.9285, 0.0299683, 3.9285, -1.0046387, 3.9285, -0.116394, 3.9285, 2.9465649, 3.9285, 1.0305344, 3.9285, -3.3129771
0.4629706, -0.0129244, 3.93525, 0.0291748, 3.93525, -1.0053101, 3.93525, -0.114563, 3.93525, 2.961832, 3.93525, 0.8931298, 3.93525, -3.4427481
0.4637647, -0.012253, 3.942, 0.0297241, 3.942, -1.0057983, 3.942, -0.1126099, 3.942, 3.1145039, 3.942, 0.6335878, 3.942, -3.3969467
0.4645588, -0.0109102, 3.94875, 0.034729, 3.94875, -1.0100708, 3.94875, -0.1106567, 3.94875, 3.3969467, 3.94875, 0.6030535, 3.94875, -3.259542
0.4653529, -0.0142672, 3.9555, 0.0372925, 3.9555, -1.0125732, 3.9555, -0.1140747, 3.9555, 3.610687, 3.9555, 0.7862595, 3.9555, -3.3587787
0.4661471, -0.0149386, 3.96225, 0.0313721, 3.96225, -1.0114136, 3.96225, -0.1138306, 3.96225, 3.6717558, 3.96225, 0.3129771, 3.96225, -3.6259542
0.4669412, -0.0142672, 3.969, 0.0305786, 3.969, -1.0100098, 3.969, -0.1139526, 3.969, 3.5419848, 3.969, 0.2824427, 3.969, -3.610687
0.4677353, -0.012253, 3.97575, 0.0291748, 3.97575, -1.0137329, 3.97575, -0.1149292, 3.97575, 3.4580152, 3.97575, 0.1603053, 3.97575, -3.7557251
0.4685294, -0.008896, 3.9825, 0.0319214, 3.9825, -1.0118408, 3.9825, -0.112793, 3.9825, 3.6870229, 3.9825, -0.1221374, 3.9825, -3.6030533
0.4693235, -0.0082246, 3.98925, 0.0293579, 3.98925, -1.0114136, 3.98925, -0.1141968, 3.98925, 3.5648854, 3.98925, -0.2824427, 3.98925, -3.6793892
0.4701176, -0.0109102, 3.996, 0.032959, 3.996, -1.0059204, 3.996, -0.1120605, 3.996, 3.7099237, 3.996, -0.4045801, 3.996, -3.6564887
0.4709118, -0.0095674, 4.00275, 0.0353394, 4.00275, -1.0038452, 4.00275, -0.1138306, 4.00275, 3.7480917, 4.00275, -0.7862595, 4.00275, -3.8625953
0.4717059, -0.0072175, 4.0095, 0.0368652, 4.0095, -1.0057983, 4.0095, -0.1082764, 4.0095, 3.7480917, 4.0095, -0.7862595, 4.0095, -3.7709923
0.4725, -0.0087282, 4.01625, 0.0400391, 4.01625, -1.0057983, 4.01625, -0.107666, 4.01625, 3.8778627, 4.01625, -1.1068702, 4.01625, -3.8549619
0.4732941, -0.0109102, 4.023, 0.0388184, 4.023, -1.0072632, 4.023, -0.1096802, 4.023, 4.0763359, 4.023, -0.9694657, 4.023, -3.7175572
0.4740882, -0.012253, 4.02975, 0.0408325, 4.02975, -1.0066528, 4.02975, -0.1079102, 4.02975, 3.9694657, 4.02975, -0.8244275, 4.02975, -3.7557251
0.4748824, -0.0139315, 4.0365, 0.0448608, 4.0365, -1.0028076, 4.0365, -0.1063232, 4.0365, 3.8854961, 4.0365, -0.778626, 4.0365, -3.778626
0.4756765, -0.0161135, 4.04325, 0.0402832, 4.04325, -1.0060425, 4.04325, -0.1074219, 4.04325, 3.9312978, 4.04325, -0.5267175, 4.04325, -3.8015268
0.4764706, -0.01561, 4.05, 0.0410156, 4.05, -1.0084839, 4.05, -0.100647, 4.05, 3.7862597, 4.05, -0.2900763, 4.05, -3.778626
0.4772647, -0.0166171, 4.05675, 0.0370483, 4.05675, -1.0056152, 4.05675, -0.1020508, 4.05675, 4, 4.05675, -0.3053435, 4.05675, -3.6259542
0.4780588, -0.0240024, 4.0635, 0.0344238, 4.0635, -1.0028076, 4.0635, -0.105835, 4.0635, 3.9389312, 4.0635, -0.5648855, 4.0635, -3.8625953
0.4788529, -0.0229953, 4.07025, 0.0339355, 4.07025, -1.0009766, 4.07025, -0.1039429, 4.07025, 3.7328243, 4.07025, -0.7251908, 4.07025, -3.610687
0.4796471, -0.0166171, 4.077, 0.0379028, 4.077, -1.0032349, 4.077, -0.0953369, 4.077, 3.7251909, 4.077, -0.8854962, 4.077, -3.6793892
0.4804412, -0.0166171, 4.08375, 0.0400391, 4.08375, -1.0011597, 4.08375, -0.097229, 4.08375, 3.5038168, 4.08375, -1.1374046, 4.08375, -3.5572519
0.4812353, -0.0191348, 4.0905, 0.0458374, 4.0905, -1.005249, 4.0905, -0.0922241, 4.0905, 3.5801528, 4.0905, -0.961832, 4.0905, -3.6946564
0.4820294, -0.0171206, 4.09725, 0.0495605, 4.09725, -1.0083618, 4.09725, -0.0930786, 4.09725, 3.1679389, 4.09725, -0.6946565, 4.09725, -3.6641221
0.4828235, -0.0149386, 4.104, 0.0509033, 4.104, -1.0092773, 4.104, -0.0932007, 4.104, 2.9694657, 4.104, -0.5572519, 4.104, -3.6717558
0.4836176, -0.0169528, 4.11075, 0.0479736, 4.11075, -1.0079346, 4.11075, -0.093689, 4.11075, 3.0076337, 4.11075, -0.2366412, 4.11075, -3.4427481
0.4844118, -0.0169528, 4.1175, 0.0482178, 4.1175, -1.0049438, 4.1175, -0.0947266, 4.1175, 2.9541984, 4.1175, 0.0534351, 4.1175, -3.480916
0.4852059, -0.01561, 4.12425, 0.0455933, 4.12425, -1.00354, 4.12425, -0.0975952, 4.12425, 2.8854961, 4.12425, -0.2900763, 4.12425, -3.4503818
0.486, -0.0166171, 4.131, 0.0438843, 4.131, -1.0042725, 4.131, -0.0982056, 4.131, 2.8778627, 4.131, -0.3816794, 4.131, -3.4045801
0.4867941, -0.0146029, 4.13775, 0.0446777, 4.13775, -1.0064697, 4.13775, -0.0995483, 4.13775, 2.9694657, 4.13775, -0.6564885, 4.13775, -3.4961832
0.4875882, -0.0132601, 4.1445, 0.0408325, 4.1445, -1.0056763, 4.1445, -0.0996094, 4.1445, 3.0305343, 4.1445, -0.9465649, 4.1445, -3.3816793
0.4883824, -0.0129244, 4.15125, 0.0432129, 4.15125, -1.0023804, 4.15125, -0.1035156, 4.15125, 3, 4.15125, -0.9541985, 4.15125, -3.389313
0.4891765, -0.0135958, 4.158, 0.0387573, 4.158, -1.0025024, 4.158, -0.0965576, 4.158, 2.8396947, 4.158, -0.8625954, 4.158, -3.3435113
0.4899706, -0.0119173, 4.16475, 0.0431519, 4.16475, -1.0021362, 4.16475, -0.097168, 4.16475, 2.9389312, 4.16475, -0.9465649, 4.16475, -3.3435113
0.4907647, -0.0102388, 4.1715, 0.0415649, 4.1715, -1.0021973, 4.1715, -0.098938, 4.1715, 2.9923663, 4.1715, -1.0534351, 4.1715, -3.351145
0.4915588, -0.0140993, 4.17825, 0.0429077, 4.17825, -1.0024414, 4.17825, -0.0982666, 4.17825, 2.6793892, 4.17825, -0.8015267, 4.17825, -3.1450381
0.4923529, -0.0125887, 4.185, 0.0424805, 4.185, -1.0042114, 4.185, -0.0942383, 4.185, 2.6412213, 4.185, -0.7328244, 4.185, -3.0763359
0.4931471, -0.0124208, 4.19175, 0.0409546, 4.19175, -1.0067139, 4.19175, -0.0925293, 4.19175, 2.610687, 4.19175, -0.648855, 4.19175, -2.8549619
0.4939412, -0.0159457, 4.1985, 0.0459595, 4.1985, -1.008606, 4.1985, -0.0916748, 4.1985, 2.4045801, 4.1985, -0.5877863, 4.1985, -2.9389312
0.4947353, -0.0176242, 4.20525, 0.0471191, 4.20525, -1.0103149, 4.20525, -0.09729, 4.20525, 2.5496182, 4.20525, -0.3740458, 4.20525, -2.908397
0.4955294, -0.0162814, 4.212, 0.0475464, 4.212, -1.008728, 4.212, -0.0987549, 4.212, 2.4427481, 4.212, -0.0458015, 4.212, -2.7709923
0.4963235, -0.0203098, 4.21875, 0.0421143, 4.21875, -1.0075073, 4.21875, -0.0986328, 4.21875, 2.0229008, 4.21875, 0.1526718, 4.21875, -2.6641221
0.4971176, -0.0201419, 4.2255, 0.0408325, 4.2255, -1.0100708, 4.2255, -0.0979004, 4.2255, 2.0305343, 4.2255, 0.1526718, 4.2255, -2.6030533
0.4979118, -0.0179599, 4.23225, 0.0401611, 4.23225, -1.0072632, 4.23225, -0.0992432, 4.23225, 2.1679389, 4.23225, 0.2748092, 4.23225, -2.6870229
0.4987059, -0.0164492, 4.239, 0.0429688, 4.239, -1.0013428, 4.239, -0.1019897, 4.239, 2.129771, 4.239, 0.3587786, 4.239, -2.5419848
0.4995, -0.018967, 4.24575, 0.0432129, 4.24575, -0.9994507, 4.24575, -0.1005249, 4.24575, 1.9770992, 4.24575, 0.2900763, 4.24575, -2.4045801
0.5002941, -0.0203098, 4.2525, 0.0427246, 4.2525, -0.9998779, 4.2525, -0.0967407, 4.2525, 1.8473282, 4.2525, 0.3282443, 4.2525, -2.3282442
0.5010882, -0.0193027, 4.25925, 0.0439453, 4.25925, -1.0041504, 4.25925, -0.0979614, 4.25925, 2.1984732, 4.25925, 0.2290076, 4.25925, -2.4503818
0.5018824, -0.0172885, 4.266, 0.0443726, 4.266, -1.0063477, 4.266, -0.0971069, 4.266, 2.259542, 4.266, 0.2900763, 4.266, -2.4656489
0.5026765, -0.0157778, 4.27275, 0.0446167, 4.27275, -1.0049438, 4.27275, -0.0960693, 4.27275, 2.1603053, 4.27275, 0.5877863, 4.27275, -2.3206108
0.5034706, -0.0142672, 4.2795, 0.0428467, 4.2795, -1.008606, 4.2795, -0.0931396, 4.2795, 2.1679389, 4.2795, 0.9236641, 4.2795, -2.2519083
0.5042647, -0.0140993, 4.28625, 0.0449829, 4.28625, -1.0059814, 4.28625, -0.0927734, 4.28625, 2.1908398, 4.28625, 0.8320611, 4.28625, -2.3206108
0.5050588, -0.014435, 4.293, 0.0415649, 4.293, -1.0064087, 4.293, -0.098938, 4.293, 2.5267177, 4.293, 0.4656489, 4.293, -2.4503818
0.5058529, -0.0149386, 4.29975, 0.0411377, 4.29975, -1.0040283, 4.29975, -0.1068726, 4.29975, 2.6641221, 4.29975, 0.6946565, 4.29975, -2.519084
0.5066471, -0.0151064, 4.3065, 0.0333862, 4.3065, -1.0078735, 4.3065, -0.1075439, 4.3065, 2.6564887, 4.3065, 0.7022901, 4.3065, -2.1755726
0.5074412, -0.0139315, 4.31325, 0.0351562, 4.31325, -1.0091553, 4.31325, -0.1051636, 4.31325, 2.5954199, 4.31325, 0.5114504, 4.31325, -1.9541985
0.5082353, -0.0115816, 4.32, 0.0357056, 4.32, -1.0040894, 4.32, -0.1026001, 4.32, 2.7175572, 4.32, 0.2900763, 4.32, -2.1374047
0.5090294, -0.0119173, 4.32675, 0.0354614, 4.32675, -1.0067139, 4.32675, -0.1026611, 4.32675, 2.7633588, 4.32675, 0.0839695, 4.32675, -2.1603053
0.5098235, -0.012253, 4.3335, 0.0367432, 4.3335, -1.0081787, 4.3335, -0.0979004, 4.3335, 3.0076337, 4.3335, -0.0992366, 4.3335, -2.2519083
0.5106176, -0.01561, 4.34025, 0.0400391, 4.34025, -1.0074463, 4.34025, -0.1053467, 4.34025, 3.0305343, 4.34025, 0.3206107, 4.34025, -2.1603053
0.5114118, -0.0219883, 4.347, 0.0419922, 4.347, -1.0043945, 4.347, -0.1030884, 4.347, 3.1145039, 4.347, -0.0458015, 4.347, -2.1908398
0.5122059, -0.0203098, 4.35375, 0.0397339, 4.35375, -1.0059204, 4.35375, -0.0979004, 4.35375, 2.9770992, 4.35375, -0.2061069, 4.35375, -2.0992367
0.513, -0.0172885, 4.3605, 0.0418701, 4.3605, -1.0083008, 4.3605, -0.0953979, 4.3605, 3.0992367, 4.3605, 0.0992366, 4.3605, -2.0610688
0.5137941, -0.01561, 4.36725, 0.0424194, 4.36725, -1.0094604, 4.36725, -0.0878906, 4.36725, 3, 4.36725, 0.2290076, 4.36725, -2.0687022
0.5145882, -0.0199741, 4.374, 0.0411377, 4.374, -1.0074463, 4.374, -0.0889893, 4.374, 3.1908398, 4.374, 0.4198473, 4.374, -2.2061069
0.5153824, -0.0203098, 4.38075, 0.0356445, 4.38075, -1.0043335, 4.38075, -0.0916748, 4.38075, 3.0458016, 4.38075, 0.4580153, 4.38075, -2.3816793
0.5161765, -0.0154421, 4.3875, 0.0296631, 4.3875, -1.0045166, 4.3875, -0.0910034, 4.3875, 2.9694657, 4.3875, 0.8931298, 4.3875, -1.9847329
0.5169706, -0.01561, 4.39425, 0.0283203, 4.39425, -1.0081177, 4.39425, -0.0910645, 4.39425, 2.8778627, 4.39425, 0.9007633, 4.39425, -2.038168
0.5177647, -0.0157778, 4.401, 0.0323486, 4.401, -1.0033569, 4.401, -0.0950317, 4.401, 2.9236641, 4.401, 0.7099237, 4.401, -2.0076337
0.5185588, -0.0162814, 4.40775, 0.0340576, 4.40775, -1.0028076, 4.40775, -0.0932007, 4.40775, 2.9465649, 4.40775, 0.6717557, 4.40775, -2.0763359
0.5193529, -0.0149386, 4.4145, 0.0338135, 4.4145, -1.0073853, 4.4145, -0.0940552, 4.4145, 2.4885497, 4.4145, 0.870229, 4.4145, -1.8549619
0.5201471, -0.0139315, 4.42125, 0.0350342, 4.42125, -1.0073242, 4.42125, -0.0980225, 4.42125, 2.351145, 4.42125, 0.908397, 4.42125, -1.6946565
0.5209412, -0.011078, 4.428, 0.0390015, 4.428, -1.0106201, 4.428, -0.0970459, 4.428, 2.3664122, 4.428, 1.1526718, 4.428, -1.5725191
0.5217353, -0.0129244, 4.43475, 0.0393066, 4.43475, -1.0033569, 4.43475, -0.1002808, 4.43475, 2.389313, 4.43475, 1.259542, 4.43475, -1.4656489
0.5225294, -0.0140993, 4.4415, 0.0410156, 4.4415, -1.0043945, 4.4415, -0.0942383, 4.4415, 2.1679389, 4.4415, 1.2671756, 4.4415, -1.5267175
0.5233235, -0.0092317, 4.44825, 0.0388184, 4.44825, -1.0039673, 4.44825, -0.0878906, 4.44825, 2.3664122, 4.44825, 1.2977099, 4.44825, -1.6946565
0.5241176, -0.0062104, 4.455, 0.0360718, 4.455, -1.0053101, 4.455, -0.0931396, 4.455, 2.2824428, 4.455, 1.2061069, 4.455, -1.6412214
0.5249118, -0.0102388, 4.46175, 0.0358887, 4.46175, -1.0099487, 4.46175, -0.0922241, 4.46175, 2.5496182, 4.46175, 0.9389313, 4.46175, -1.9160305
0.5257059, -0.012253, 4.4685, 0.036377, 4.4685, -1.0083008, 4.4685, -0.0894165, 4.4685, 2.7862597, 4.4685, 1.1755725, 4.4685, -1.740458
0.5265, -0.0135958, 4.47525, 0.0320435, 4.47525, -1.0067139, 4.47525, -0.0946045, 4.47525, 2.8473282, 4.47525, 1.2061069, 4.47525, -1.8320611
0.5272941, -0.012253, 4.482, 0.0264893, 4.482, -1.0076294, 4.482, -0.0951538, 4.482, 2.6946564, 4.482, 1.1755725, 4.482, -1.9923664
0.5280882, -0.0102388, 4.48875, 0.0222168, 4.48875, -1.0107422, 4.48875, -0.0958252, 4.48875, 2.7557251, 4.48875, 0.6870229, 4.48875, -1.9465649
0.5288824, -0.0095674, 4.4955, 0.0216064, 4.4955, -1.0100098, 4.4955, -0.0911865, 4.4955, 2.6946564, 4.4955, 0.2442748, 4.4955, -1.870229
0.5296765, -0.0117494, 4.50225, 0.0237427, 4.50225, -1.0067139, 4.50225, -0.0903931, 4.50225, 2.7938931, 4.50225, -0.3053435, 4.50225, -2.0458016
0.5304706, -0.0095674, 4.509, 0.0274048, 4.509, -1.0073853, 4.509, -0.0863037, 4.509, 3.038168, 4.509, -0.8244275, 4.509, -1.9694656
0.5312647, -0.0075532, 4.51575, 0.0294189, 4.51575, -1.0050049, 4.51575, -0.0864868, 4.51575, 2.9694657, 4.51575, -0.9312977, 4.51575, -2.1374047
0.5320588, -0.0099031, 4.5225, 0.0351562, 4.5225, -1.0092773, 4.5225, -0.0845337, 4.5225, 3.2900763, 4.5225, -0.8167939, 4.5225, -2.221374
0.5328529, -0.0129244, 4.52925, 0.0365601, 4.52925, -1.0092773, 4.52925, -0.0847778, 4.52925, 3.2519083, 4.52925, -0.4656489, 4.52925, -2.4274809
0.5336471, -0.0135958, 4.536, 0.0389404, 4.536, -1.0061035, 4.536, -0.0883789, 4.536, 3.389313, 4.536, -0.2366412, 4.536, -2.4656489
0.5344412, -0.0112459, 4.54275, 0.0285034, 4.54275, -1.0028687, 4.54275, -0.0922241, 4.54275, 3.4122138, 4.54275, -0.0763359, 4.54275, -2.519084
0.5352353, -0.0119173, 4.5495, 0.024353, 4.5495, -1.0100708, 4.5495, -0.0869751, 4.5495, 3.4503818, 4.5495, -0.2442748, 4.5495, -2.6030533
0.5360294, -0.0115816, 4.55625, 0.0193481, 4.55625, -1.0096436, 4.55625, -0.0897827, 4.55625, 3.6793892, 4.55625, -0.389313, 4.55625, -2.7862597
0.5368235, -0.0146029, 4.563, 0.0187988, 4.563, -1.0090332, 4.563, -0.0928345, 4.563, 4.1984735, 4.563, -0.4732825, 4.563, -2.5877862
0.5376176, -0.0191348, 4.56975, 0.0176392, 4.56975, -1.0073853, 4.56975, -0.100647, 4.56975, 3.6412213, 4.56975, -0.5496183, 4.56975, -2.7099237
0.5384118, -0.01561, 4.5765, 0.0159912, 4.5765, -1.0134888, 4.5765, -0.0942993, 4.5765, 3.259542, 4.5765, -0.5267175, 4.5765, -2.5801528
0.5392059, -0.0129244, 4.58325, 0.0161133, 4.58325, -1.0096436, 4.58325, -0.0914307, 4.58325, 2.6946564, 4.58325, -0.8396947, 4.58325, -2.5572519
0.54, -0.0135958, 4.59, 0.0227051, 4.59, -1.0114136, 4.59, -0.0980835, 4.59, 2.5648854, 4.59, -1.389313, 4.59, -2.8167939
0.5407941, -0.0162814, 4.59675, 0.0308838, 4.59675, -1.012146, 4.59675, -0.0971069, 4.59675, 2.6641221, 4.59675, -1.519084, 4.59675, -2.7862597
0.5415882, -0.01561, 4.6035, 0.0334473, 4.6035, -1.0133667, 4.6035, -0.0913696, 4.6035, 2.7480917, 4.6035, -1.519084, 4.6035, -2.6641221
0.5423824, -0.0117494, 4.61025, 0.0327759, 4.61025, -1.0159912, 4.61025, -0.0942383, 4.61025, 2.6335878, 4.61025, -1.0992366, 4.61025, -2.8549619
0.5431765, -0.0139315, 4.617, 0.0354004, 4.617, -1.0106201, 4.617, -0.0946655, 4.617, 2.6183207, 4.617, -0.6870229, 4.617, -2.9465649
0.5439706, -0.0142672, 4.62375, 0.0336914, 4.62375, -1.0075073, 4.62375, -0.0936279, 4.62375, 2.7709923, 4.62375, -0.6030535, 4.62375, -3.0076337
0.5447647, -0.0146029, 4.6305, 0.034668, 4.6305, -1.0112915, 4.6305, -0.0939941, 4.6305, 2.9541984, 4.6305, -0.6335878, 4.6305, -3.091603
0.5455588, -0.0172885, 4.63725, 0.0326538, 4.63725, -1.0094604, 4.63725, -0.0966187, 4.63725, 3.3435113, 4.63725, -0.7709923, 4.63725, -3.2519083
0.5463529, -0.0176242, 4.644, 0.0304565, 4.644, -1.0059814, 4.644, -0.09552, 4.644, 3.1984732, 4.644, -0.7251908, 4.644, -3.3358779
0.5471471, -0.018967, 4.65075, 0.0285645, 4.65075, -1.0117188, 4.65075, -0.0960693, 4.65075, 3.2061069, 4.65075, -0.4274809, 4.65075, -3.2290077
0.5479412, -0.018967, 4.6575, 0.0263062, 4.6575, -1.012146, 4.6575, -0.0921021, 4.6575, 3.4122138, 4.6575, -0.4580153, 4.6575, -3.2290077
0.5487353, -0.0206455, 4.66425, 0.022644, 4.66425, -1.0100708, 4.66425, -0.0922241, 4.66425, 3.610687, 4.66425, -0.5496183, 4.66425, -3.3129771
0.5495294, -0.018967, 4.671, 0.0215454, 4.671, -1.007019, 4.671, -0.0947876, 4.671, 3.778626, 4.671, -0.870229, 4.671, -3.5114503
0.5503235, -0.0213169, 4.67775, 0.0177002, 4.67775, -1.0060425, 4.67775, -0.0912476, 4.67775, 3.6946564, 4.67775, -0.9770992, 4.67775, -3.5648854
0.5511176, -0.0231632, 4.6845, 0.020813, 4.6845, -1.0095825, 4.6845, -0.0883789, 4.6845, 3.8625953, 4.6845, -1.3358779, 4.6845, -3.6030533
0.5519118, -0.0179599, 4.69125, 0.0253296, 4.69125, -1.0075684, 4.69125, -0.0908813, 4.69125, 3.9160306, 4.69125, -1.5801526, 4.69125, -3.6870229
0.5527059, -0.0146029, 4.698, 0.02771, 4.698, -1.0065308, 4.698, -0.09021, 4.698, 4.038168, 4.698, -1.7709924, 4.698, -3.7328243
0.5535, -0.017792, 4.70475, 0.02771, 4.70475, -1.0068359, 4.70475, -0.0900269, 4.70475, 3.7938931, 4.70475, -1.6793894, 4.70475, -3.5954199
0.5542941, -0.0164492, 4.7115, 0.0307617, 4.7115, -1.0049438, 4.7115, -0.0853882, 4.7115, 3.6946564, 4.7115, -1.5954199, 4.7115, -3.8091602
0.5550882, -0.0129244, 4.71825, 0.0324707, 4.71825, -1.0064087, 4.71825, -0.0872803, 4.71825, 3.7022901, 4.71825, -1.4351145, 4.71825, -3.7480917
0.5558824, -0.0112459, 4.725, 0.0378418, 4.725, -1.0073853, 4.725, -0.0847778, 4.725, 3.6030533, 4.725, -1.5419847, 4.725, -3.7557251
0.5566765, -0.0105745, 4.73175, 0.0405884, 4.73175, -1.0073853, 4.73175, -0.0825195, 4.73175, 3.7709923, 4.73175, -1.8320611, 4.73175, -3.9694657
0.5574706, -0.0102388, 4.7385, 0.0413818, 4.7385, -1.0081787, 4.7385, -0.0844727, 4.7385, 4.0687022, 4.7385, -1.4198474, 4.7385, -3.9160306
0.5582647, -0.0119173, 4.74525, 0.0383301, 4.74525, -1.0095825, 4.74525, -0.0871582, 4.74525, 3.9847329, 4.74525, -1.1832061, 4.74525, -3.8320611
0.5590588, -0.0125887, 4.752, 0.0354614, 4.752, -1.0140991, 4.752, -0.0852051, 4.752, 4.2290077, 4.752, -0.8778626, 4.752, -3.8778627
0.5598529, -0.0135958, 4.75875, 0.0350952, 4.75875, -1.0151978, 4.75875, -0.0838013, 4.75875, 4.2671757, 4.75875, -0.8244275, 4.75875, -3.9236641
0.5606471, -0.0095674, 4.7655, 0.0336914, 4.7655, -1.0106201, 4.7655, -0.0824585, 4.7655, 4.3282442, 4.7655, -0.7557252, 4.7655, -4.0229006
0.5614412, -0.0109102, 4.77225, 0.0311279, 4.77225, -1.008667, 4.77225, -0.0917969, 4.77225, 4.3358779, 4.77225, -0.8091603, 4.77225, -3.6793892
0.5622353, -0.0115816, 4.779, 0.0349121, 4.779, -1.0093384, 4.779, -0.0916138, 4.779, 4.7938933, 4.779, -0.5419847, 4.779, -3.7557251
0.5630294, -0.0087282, 4.78575, 0.0358276, 4.78575, -1.0059814, 4.78575, -0.0862427, 4.78575, 4.9541984, 4.78575, -0.740458, 4.78575, -3.6030533
0.5638235, -0.0105745, 4.7925, 0.0378418, 4.7925, -1.003479, 4.7925, -0.0838623, 4.7925, 4.9236641, 4.7925, -1, 4.7925, -3.5954199
0.5646176, -0.0132601, 4.79925, 0.0377808, 4.79925, -1.0065918, 4.79925, -0.083374, 4.79925, 5.2442746, 4.79925, -0.7709923, 4.79925, -3.778626
0.5654118, -0.0132601, 4.806, 0.041626, 4.806, -1.0098267, 4.806, -0.0865479, 4.806, 5.1526718, 4.806, -0.5038168, 4.806, -3.778626
0.5662059, -0.0142672, 4.81275, 0.0401611, 4.81275, -1.0100098, 4.81275, -0.083374, 4.81275, 4.9389315, 4.81275, -0.1145038, 4.81275, -3.5877862
0.567, -0.0162814, 4.8195, 0.0415039, 4.8195, -1.0097656, 4.8195, -0.0778198, 4.8195, 4.9847326, 4.8195, 0.0763359, 4.8195, -3.6412213
0.5677941, -0.0135958, 4.82625, 0.036499, 4.82625, -1.0089722, 4.82625, -0.0778198, 4.82625, 4.9465647, 4.82625, 0.0305344, 4.82625, -3.7022901
0.5685882, -0.0142672, 4.833, 0.03302, 4.833, -1.0092163, 4.833, -0.0778198, 4.833, 5.0534353, 4.833, 0, 4.833, -3.740458
0.5693824, -0.0132601, 4.83975, 0.0310059, 4.83975, -1.0134888, 4.83975, -0.0827026, 4.83975, 4.4274807, 4.83975, 0.0458015, 4.83975, -3.6641221
0.5701765, -0.0135958, 4.8465, 0.0317383, 4.8465, -1.0078125, 4.8465, -0.0786133, 4.8465, 3.9923663, 4.8465, 0.3816794, 4.8465, -3.7022901
0.5709706, -0.0115816, 4.85325, 0.0333862, 4.85325, -1.0054932, 4.85325, -0.0774536, 4.85325, 3.9160306, 4.85325, 0.4274809, 4.85325, -3.5114503
0.5717647, -0.012253, 4.86, 0.0355835, 4.86, -1.0062866, 4.86, -0.0707397, 4.86, 3.6030533, 4.86, 0.2519084, 4.86, -3.4122138
0.5725588, -0.0129244, 4.86675, 0.0369263, 4.86675, -1.0070801, 4.86675, -0.0686646, 4.86675, 3.6717558, 4.86675, 0.1755725, 4.86675, -3.5496182
0.5733529, -0.0063783, 4.8735, 0.0356445, 4.8735, -1.0062866, 4.8735, -0.0697632, 4.8735, 3.7251909, 4.8735, 0.4351145, 4.8735, -3.5725191
0.5741471, -0.0068818, 4.88025, 0.038147, 4.88025, -1.005188, 4.88025, -0.0708618, 4.88025, 3.6717558, 4.88025, 0.961832, 4.88025, -3.5572519
0.5749412, -0.0082246, 4.887, 0.0394287, 4.887, -1.00354, 4.887, -0.0697021, 4.887, 3.3969467, 4.887, 1.0076336, 4.887, -3.4580152
0.5757353, -0.0085603, 4.89375, 0.0405273, 4.89375, -1.0028076, 4.89375, -0.0697632, 4.89375, 3.3969467, 4.89375, 1.2290076, 4.89375, -3.480916
0.5765294, -0.0072175, 4.9005, 0.0345459, 4.9005, -0.9998779, 4.9005, -0.0690918, 4.9005, 3.4198472, 4.9005, 1.3587786, 4.9005, -3.519084
0.5773235, -0.0070497, 4.90725, 0.0360718, 4.90725, -1.0026245, 4.90725, -0.0673828, 4.90725, 3.3206108, 4.90725, 1.4580153, 4.90725, -3.3282442
0.5781176, -0.008896, 4.914, 0.03302, 4.914, -1.0005493, 4.914, -0.0651855, 4.914, 3.3206108, 4.914, 1.7099236, 4.914, -3.1984732
0.5789118, -0.0072175, 4.92075, 0.03479, 4.92075, -1.0032349, 4.92075, -0.0658569, 4.92075, 3.259542, 4.92075, 1.870229, 4.92075, -3.091603
0.5797059, -0.0115816, 4.9275, 0.0374756, 4.9275, -1.0023193, 4.9275, -0.0628662, 4.9275, 3.1374047, 4.9275, 1.8167939, 4.9275, -3.3129771
0.5805, -0.0162814, 4.93425, 0.0349121, 4.93425, -1.0037842, 4.93425, -0.0649414, 4.93425, 3.091603, 4.93425, 1.3969465, 4.93425, -3.2442749
0.5812941, -0.01561, 4.941, 0.03302, 4.941, -1.0107422, 4.941, -0.0633545, 4.941, 2.9694657, 4.941, 1.2366412, 4.941, -3.1832061
0.5820882, -0.0159457, 4.94775, 0.0308228, 4.94775, -1.0067139, 4.94775, -0.0602417, 4.94775, 2.9160306, 4.94775, 1.2519084, 4.94775, -3.3816793
0.5828824, -0.0169528, 4.9545, 0.0300903, 4.9545, -1.0032959, 4.9545, -0.0585327, 4.9545, 3.0076337, 4.9545, 1.5801526, 4.9545, -3.3816793
0.5836765, -0.0182956, 4.96125, 0.0283203, 4.96125, -1.0046387, 4.96125, -0.0653687, 4.96125, 2.8015268, 4.96125, 1.5877863, 4.96125, -3.1908398
0.5844706, -0.0213169, 4.968, 0.0296021, 4.968, -1.0048218, 4.968, -0.0713501, 4.968, 2.4580152, 4.968, 1.5114504, 4.968, -3.1450381
0.5852647, -0.0219883, 4.97475, 0.029541, 4.97475, -1.0075684, 4.97475, -0.0697632, 4.97475, 2.3053436, 4.97475, 1.038168, 4.97475, -3.1908398
0.5860588, -0.0238346, 4.9815, 0.0298462, 4.9815, -1.0097046, 4.9815, -0.0705566, 4.9815, 2.2977099, 4.9815, 0.7099237, 4.9815, -3.2748091
0.5868529, -0.0243381, 4.98825, 0.0251465, 4.98825, -1.005127, 4.98825, -0.0726318, 4.98825, 2.2366412, 4.98825, 0.351145, 4.98825, -3.3740458
0.5876471, -0.0229953, 4.995, 0.0303955, 4.995, -1.0033569, 4.995, -0.0723877, 4.995, 2.2671757, 4.995, 0.0687023, 4.995, -3.2900763
0.5884412, -0.0199741, 5.00175, 0.0359497, 5.00175, -1.0027466, 5.00175, -0.0756836, 5.00175, 2.3358779, 5.00175, -0.1679389, 5.00175, -3.1526718
0.5892353, -0.0169528, 5.0085, 0.0409546, 5.0085, -1.0032349, 5.0085, -0.0723877, 5.0085, 2.2671757, 5.0085, -0.4198473, 5.0085, -3.2519083
0.5900294, -0.0176242, 5.01525, 0.0409546, 5.01525, -1.0067139, 5.01525, -0.0699463, 5.01525, 2.3129771, 5.01525, -0.519084, 5.01525, -3.2900763
0.5908235, -0.0179599, 5.022, 0.0449219, 5.022, -1.0083008, 5.022, -0.0698242, 5.022, 2.221374, 5.022, -0.4961832, 5.022, -3.221374
0.5916176, -0.0182956, 5.02875, 0.0430298, 5.02875, -1.0075684, 5.02875, -0.0702515, 5.02875, 2.5343511, 5.02875, 0.0458015, 5.02875, -3.0763359
0.5924118, -0.0176242, 5.0355, 0.0426025, 5.0355, -1.0062256, 5.0355, -0.0707397, 5.0355, 2.7251909, 5.0355, 0.3358779, 5.0355, -3.0229008
0.5932059, -0.0198062, 5.04225, 0.0375366, 5.04225, -1.0073242, 5.04225, -0.0706787, 5.04225, 2.4427481, 5.04225, 0.3435115, 5.04225, -3.0992367
0.594, -0.0179599, 5.049, 0.0368042, 5.049, -1.0054321, 5.049, -0.0718384, 5.049, 2.6259542, 5.049, 0.2977099, 5.049, -3.0152671
0.5947941, -0.0146029, 5.05575, 0.0360718, 5.05575, -1.0067749, 5.05575, -0.0709839, 5.05575, 2.5572519, 5.05575, 0.129771, 5.05575, -2.9312978
0.5955882, -0.0132601, 5.0625, 0.0346069, 5.0625, -1.0097656, 5.0625, -0.0751343, 5.0625, 2.5572519, 5.0625, -0.129771, 5.0625, -2.9847329
0.5963824, -0.012253, 5.06925, 0.0352173, 5.06925, -1.0090942, 5.06925, -0.074707, 5.06925, 2.4122138, 5.06925, -0.2290076, 5.06925, -2.9007633
0.5971765, -0.0129244, 5.076, 0.0353394, 5.076, -1.0084229, 5.076, -0.074707, 5.076, 2.5496182, 5.076, -0.4656489, 5.076, -2.9236641
0.5979706, -0.0119173, 5.08275, 0.036377, 5.08275, -1.0064087, 5.08275, -0.0731201, 5.08275, 2.6183207, 5.08275, -0.4503817, 5.08275, -2.6793892
0.5987647, -0.0119173, 5.0895, 0.0377197, 5.0895, -1.0096436, 5.0895, -0.0751343, 5.0895, 2.5343511, 5.0895, -0.1603053, 5.0895, -2.7251909
0.5995588, -0.0132601, 5.09625, 0.0407715, 5.09625, -1.0078125, 5.09625, -0.0710449, 5.09625, 2.4274809, 5.09625, -0.2748092, 5.09625, -2.7557251
0.6003529, -0.0142672, 5.103, 0.0411987, 5.103, -1.0130005, 5.103, -0.0654297, 5.103, 2.1832061, 5.103, -0.2824427, 5.103, -2.7862597
0.6011471, -0.018967, 5.10975, 0.0388184, 5.10975, -1.0084839, 5.10975, -0.0650635, 5.10975, 2.3587787, 5.10975, -0.0916031, 5.10975, -2.8244274
0.6019412, -0.0127565, 5.1165, 0.0334473, 5.1165, -1.0080566, 5.1165, -0.0679932, 5.1165, 2.3587787, 5.1165, 0.1832061, 5.1165, -2.6564887
0.6027353, -0.0075532, 5.12325, 0.0344849, 5.12325, -1.0067139, 5.12325, -0.0673828, 5.12325, 2.3664122, 5.12325, 0.1374046, 5.12325, -2.4885497
0.6035294, -0.0031891, 5.13, 0.0341187, 5.13, -1.0049438, 5.13, -0.0657959, 5.13, 2.5267177, 5.13, 0.1984733, 5.13, -2.5038168
0.6043235, -0.0018463, 5.13675, 0.0334473, 5.13675, -1.0079346, 5.13675, -0.0681763, 5.13675, 2.3969467, 5.13675, 0.1526718, 5.13675, -2.3740458
0.6051176, -0.0031891, 5.1435, 0.0344849, 5.1435, -1.0056152, 5.1435, -0.0649414, 5.1435, 2.3816793, 5.1435, 0.1068702, 5.1435, -2.389313
0.6059118, -0.0070497, 5.15025, 0.0316772, 5.15025, -1.0036011, 5.15025, -0.0687866, 5.15025, 2.5038168, 5.15025, 0.2137405, 5.15025, -2.610687
0.6067059, -0.0060426, 5.157, 0.034668, 5.157, -1.0005493, 5.157, -0.0709229, 5.157, 2.3816793, 5.157, 0.2137405, 5.157, -2.7022901
0.6075, -0.0058747, 5.16375, 0.0361938, 5.16375, -1.0018311, 5.16375, -0.069458, 5.16375, 2.3435113, 5.16375, 0.4732825, 5.16375, -2.5343511
0.6082941, -0.0041962, 5.1705, 0.034729, 5.1705, -1.0081787, 5.1705, -0.0697021, 5.1705, 2.480916, 5.1705, 0.740458, 5.1705, -2.5267177
0.6090882, -0.0035248, 5.17725, 0.0335693, 5.17725, -1.0124512, 5.17725, -0.0668945, 5.17725, 2.4961832, 5.17725, 0.8167939, 5.17725, -2.5954199
0.6098824, -0.0070497, 5.184, 0.0324707, 5.184, -1.0095825, 5.184, -0.0670776, 5.184, 2.5725191, 5.184, 0.7328244, 5.184, -2.610687
0.6106765, -0.0149386, 5.19075, 0.0349121, 5.19075, -1.0073853, 5.19075, -0.06604, 5.19075, 2.6641221, 5.19075, 0.5496183, 5.19075, -2.6030533
0.6114706, -0.0176242, 5.1975, 0.0322876, 5.1975, -1.0066528, 5.1975, -0.0670776, 5.1975, 2.6030533, 5.1975, 0.908397, 5.1975, -2.6259542
0.6122647, -0.0216526, 5.20425, 0.0298462, 5.20425, -1.0087891, 5.20425, -0.0667114, 5.20425, 2.610687, 5.20425, 0.8931298, 5.20425, -2.5572519
0.6130588, -0.024506, 5.211, 0.02948, 5.211, -1.0092163, 5.211, -0.0646362, 5.211, 2.6259542, 5.211, 0.8396947, 5.211, -2.6793892
0.6138529, -0.023331, 5.21775, 0.0325317, 5.21775, -1.0062256, 5.21775, -0.0657349, 5.21775, 2.480916, 5.21775, 0.740458, 5.21775, -2.6946564
0.6146471, -0.0226596, 5.2245, 0.0311279, 5.2245, -1.0067139, 5.2245, -0.0651855, 5.2245, 2.5801528, 5.2245, 0.8778626, 5.2245, -2.6870229
0.6154412, -0.0223239, 5.23125, 0.0305786, 5.23125, -1.005188, 5.23125, -0.0688477, 5.23125, 2.6564887, 5.23125, 0.9312977, 5.23125, -2.8091602
0.6162353, -0.0219883, 5.238, 0.0305786, 5.238, -1.0055542, 5.238, -0.0664673, 5.238, 2.6717558, 5.238, 1.091603, 5.238, -2.9694657
0.6170294, -0.0219883, 5.24475, 0.0300293, 5.24475, -1.0042114, 5.24475, -0.0650635, 5.24475, 2.4198472, 5.24475, 1.0152671, 5.24475, -2.8015268
0.6178235, -0.0193027, 5.2515, 0.0338135, 5.2515, -1.0062256, 5.2515, -0.0636597, 5.2515, 2.2366412, 5.2515, 1.1145039, 5.2515, -2.870229
0.6186176, -0.0149386, 5.25825, 0.0322266, 5.25825, -1.0046997, 5.25825, -0.0673828, 5.25825, 2.4045801, 5.25825, 1.351145, 5.25825, -2.6412213
0.6194118, -0.0135958, 5.265, 0.0314941, 5.265, -1.0030518, 5.265, -0.0664062, 5.265, 2.389313, 5.265, 1.5419847, 5.265, -2.5267177
0.6202059, -0.0159457, 5.27175, 0.0299683, 5.27175, -1.0042725, 5.27175, -0.0649414, 5.27175, 2.351145, 5.27175, 1.7938931, 5.27175, -2.5114503
0.621, -0.0149386, 5.2785, 0.0266113, 5.2785, -1.0065918, 5.2785, -0.0596924, 5.2785, 2.1145039, 5.2785, 1.870229, 5.2785, -2.6564887
0.6217941, -0.0115816, 5.28525, 0.0311279, 5.28525, -1.005188, 5.28525, -0.0610962, 5.28525, 2.3664122, 5.28525, 2.0534351, 5.28525, -2.6412213
0.6225882, -0.0102388, 5.292, 0.0298462, 5.292, -1.0036011, 5.292, -0.0630493, 5.292, 2.3664122, 5.292, 2.0992367, 5.292, -2.7709923
0.6233824, -0.0125887, 5.29875, 0.0253906, 5.29875, -1.005188, 5.29875, -0.0661621, 5.29875, 2.4427481, 5.29875, 2.038168, 5.29875, -2.7709923
0.6241765, -0.014435, 5.3055, 0.0285645, 5.3055, -1.0056763, 5.3055, -0.0650024, 5.3055, 2.1526718, 5.3055, 1.8778626, 5.3055, -2.7862597
0.6249706, -0.0146029, 5.31225, 0.0264893, 5.31225, -1.0089722, 5.31225, -0.0639648, 5.31225, 2.2671757, 5.31225, 1.6793894, 5.31225, -2.8931298
0.6257647, -0.0135958, 5.319, 0.0286255, 5.319, -1.0075684, 5.319, -0.0682983, 5.319, 2.4198472, 5.319, 1.7557251, 5.319, -2.8015268
0.6265588, -0.0142672, 5.32575, 0.0299683, 5.32575, -1.0093384, 5.32575, -0.0683594, 5.32575, 2.3282442, 5.32575, 1.7862595, 5.32575, -2.9160306
0.6273529, -0.0166171, 5.3325, 0.0341187, 5.3325, -1.0092163, 5.3325, -0.0643921, 5.3325, 2.389313, 5.3325, 1.7862595, 5.3325, -2.6259542
0.6281471, -0.0164492, 5.33925, 0.0309448, 5.33925, -1.012146, 5.33925, -0.0626221, 5.33925, 2.1679389, 5.33925, 1.7175573, 5.33925, -2.9541984
0.6289412, -0.0169528, 5.346, 0.0263672, 5.346, -1.0116577, 5.346, -0.0634766, 5.346, 2.4503818, 5.346, 1.6259542, 5.346, -2.9847329
0.6297353, -0.0146029, 5.35275, 0.0245972, 5.35275, -1.0111694, 5.35275, -0.0626221, 5.35275, 2.4961832, 5.35275, 1.4732825, 5.35275, -2.9541984
0.6305294, -0.012253, 5.3595, 0.0289307, 5.3595, -1.0062866, 5.3595, -0.0623169, 5.3595, 2.3740458, 5.3595, 1.4961832, 5.3595, -2.8854961
0.6313235, -0.0102388, 5.36625, 0.0279541, 5.36625, -1.0046997, 5.36625, -0.0614014, 5.36625, 2.2824428, 5.36625, 1.3358779, 5.36625, -3.0229008
0.6321176, -0.008896, 5.373, 0.0305176, 5.373, -1.0064087, 5.373, -0.0613403, 5.373, 2.4122138, 5.373, 1.3129771, 5.373, -3.0763359
0.6329118, -0.0102388, 5.37975, 0.0300903, 5.37975, -0.9998169, 5.37975, -0.0648193, 5.37975, 2.0610688, 5.37975, 1.480916, 5.37975, -2.9541984
0.6337059, -0.0132601, 5.3865, 0.026001, 5.3865, -1.0005493, 5.3865, -0.0595093, 5.3865, 1.908397, 5.3865, 1.2977099, 5.3865, -3.1984732
0.6345, -0.0167849, 5.39325, 0.0292969, 5.39325, -1.0029907, 5.39325, -0.0534668, 5.39325, 1.870229, 5.39325, 1.0763359, 5.39325, -3.1374047
0.6352941, -0.0149386, 5.4, 0.0270996, 5.4, -1.0016479, 5.4, -0.0509644, 5.4, 2.0229008, 5.4, 1.0229008, 5.4, -3.3206108
0.6360882, -0.0151064, 5.40675, 0.0262451, 5.40675, -1.0054932, 5.40675, -0.0514526, 5.40675, 1.9847329, 5.40675, 1.2442749, 5.40675, -3.2290077
0.6368824, -0.0159457, 5.4135, 0.0263062, 5.4135, -1.0040894, 5.4135, -0.0535278, 5.4135, 1.8625954, 5.4135, 1.5038168, 5.4135, -3.1832061
0.6376765, -0.0166171, 5.42025, 0.0237427, 5.42025, -1.0032349, 5.42025, -0.0583496, 5.42025, 1.7328244, 5.42025, 1.6259542, 5.42025, -3.0229008
0.6384706, -0.0142672, 5.427, 0.0228271, 5.427, -1.0036621, 5.427, -0.0576782, 5.427, 1.6946565, 5.427, 1.3358779, 5.427, -3.1145039
0.6392647, -0.011078, 5.43375, 0.0265503, 5.43375, -1.003479, 5.43375, -0.0543213, 5.43375, 1.610687, 5.43375, 1.0534351, 5.43375, -3.1679389
0.6400588, -0.0125887, 5.4405, 0.027832, 5.4405, -1.0043335, 5.4405, -0.0542603, 5.4405, 1.7099236, 5.4405, 0.648855, 5.4405, -3.3587787
0.6408529, -0.0135958, 5.44725, 0.0267944, 5.44725, -1.0062256, 5.44725, -0.0522461, 5.44725, 1.480916, 5.44725, 0.4427481, 5.44725, -3.2442749
0.6416471, -0.0146029, 5.454, 0.0305176, 5.454, -1.0057983, 5.454, -0.0567627, 5.454, 1.1145039, 5.454, 0.7480916, 5.454, -3.2137403
0.6424412, -0.0162814, 5.46075, 0.0317383, 5.46075, -1.0045776, 5.46075, -0.0595703, 5.46075, 1.1832061, 5.46075, 0.6183206, 5.46075, -3.4503818
0.6432353, -0.0147707, 5.4675, 0.0333252, 5.4675, -1.0084229, 5.4675, -0.0587769, 5.4675, 1.1908396, 5.4675, 0.6412213, 5.4675, -3.3435113
0.6440294, -0.01561, 5.47425, 0.0317993, 5.47425, -1.0084839, 5.47425, -0.0575562, 5.47425, 1.2137405, 5.47425, 0.4198473, 5.47425, -3.4274809
0.6448235, -0.01561, 5.481, 0.0317993, 5.481, -1.0090942, 5.481, -0.0592041, 5.481, 1.2671756, 5.481, 0.5114504, 5.481, -3.4122138
0.6456176, -0.0135958, 5.48775, 0.0294189, 5.48775, -1.0065308, 5.48775, -0.0614014, 5.48775, 1.1603054, 5.48775, 0.5954198, 5.48775, -3.4045801
0.6464118, -0.0171206, 5.4945, 0.0273438, 5.4945, -1.0071411, 5.4945, -0.0652466, 5.4945, 1.2671756, 5.4945, 0.4503817, 5.4945, -3.2977099
0.6472059, -0.014435, 5.50125, 0.0238037, 5.50125, -1.0061646, 5.50125, -0.0646362, 5.50125, 1.0763359, 5.50125, 0.2824427, 5.50125, -3.4732823
0.648, -0.0152743, 5.508, 0.0279541, 5.508, -1.0071411, 5.508, -0.0602417, 5.508, 1.038168, 5.508, -0.0839695, 5.508, -3.4427481
0.6487941, -0.018967, 5.51475, 0.0249023, 5.51475, -1.0071411, 5.51475, -0.0591431, 5.51475, 0.8244275, 5.51475, -0.2977099, 5.51475, -3.480916
0.6495882, -0.0166171, 5.5215, 0.0266724, 5.5215, -1.0100098, 5.5215, -0.0570679, 5.5215, 0.8625954, 5.5215, -0.4427481, 5.5215, -3.4427481
0.6503824, -0.0157778, 5.52825, 0.0292358, 5.52825, -1.0095825, 5.52825, -0.059021, 5.52825, 0.9236641, 5.52825, -0.3435115, 5.52825, -3.4351146
0.6511765, -0.0137636, 5.535, 0.0317383, 5.535, -1.0044556, 5.535, -0.0617065, 5.535, 0.8091603, 5.535, 0.0381679, 5.535, -3.5038168
0.6519706, -0.0115816, 5.54175, 0.0291748, 5.54175, -1.0073853, 5.54175, -0.0596924, 5.54175, 0.5725191, 5.54175, -0.2061069, 5.54175, -3.5572519
0.6527647, -0.0137636, 5.5485, 0.0265503, 5.5485, -1.0094604, 5.5485, -0.0576172, 5.5485, 0.5419847, 5.5485, -0.2061069, 5.5485, -3.4885497
0.6535588, -0.0146029, 5.55525, 0.0269775, 5.55525, -1.0103149, 5.55525, -0.0541382, 5.55525, 0.6870229, 5.55525, -0.3740458, 5.55525, -3.6335878
0.6543529, -0.0137636, 5.562, 0.0258179, 5.562, -1.0059814, 5.562, -0.0635986, 5.562, 0.648855, 5.562, -0.3206107, 5.562, -3.4732823
0.6551471, -0.0162814, 5.56875, 0.0238037, 5.56875, -1.0045776, 5.56875, -0.0619507, 5.56875, 0.5725191, 5.56875, -0.3129771, 5.56875, -3.480916
0.6559412, -0.0159457, 5.5755, 0.0273438, 5.5755, -1.0043335, 5.5755, -0.0638428, 5.5755, 0.6946565, 5.5755, -0.1603053, 5.5755, -3.6717558
0.6567353, -0.0127565, 5.58225, 0.0261841, 5.58225, -1.0015259, 5.58225, -0.0631714, 5.58225, 0.7480916, 5.58225, -0.5801527, 5.58225, -3.5877862
0.6575294, -0.008896, 5.589, 0.0261841, 5.589, -1.0061035, 5.589, -0.0627441, 5.589, 0.8015267, 5.589, -0.7709923, 5.589, -3.5572519
0.6583235, -0.011078, 5.59575, 0.0316772, 5.59575, -1.0072632, 5.59575, -0.0632935, 5.59575, 0.870229, 5.59575, -0.7328244, 5.59575, -3.5114503
0.6591176, -0.0097353, 5.6025, 0.0317993, 5.6025, -1.0028076, 5.6025, -0.0656738, 5.6025, 1.0763359, 5.6025, -0.4656489, 5.6025, -3.7328243
0.6599118, -0.0092317, 5.60925, 0.0338135, 5.60925, -1.0057373, 5.60925, -0.0656738, 5.60925, 1.1603054, 5.60925, -0.5114504, 5.60925, -3.7175572
0.6607059, -0.0119173, 5.616, 0.0369873, 5.616, -1.0093384, 5.616, -0.0682983, 5.616, 1.1984733, 5.616, -0.1984733, 5.616, -3.7022901
0.6615, -0.0124208, 5.62275, 0.0376587, 5.62275, -1.0067139, 5.62275, -0.0664062, 5.62275, 1.1679389, 5.62275, -0.3053435, 5.62275, -3.5725191
0.6622941, -0.0125887, 5.6295, 0.0363159, 5.6295, -1.0056152, 5.6295, -0.0703735, 5.6295, 1.2824427, 5.6295, -0.1603053, 5.6295, -3.5496182
0.6630882, -0.0129244, 5.63625, 0.0336304, 5.63625, -1.0091553, 5.63625, -0.0697632, 5.63625, 1.2900764, 5.63625, 0.0458015, 5.63625, -3.5725191
0.6638824, -0.0125887, 5.643, 0.0357056, 5.643, -1.0112915, 5.643, -0.0683594, 5.643, 1.259542, 5.643, 0.3435115, 5.643, -3.6870229
0.6646765, -0.0127565, 5.64975, 0.0361938, 5.64975, -1.0084839, 5.64975, -0.0686646, 5.64975, 1.3664122, 5.64975, 0.4503817, 5.64975, -3.6412213
0.6654706, -0.0142672, 5.6565, 0.0316772, 5.6565, -1.0081787, 5.6565, -0.0670776, 5.6565, 1.610687, 5.6565, 0.4503817, 5.6565, -3.5343511
0.6662647, -0.0149386, 5.66325, 0.0318604, 5.66325, -1.0115356, 5.66325, -0.06604, 5.66325, 1.5267175, 5.66325, 0.4351145, 5.66325, -3.7175572
0.6670588, -0.014435, 5.67, 0.0300293, 5.67, -1.0102539, 5.67, -0.0665894, 5.67, 1.7557251, 5.67, 0.5496183, 5.67, -3.5725191
0.6678529, -0.0166171, 5.67675, 0.0305786, 5.67675, -1.0078735, 5.67675, -0.0648804, 5.67675, 1.6870229, 5.67675, 0.7557252, 5.67675, -3.4732823
0.6686471, -0.0176242, 5.6835, 0.0286255, 5.6835, -1.0028687, 5.6835, -0.0681763, 5.6835, 1.7099236, 5.6835, 0.8244275, 5.6835, -3.5267177
0.6694412, -0.0196384, 5.69025, 0.0265503, 5.69025, -1.0079346, 5.69025, -0.0647583, 5.69025, 1.5038168, 5.69025, 0.4732825, 5.69025, -3.6335878
0.6702353, -0.0216526, 5.697, 0.0289307, 5.697, -1.0062866, 5.697, -0.0635986, 5.697, 1.908397, 5.697, 0.0381679, 5.697, -3.5648854
0.6710294, -0.0209812, 5.70375, 0.0259399, 5.70375, -1.0044556, 5.70375, -0.0685425, 5.70375, 1.6259542, 5.70375, 0.3969466, 5.70375, -3.6335878
0.6718235, -0.021149, 5.7105, 0.0338135, 5.7105, -1.0048828, 5.7105, -0.0632324, 5.7105, 1.5038168, 5.7105, 0.4045801, 5.7105, -3.4045801
0.6726176, -0.0236667, 5.71725, 0.0336304, 5.71725, -1.0059814, 5.71725, -0.0619507, 5.71725, 1.3740458, 5.71725, 0.4503817, 5.71725, -3.4427481
0.6734118, -0.0206455, 5.724, 0.036438, 5.724, -1.0056152, 5.724, -0.0618896, 5.724, 1.5267175, 5.724, 0.4656489, 5.724, -3.389313
0.6742059, -0.0209812, 5.73075, 0.0371094, 5.73075, -1.0112305, 5.73075, -0.0597534, 5.73075, 1.480916, 5.73075, 0.5725191, 5.73075, -3.5648854
0.675, -0.024506, 5.7375, 0.0333252, 5.7375, -1.0081177, 5.7375, -0.0579834, 5.7375, 1.6183206, 5.7375, 0.6793893, 5.7375, -3.5572519
0.6757941, -0.0223239, 5.74425, 0.0349121, 5.74425, -1.0061035, 5.74425, -0.0618896, 5.74425, 1.6870229, 5.74425, 0.8015267, 5.74425, -3.5801528
0.6765882, -0.0204776, 5.751, 0.03479, 5.751, -1.0061035, 5.751, -0.0580444, 5.751, 1.5725191, 5.751, 0.9160305, 5.751, -3.4351146
0.6773824, -0.0182956, 5.75775, 0.0363159, 5.75775, -1.0073242, 5.75775, -0.0563965, 5.75775, 1.3587786, 5.75775, 0.8854962, 5.75775, -3.4732823
0.6781765, -0.018967, 5.7645, 0.0405884, 5.7645, -1.0088501, 5.7645, -0.0585327, 5.7645, 1.5496184, 5.7645, 0.8931298, 5.7645, -3.4732823
0.6789706, -0.0193027, 5.77125, 0.0366821, 5.77125, -1.0061035, 5.77125, -0.0566406, 5.77125, 1.6946565, 5.77125, 0.9847328, 5.77125, -3.4656489
