Application:, Trigno Discover (1.7.0)
Date/Time:, 2026/9/9 下午 03:04:19
Collection Length (seconds):, 111.7125
Avanti Sensor 11 (69574)
sensor mode: 50
EMG 1 Time Series (s), EMG 1 (mV), ACC X Time Series (s), ACC X (G), ACC Y Time Series (s), ACC Y (G), ACC Z Time Series (s), ACC Z (G), GYRO X Time Series (s), GYRO X (deg/s), GYRO Y Time Series (s), GYRO Y (deg/s), GYRO Z Time Series (s), GYRO Z (deg/s)
, 1259.2593 Hz, , 148.1481 Hz, , 148.1481 Hz, , 148.1481 Hz, , 148.1481 Hz, , 148.1481 Hz, , 148.1481 Hz
0, -0.0035248, 0, 0.0871582, 0, -1.0425415, 0, -0.2417603, 0, -4.0687022, 0, -1.0305344, 0, -12.0305347
0.0007941, -0.0028534, 0.00675, 0.0296021, 0.00675, -1.0461426, 0.00675, -0.2234497, 0.00675, -1.2748091, 0.00675, -5.6183205, 0.00675, -12.1832066
0.0015882, -0.0062104, 0.0135, -0.0386963, 0.0135, -1.0535889, 0.0135, -0.2006226, 0.0135, 2.1450381, 0.0135, -12.2442751, 0.0135, -12.4045801
0.0023824, -0.0092317, 0.02025, -0.0946655, 0.02025, -1.0564575, 0.02025, -0.1935425, 0.02025, 6.961832, 0.02025, -22.1526718, 0.02025, -12.3816795
0.0031765, -0.0125887, 0.027, -0.1132812, 0.027, -1.0420532, 0.027, -0.1914062, 0.027, 11.9389315, 0.027, -34.1908379, 0.027, -12.1908398
0.0039706, -0.0139315, 0.03375, -0.0900879, 0.03375, -1.0159302, 0.03375, -0.2179565, 0.03375, 16.3129768, 0.03375, -47.1755714, 0.03375, -11.8702288
0.0047647, -0.010071, 0.0405, -0.0609741, 0.0405, -1.0029907, 0.0405, -0.2315674, 0.0405, 19.396946, 0.0405, -59.2977104, 0.0405, -11.7938929
0.0055588, -0.0082246, 0.04725, 0.0141602, 0.04725, -0.9931641, 0.04725, -0.2358398, 0.04725, 21.1297703, 0.04725, -67.9618301, 0.04725, -11.7099237
0.0063529, -0.0082246, 0.054, 0.0891724, 0.054, -0.9933472, 0.054, -0.229126, 0.054, 22.9312973, 0.054, -71.9694672, 0.054, -11.4122133
0.0071471, -0.0105745, 0.06075, 0.1411743, 0.06075, -0.9927368, 0.06075, -0.2196045, 0.06075, 25.3893127, 0.06075, -69.3969498, 0.06075, -10.5572519
0.0079412, -0.012253, 0.0675, 0.1702881, 0.0675, -0.9897461, 0.0675, -0.2178955, 0.0675, 27.67939, 0.0675, -61.3358765, 0.0675, -8.7251911
0.0087353, -0.0129244, 0.07425, 0.1798706, 0.07425, -0.973938, 0.07425, -0.2084351, 0.07425, 29.0152664, 0.07425, -51.0839691, 0.07425, -6.7251906
0.0095294, -0.012253, 0.081, 0.166626, 0.081, -0.9657593, 0.081, -0.1865845, 0.081, 29.4580154, 0.081, -46.0992355, 0.081, -5.961832
0.0103235, -0.0115816, 0.08775, 0.1415405, 0.08775, -0.9594116, 0.08775, -0.1872559, 0.08775, 30.1832066, 0.08775, -39.4732819, 0.08775, -5.1755724
0.0111176, -0.01561, 0.0945, 0.1275635, 0.0945, -0.9395142, 0.0945, -0.2004395, 0.0945, 30.1450386, 0.0945, -35.9389305, 0.0945, -4.8015265
0.0119118, -0.0201419, 0.10125, 0.1246948, 0.10125, -0.9135742, 0.10125, -0.2001953, 0.10125, 28.4961834, 0.10125, -33.9694672, 0.10125, -4.8549619
0.0127059, -0.0323949, 0.108, 0.1308594, 0.108, -0.8843384, 0.108, -0.1879272, 0.108, 26.2977104, 0.108, -32.2595406, 0.108, -4.5572519
0.0135, -0.0530404, 0.11475, 0.1383667, 0.11475, -0.8727417, 0.11475, -0.1801147, 0.11475, 23.4732819, 0.11475, -30.1908398, 0.11475, -4.0610685
0.0142941, -0.0637827, 0.1215, 0.1474609, 0.1215, -0.8596802, 0.1215, -0.1697998, 0.1215, 20.5801525, 0.1215, -26.7786255, 0.1215, -3.259542
0.0150882, -0.0535439, 0.12825, 0.1578369, 0.12825, -0.8487549, 0.12825, -0.1647339, 0.12825, 17.1908398, 0.12825, -21.2137413, 0.12825, -2.221374
0.0158824, -0.030045, 0.135, 0.1617432, 0.135, -0.8424683, 0.135, -0.1550293, 0.135, 13.3511448, 0.135, -16.5725193, 0.135, -1.7938931
0.0166765, 0.0058747, 0.14175, 0.1393433, 0.14175, -0.8426514, 0.14175, -0.1651001, 0.14175, 10.0152674, 0.14175, -11.7480917, 0.14175, -1.7862595
0.0174706, 0.0315557, 0.1485, 0.097229, 0.1485, -0.8517456, 0.1485, -0.1467285, 0.1485, 6.1603055, 0.1485, -8.4503813, 0.1485, -1.7328244
0.0182647, 0.0421302, 0.15525, 0.0891724, 0.15525, -0.8636475, 0.15525, -0.0940552, 0.15525, 3.3587787, 0.15525, -10, 0.15525, -2.0229008
0.0190588, 0.0186313, 0.162, 0.1248169, 0.162, -0.8917236, 0.162, -0.055542, 0.162, -0.9541985, 0.162, -17.3511448, 0.162, -3.7709923
0.0198529, -0.0525368, 0.16875, 0.1734619, 0.16875, -0.9573975, 0.16875, -0.0094604, 0.16875, -3.0839694, 0.16875, -21.4122143, 0.16875, -5.5648856
0.0206471, -0.1411612, 0.1755, 0.2108154, 0.1755, -1.0140381, 0.1755, 0.0380859, 0.1755, -0.9236641, 0.1755, -20.1068707, 0.1755, -6.2671757
0.0214412, -0.102388, 0.18225, 0.2483521, 0.18225, -1.0369263, 0.18225, 0.0836792, 0.18225, 2.6030533, 0.18225, -15.7633591, 0.18225, -5.961832
0.0222353, 0.0018463, 0.189, 0.2843018, 0.189, -1.0628662, 0.189, 0.1173096, 0.189, 7.1068702, 0.189, -9.2748089, 0.189, -4.8702292
0.0230294, 0.0446479, 0.19575, 0.3023682, 0.19575, -1.0639648, 0.19575, 0.1150513, 0.19575, 11.8167934, 0.19575, -0.1603053, 0.19575, -3.7480917
0.0238235, -0.0035248, 0.2025, 0.3287354, 0.2025, -1.0394897, 0.2025, 0.0623779, 0.2025, 13.4045801, 0.2025, 8.5877867, 0.2025, -2.9007633
0.0246176, -0.0345769, 0.20925, 0.3114014, 0.20925, -0.9990845, 0.20925, -0.0093994, 0.20925, 10.3664122, 0.20925, 19.0305347, 0.20925, -2.0305343
0.0254118, -0.0246738, 0.216, 0.2084351, 0.216, -1.0007935, 0.216, 0.013916, 0.216, 5.9083967, 0.216, 29.8702297, 0.216, -1.1984733
0.0262059, -0.0176242, 0.22275, 0.0432129, 0.22275, -1.02948, 0.22275, 0.0546875, 0.22275, 3.2366412, 0.22275, 30.7786255, 0.22275, -0.9541985
0.027, -0.0149386, 0.2295, -0.1032104, 0.2295, -1.0428467, 0.2295, 0.0596313, 0.2295, 1.3816794, 0.2295, 25.4732819, 0.2295, -0.8396947
0.0277941, -0.005539, 0.23625, -0.1643066, 0.23625, -1.0371094, 0.23625, 0.0220337, 0.23625, 0.5114504, 0.23625, 21.1755733, 0.23625, -1.1603054
0.0285882, -0.002182, 0.243, -0.1561279, 0.243, -1.0310059, 0.243, -0.0284424, 0.243, -1.9847329, 0.243, 10.8320608, 0.243, -1.519084
0.0293824, 0.0030213, 0.24975, -0.1193848, 0.24975, -1.0250244, 0.24975, -0.0456543, 0.24975, -4.6412215, 0.24975, -0.8931298, 0.24975, -2.1984732
0.0301765, 0.0119173, 0.2565, -0.0865479, 0.2565, -1.0298462, 0.2565, -0.029541, 0.2565, -6.4961834, 0.2565, -9.3893127, 0.2565, -2.1679389
0.0309706, 0.0115816, 0.26325, -0.0597534, 0.26325, -1.0388794, 0.26325, -0.0101929, 0.26325, -7.8549619, 0.26325, -15.5114508, 0.26325, -1.9160305
0.0317647, 0.0005035, 0.27, -0.0435181, 0.27, -1.0418701, 0.27, -6.1E-05, 0.27, -8.4732828, 0.27, -19.4656487, 0.27, -1.7862595
0.0325588, -0.0072175, 0.27675, -0.0004272, 0.27675, -1.0452881, 0.27675, -0.0109863, 0.27675, -8.5267172, 0.27675, -22.3893127, 0.27675, -1.9541985
0.0333529, -0.0129244, 0.2835, 0.0437622, 0.2835, -1.036377, 0.2835, -0.0388794, 0.2835, -8.7404585, 0.2835, -24.5496178, 0.2835, -2.0229008
0.0341471, -0.0159457, 0.29025, 0.0814209, 0.29025, -1.0244141, 0.29025, -0.053772, 0.29025, -9.2061071, 0.29025, -24.6183205, 0.29025, -2.2137403
0.0349412, -0.0162814, 0.297, 0.1050415, 0.297, -1.0169067, 0.297, -0.0629883, 0.297, -9.2442751, 0.297, -24.160305, 0.297, -2.1450381
0.0357353, -0.0102388, 0.30375, 0.109375, 0.30375, -1.0068359, 0.30375, -0.0704346, 0.30375, -9.5725193, 0.30375, -22.7251911, 0.30375, -2.0229008
0.0365294, -0.0082246, 0.3105, 0.1043091, 0.3105, -0.9952393, 0.3105, -0.0744019, 0.3105, -9.3740454, 0.3105, -21.8473282, 0.3105, -1.8625954
0.0373235, -0.005539, 0.31725, 0.0968628, 0.31725, -0.9829712, 0.31725, -0.0946045, 0.31725, -9.4656487, 0.31725, -20.8549614, 0.31725, -1.6183206
0.0381176, -0.005539, 0.324, 0.0905762, 0.324, -0.9764404, 0.324, -0.1113892, 0.324, -9.5496187, 0.324, -20, 0.324, -1.2442749
0.0389118, -0.0041962, 0.33075, 0.0827026, 0.33075, -0.972229, 0.33075, -0.1192017, 0.33075, -9.6488552, 0.33075, -18.9847336, 0.33075, -0.7938932
0.0397059, -0.0048676, 0.3375, 0.0703735, 0.3375, -0.9758301, 0.3375, -0.1154175, 0.3375, -9.519084, 0.3375, -18.2213745, 0.3375, -0.5267175
0.0405, -0.0070497, 0.34425, 0.0651245, 0.34425, -0.9754028, 0.34425, -0.1286621, 0.34425, -9.320611, 0.34425, -19.0687027, 0.34425, -0.0916031
0.0412941, -0.0008392, 0.351, 0.0654907, 0.351, -0.9733887, 0.351, -0.1361694, 0.351, -8.6488552, 0.351, -19.8091602, 0.351, 0.0534351
0.0420882, 0.0001678, 0.35775, 0.0782471, 0.35775, -0.9748535, 0.35775, -0.1500854, 0.35775, -8.160305, 0.35775, -19.2900772, 0.35775, 0.3969466
0.0428824, -0.008896, 0.3645, 0.0997314, 0.3645, -0.9833374, 0.3645, -0.1572876, 0.3645, -7.961832, 0.3645, -18.2290077, 0.3645, 0.8931298
0.0436765, -0.03122, 0.37125, 0.1132202, 0.37125, -0.9945068, 0.37125, -0.1577148, 0.37125, -7.6335878, 0.37125, -16.160305, 0.37125, 1.3358779
0.0444706, -0.04448, 0.378, 0.1204224, 0.378, -1.0033569, 0.378, -0.1552124, 0.378, -7.0916033, 0.378, -12.801527, 0.378, 1.7709924
0.0452647, -0.0501869, 0.38475, 0.121521, 0.38475, -1.0102539, 0.38475, -0.1602783, 0.38475, -6.5877862, 0.38475, -8.6183205, 0.38475, 2.5267177
0.0460588, -0.0471656, 0.3915, 0.1201782, 0.3915, -1.0153809, 0.3915, -0.164856, 0.3915, -6.3282442, 0.3915, -6.6488547, 0.3915, 2.7175572
0.0468529, -0.0501869, 0.39825, 0.1124268, 0.39825, -1.0238647, 0.39825, -0.1588745, 0.39825, -5.9160304, 0.39825, -2.7328243, 0.39825, 3.091603
0.0476471, -0.0599222, 0.405, 0.0980835, 0.405, -1.0339966, 0.405, -0.1471558, 0.405, -5.6412215, 0.405, 1.2290076, 0.405, 3.6030533
0.0484412, -0.0797284, 0.41175, 0.0890503, 0.41175, -1.0442505, 0.41175, -0.1324463, 0.41175, -5.259542, 0.41175, 3.7557251, 0.41175, 3.870229
0.0492353, -0.0827497, 0.4185, 0.0896606, 0.4185, -1.0397339, 0.4185, -0.1330566, 0.4185, -4.5038166, 0.4185, 5.221374, 0.4185, 4.0763359
0.0500294, -0.0461585, 0.42525, 0.0917358, 0.42525, -1.0349121, 0.42525, -0.1403809, 0.42525, -3.8854961, 0.42525, 6.7938933, 0.42525, 4.1526718
0.0508235, 0.0135958, 0.432, 0.0949097, 0.432, -1.0318604, 0.432, -0.1531982, 0.432, -3.5343511, 0.432, 9.7557249, 0.432, 4.2748094
0.0516176, 0.0246738, 0.43875, 0.0998535, 0.43875, -1.0311279, 0.43875, -0.1445923, 0.43875, -3.2977099, 0.43875, 12.7251911, 0.43875, 4.6106873
0.0524118, 0.0253452, 0.4455, 0.0911255, 0.4455, -1.0286865, 0.4455, -0.1428833, 0.4455, -2.8473282, 0.4455, 15.038168, 0.4455, 4.7022901
0.0532059, 0.011078, 0.45225, 0.0736084, 0.45225, -1.0264893, 0.45225, -0.1430054, 0.45225, -2.1450381, 0.45225, 17.1450386, 0.45225, 4.7328243
0.054, 0.0031891, 0.459, 0.0480957, 0.459, -1.0184937, 0.459, -0.1372681, 0.459, -1.9847329, 0.459, 18.442749, 0.459, 5.038168
0.0547941, 0.0008392, 0.46575, 0.0165405, 0.46575, -1.0144043, 0.46575, -0.1218262, 0.46575, -2.0534351, 0.46575, 18.442749, 0.46575, 4.7938933
0.0555882, -0.0041962, 0.4725, -0.024231, 0.4725, -1.0164185, 0.4725, -0.0933838, 0.4725, -2.3740458, 0.4725, 17.32061, 0.4725, 4.5267177
0.0563824, -0.0065461, 0.47925, -0.0650635, 0.47925, -1.0163574, 0.47925, -0.0747681, 0.47925, -1.9541985, 0.47925, 12.641221, 0.47925, 4.038168
0.0571765, -0.0102388, 0.486, -0.0846558, 0.486, -1.0057373, 0.486, -0.0813599, 0.486, -1.6946565, 0.486, 5.7938933, 0.486, 3.6030533
0.0579706, -0.012253, 0.49275, -0.0720825, 0.49275, -0.9996338, 0.49275, -0.0888672, 0.49275, -1.7251909, 0.49275, -0.7938932, 0.49275, 3.2671757
0.0587647, -0.008896, 0.4995, -0.0348511, 0.4995, -1.0005493, 0.4995, -0.0933228, 0.4995, -2.0839694, 0.4995, -7.0916033, 0.4995, 2.610687
0.0595588, -0.0129244, 0.50625, -0.0177002, 0.50625, -1.0031738, 0.50625, -0.0919189, 0.50625, -2.3740458, 0.50625, -11.3664122, 0.50625, 2.2290077
0.0603529, -0.0135958, 0.513, 0.026123, 0.513, -1.0003662, 0.513, -0.0901489, 0.513, -2.3282442, 0.513, -13.7404585, 0.513, 2.1374047
0.0611471, -0.014435, 0.51975, 0.0638428, 0.51975, -1.0011597, 0.51975, -0.102417, 0.51975, -2.8778627, 0.51975, -13.8549614, 0.51975, 2.0152671
0.0619412, -0.0142672, 0.5265, 0.083374, 0.5265, -1.0040894, 0.5265, -0.1102295, 0.5265, -3.1832061, 0.5265, -11.8549614, 0.5265, 2.1984732
0.0627353, -0.0216526, 0.53325, 0.0893555, 0.53325, -1.0081787, 0.53325, -0.1134644, 0.53325, -3.1526718, 0.53325, -9.4580154, 0.53325, 1.9923664
0.0635294, -0.021149, 0.54, 0.0773926, 0.54, -1.0108643, 0.54, -0.1174927, 0.54, -3.3740458, 0.54, -6.8778625, 0.54, 1.9541985
0.0643235, -0.0203098, 0.54675, 0.0540771, 0.54675, -1.0159912, 0.54675, -0.1120605, 0.54675, -3.4274809, 0.54675, -5.6183205, 0.54675, 2.0610688
0.0651176, -0.0213169, 0.5535, 0.0366211, 0.5535, -1.0196533, 0.5535, -0.1167603, 0.5535, -3.2366412, 0.5535, -3.8167939, 0.5535, 2.0763359
0.0659118, -0.0256809, 0.56025, 0.0270386, 0.56025, -1.0142822, 0.56025, -0.1243286, 0.56025, -3.5648854, 0.56025, -3.0610688, 0.56025, 2.1450381
0.0667059, -0.0226596, 0.567, 0.0137939, 0.567, -1.0151978, 0.567, -0.1188965, 0.567, -3.519084, 0.567, -2.2061069, 0.567, 2.0305343
0.0675, -0.01561, 0.57375, 0.007019, 0.57375, -1.0136108, 0.57375, -0.1134033, 0.57375, -3.5877862, 0.57375, -1.5572519, 0.57375, 2.0152671
0.0682941, -0.014435, 0.5805, 0.0043945, 0.5805, -1.0135498, 0.5805, -0.1151733, 0.5805, -3.7557251, 0.5805, -2.038168, 0.5805, 1.8473282
0.0690882, -0.012253, 0.58725, -0.0005493, 0.58725, -1.0139771, 0.58725, -0.116333, 0.58725, -3.961832, 0.58725, -2.610687, 0.58725, 1.6564885
0.0698824, -0.008896, 0.594, 0.0021973, 0.594, -1.0200195, 0.594, -0.1181641, 0.594, -3.961832, 0.594, -2.9160306, 0.594, 1.4885496
0.0706765, -0.0109102, 0.60075, 0.0171509, 0.60075, -1.0216675, 0.60075, -0.1200562, 0.60075, -3.6946564, 0.60075, -2.740458, 0.60075, 1.2977099
0.0714706, -0.0109102, 0.6075, 0.0286255, 0.6075, -1.0157471, 0.6075, -0.1311035, 0.6075, -3.648855, 0.6075, -3.0534351, 0.6075, 1.1603054
0.0722647, -0.0082246, 0.61425, 0.0308228, 0.61425, -1.0108643, 0.61425, -0.1366577, 0.61425, -3.351145, 0.61425, -2.6030533, 0.61425, 1.0610687
0.0730588, -0.0092317, 0.621, 0.0313721, 0.621, -1.0107422, 0.621, -0.138855, 0.621, -3.351145, 0.621, -2.0152671, 0.621, 0.8396947
0.0738529, -0.0072175, 0.62775, 0.0299072, 0.62775, -1.012207, 0.62775, -0.1453857, 0.62775, -3.1374047, 0.62775, -1.5038168, 0.62775, 0.740458
0.0746471, -0.0090639, 0.6345, 0.0285645, 0.6345, -1.0118408, 0.6345, -0.147644, 0.6345, -3, 0.6345, -1.0152671, 0.6345, 0.648855
0.0754412, -0.0129244, 0.64125, 0.0230103, 0.64125, -1.0099487, 0.64125, -0.147583, 0.64125, -2.7328243, 0.64125, -0.5267175, 0.64125, 0.4122137
0.0762353, -0.012253, 0.648, 0.0131226, 0.648, -1.0101318, 0.648, -0.1442871, 0.648, -2.6183207, 0.648, -0.610687, 0.648, 0.2977099
0.0770294, -0.0135958, 0.65475, 0.0050049, 0.65475, -1.0115356, 0.65475, -0.1417236, 0.65475, -2.5954199, 0.65475, -1.3816794, 0.65475, 0.0458015
0.0778235, -0.0125887, 0.6615, 0.0049438, 0.6615, -1.0101318, 0.6615, -0.1405029, 0.6615, -2.3282442, 0.6615, -2.3129771, 0.6615, -0.4122137
0.0786176, -0.0135958, 0.66825, 0.006958, 0.66825, -1.0119019, 0.66825, -0.1416016, 0.66825, -1.961832, 0.66825, -3.4732823, 0.66825, -0.3816794
0.0794118, -0.0162814, 0.675, 0.0119019, 0.675, -1.0134277, 0.675, -0.1415405, 0.675, -1.7328244, 0.675, -4.2137403, 0.675, -0.5267175
0.0802059, -0.0176242, 0.68175, 0.0220947, 0.68175, -1.0126343, 0.68175, -0.144165, 0.68175, -1.3053435, 0.68175, -4.5725193, 0.68175, -0.6946565
0.081, -0.0196384, 0.6885, 0.0325928, 0.6885, -1.0124512, 0.6885, -0.1497192, 0.6885, -1.091603, 0.6885, -4.7328243, 0.6885, -1.091603
0.0817941, -0.0191348, 0.69525, 0.0411377, 0.69525, -1.0125122, 0.69525, -0.1520996, 0.69525, -1.0305344, 0.69525, -3.9541984, 0.69525, -1.1832061
0.0825882, -0.0209812, 0.702, 0.039917, 0.702, -1.0119629, 0.702, -0.1586304, 0.702, -1, 0.702, -3.2977099, 0.702, -1.2442749
0.0833824, -0.0209812, 0.70875, 0.0383301, 0.70875, -1.0144043, 0.70875, -0.1589966, 0.70875, -0.4580153, 0.70875, -2.0534351, 0.70875, -1.2900764
0.0841765, -0.0193027, 0.7155, 0.0284424, 0.7155, -1.0115356, 0.7155, -0.156311, 0.7155, -0.3664122, 0.7155, -0.6717557, 0.7155, -1.351145
0.0849706, -0.0152743, 0.72225, 0.0255127, 0.72225, -1.0129395, 0.72225, -0.1522217, 0.72225, -0.1068702, 0.72225, 0.610687, 0.72225, -1.4885496
0.0857647, -0.0149386, 0.729, 0.0224609, 0.729, -1.0151978, 0.729, -0.1550293, 0.729, 0.4045801, 0.729, 0.8778626, 0.729, -1.6564885
0.0865588, -0.0109102, 0.73575, 0.0145874, 0.73575, -1.0181274, 0.73575, -0.15271, 0.73575, 0.6183206, 0.73575, 1.5648855, 0.73575, -1.610687
0.0873529, -0.0105745, 0.7425, 0.0172729, 0.7425, -1.0174561, 0.7425, -0.1489868, 0.7425, 0.8320611, 0.7425, 1.961832, 0.7425, -1.7480916
0.0881471, -0.0119173, 0.74925, 0.0213623, 0.74925, -1.0141602, 0.74925, -0.1412964, 0.74925, 1.1068702, 0.74925, 2.2824428, 0.74925, -1.7251909
0.0889412, -0.0129244, 0.756, 0.0263672, 0.756, -1.0108032, 0.756, -0.1433716, 0.756, 1.4427481, 0.756, 2.3969467, 0.756, -1.8320611
0.0897353, -0.0119173, 0.76275, 0.0280151, 0.76275, -1.0112915, 0.76275, -0.1408691, 0.76275, 1.5267175, 0.76275, 2.740458, 0.76275, -1.9770992
0.0905294, -0.0065461, 0.7695, 0.0249023, 0.7695, -1.0082397, 0.7695, -0.135437, 0.7695, 1.648855, 0.7695, 3.2824428, 0.7695, -2
0.0913235, -0.0095674, 0.77625, 0.0139771, 0.77625, -1.0041504, 0.77625, -0.131897, 0.77625, 1.6030535, 0.77625, 3.0305343, 0.77625, -2.3435113
0.0921176, -0.0102388, 0.783, 0.0097656, 0.783, -1.0061646, 0.783, -0.1264648, 0.783, 1.648855, 0.783, 2.778626, 0.783, -2.4961832
0.0929118, -0.0129244, 0.78975, 0.0083008, 0.78975, -1.0117798, 0.78975, -0.1296387, 0.78975, 1.6946565, 0.78975, 2.221374, 0.78975, -2.610687
0.0937059, -0.0169528, 0.7965, 0.007019, 0.7965, -1.0148926, 0.7965, -0.1303101, 0.7965, 1.6030535, 0.7965, 1.3129771, 0.7965, -2.9770992
0.0945, -0.0162814, 0.80325, 0.0083008, 0.80325, -1.0123291, 0.80325, -0.1271973, 0.80325, 1.5725191, 0.80325, 0.6793893, 0.80325, -3.1679389
0.0952941, -0.0169528, 0.81, 0.0153198, 0.81, -1.0093384, 0.81, -0.1314087, 0.81, 1.6412214, 0.81, 0.3740458, 0.81, -3.3969467
0.0960882, -0.0179599, 0.81675, 0.0180054, 0.81675, -1.0075073, 0.81675, -0.1332397, 0.81675, 1.610687, 0.81675, 0.3969466, 0.81675, -3.0687022
0.0968824, -0.0193027, 0.8235, 0.0328979, 0.8235, -1.0057983, 0.8235, -0.1351318, 0.8235, 1.7480916, 0.8235, 0.8778626, 0.8235, -3.4045801
0.0976765, -0.0203098, 0.83025, 0.0338745, 0.83025, -1.0049438, 0.83025, -0.1379395, 0.83025, 1.5648855, 0.83025, 1.7099236, 0.83025, -3.4732823
0.0984706, -0.0370947, 0.837, 0.0346069, 0.837, -1.0061035, 0.837, -0.1372681, 0.837, 1.4503816, 0.837, 2.9236641, 0.837, -3.4580152
0.0992647, -0.0488441, 0.84375, 0.0309448, 0.84375, -1.0038452, 0.84375, -0.1378784, 0.84375, 1.5343511, 0.84375, 4.1450381, 0.84375, -3.4885497
0.1000588, -0.0446479, 0.8505, 0.0222168, 0.8505, -1.0042725, 0.8505, -0.1339111, 0.8505, 1.5038168, 0.8505, 5.0229006, 0.8505, -3.6564887
0.1008529, -0.0330663, 0.85725, 0.0128174, 0.85725, -1.0063477, 0.85725, -0.1304321, 0.85725, 1.4427481, 0.85725, 5.2137403, 0.85725, -3.740458
0.1016471, -0.0234989, 0.864, 0.0066528, 0.864, -1.0112305, 0.864, -0.1279297, 0.864, 1.4732825, 0.864, 5.2366414, 0.864, -3.8473282
0.1024412, -0.014435, 0.87075, 0.0080566, 0.87075, -1.0151978, 0.87075, -0.1274414, 0.87075, 1.5801526, 0.87075, 5.0229006, 0.87075, -3.9236641
0.1032353, 0.0065461, 0.8775, 0.0117798, 0.8775, -1.0153809, 0.8775, -0.1264038, 0.8775, 1.2977099, 0.8775, 5.0229006, 0.8775, -3.9312978
0.1040294, 0.0134279, 0.88425, 0.0132446, 0.88425, -1.0143433, 0.88425, -0.12146, 0.88425, 1.351145, 0.88425, 4.6946564, 0.88425, -4.0916033
0.1048235, -0.0097353, 0.891, 0.0159302, 0.891, -1.0108032, 0.891, -0.118103, 0.891, 1.1145039, 0.891, 4.7633586, 0.891, -4.1297708
0.1056176, 0.0172885, 0.89775, 0.0165405, 0.89775, -1.0114136, 0.89775, -0.116394, 0.89775, 1.0992366, 0.89775, 4.8244276, 0.89775, -4.2366414
0.1064118, 0.0327306, 0.9045, 0.0188599, 0.9045, -1.0077515, 0.9045, -0.114502, 0.9045, 0.5648855, 0.9045, 5.3511453, 0.9045, -4.2900763
0.1072059, 0.0082246, 0.91125, 0.0162964, 0.91125, -1.0085449, 0.91125, -0.1091919, 0.91125, 0.1526718, 0.91125, 5.3435116, 0.91125, -4.2519083
0.108, -0.0095674, 0.918, 0.0084229, 0.918, -1.0122681, 0.918, -0.1022339, 0.918, -0.259542, 0.918, 5.038168, 0.918, -4.3664122
0.1087941, -0.0102388, 0.92475, 0.008728, 0.92475, -1.010376, 0.92475, -0.0964966, 0.92475, -0.7862595, 0.92475, 4.6412215, 0.92475, -4.5572519
0.1095882, -0.0135958, 0.9315, 0.0095825, 0.9315, -1.0043335, 0.9315, -0.0895996, 0.9315, -0.8854962, 0.9315, 4.4045801, 0.9315, -4.6641221
0.1103824, -0.0171206, 0.93825, 0.012207, 0.93825, -1.0026245, 0.93825, -0.0876465, 0.93825, -1.3206106, 0.93825, 3.0229008, 0.93825, -4.4580154
0.1111765, -0.0196384, 0.945, 0.0259399, 0.945, -1.0040283, 0.945, -0.0918579, 0.945, -1.6030535, 0.945, 1.5267175, 0.945, -4.5038166
0.1119706, -0.0236667, 0.95175, 0.041687, 0.95175, -1.0015869, 0.95175, -0.1064453, 0.95175, -1.7251909, 0.95175, 0.0305344, 0.95175, -4.7480917
0.1127647, -0.0260166, 0.9585, 0.0487671, 0.9585, -0.9993286, 0.9585, -0.1148071, 0.9585, -2.3053436, 0.9585, -0.5496183, 0.9585, -4.8167939
0.1135588, -0.0265202, 0.96525, 0.0574341, 0.96525, -1.0032349, 0.96525, -0.1148682, 0.96525, -2.7862597, 0.96525, -0.3816794, 0.96525, -5.0076337
0.1143529, -0.0298772, 0.972, 0.0560913, 0.972, -1.0048828, 0.972, -0.116394, 0.972, -2.961832, 0.972, -0.0534351, 0.972, -5.221374
0.1151471, -0.0330663, 0.97875, 0.0541992, 0.97875, -1.0072021, 0.97875, -0.1295776, 0.97875, -3.2366412, 0.97875, 0.5877863, 0.97875, -5.0839696
0.1159412, -0.0310521, 0.9855, 0.0477905, 0.9855, -1.00354, 0.9855, -0.137207, 0.9855, -3.351145, 0.9855, 1.2442749, 0.9855, -4.8702292
0.1167353, -0.0352483, 0.99225, 0.0422363, 0.99225, -1.0019531, 0.99225, -0.138855, 0.99225, -3.2519083, 0.99225, 1.8931298, 0.99225, -4.8931298
0.1175294, -0.0337377, 0.999, 0.0370483, 0.999, -0.9991455, 0.999, -0.1396484, 0.999, -3.3969467, 0.999, 2.648855, 0.999, -5.0229006
0.1183235, -0.0310521, 1.00575, 0.0291748, 1.00575, -1.0002441, 1.00575, -0.1373901, 1.00575, -3.3969467, 1.00575, 2.9160306, 1.00575, -4.8778625
0.1191176, -0.0260166, 1.0125, 0.0184937, 1.0125, -1.0006714, 1.0125, -0.1370239, 1.0125, -3.610687, 1.0125, 2.9694657, 1.0125, -4.7328243
0.1199118, -0.0176242, 1.01925, 0.0118408, 1.01925, -1.0037842, 1.01925, -0.1381226, 1.01925, -3.3358779, 1.01925, 2.9007633, 1.01925, -4.5496182
0.1207059, -0.0176242, 1.026, 0.0147705, 1.026, -0.9996948, 1.026, -0.1411743, 1.026, -3.3587787, 1.026, 2.9236641, 1.026, -4.5572519
0.1215, -0.0139315, 1.03275, 0.0227661, 1.03275, -0.9998779, 1.03275, -0.1413574, 1.03275, -3.5648854, 1.03275, 2.610687, 1.03275, -4.4274807
0.1222941, -0.0109102, 1.0395, 0.0354614, 1.0395, -1.00177, 1.0395, -0.1387329, 1.0395, -3.7633588, 1.0395, 2.8396947, 1.0395, -4.3358779
0.1230882, -0.0112459, 1.04625, 0.0469971, 1.04625, -1.0015869, 1.04625, -0.1367798, 1.04625, -3.648855, 1.04625, 3.389313, 1.04625, -4.0152674
0.1238824, -0.0102388, 1.053, 0.0477295, 1.053, -0.9992065, 1.053, -0.1375122, 1.053, -3.3435113, 1.053, 4.1755724, 1.053, -3.8778627
0.1246765, -0.0105745, 1.05975, 0.0424805, 1.05975, -0.9963989, 1.05975, -0.1409302, 1.05975, -3.221374, 1.05975, 5.0992365, 1.05975, -3.7099237
0.1254706, -0.0204776, 1.0665, 0.0379028, 1.0665, -1.0032349, 1.0665, -0.1419067, 1.0665, -3.1679389, 1.0665, 5.1984735, 1.0665, -3.6946564
0.1262647, -0.0327306, 1.07325, 0.0378418, 1.07325, -1.0057983, 1.07325, -0.1447754, 1.07325, -3.0992367, 1.07325, 4.9389315, 1.07325, -3.6793892
0.1270588, -0.0328985, 1.08, 0.034729, 1.08, -1.0099487, 1.08, -0.1447144, 1.08, -3.2290077, 1.08, 4.8167939, 1.08, -3.8015268
0.1278529, -0.0196384, 1.08675, 0.039978, 1.08675, -1.0066528, 1.08675, -0.1459351, 1.08675, -3.129771, 1.08675, 4.4961834, 1.08675, -3.7557251
0.1286471, -0.0050355, 1.0935, 0.041626, 1.0935, -1.0032959, 1.0935, -0.1480103, 1.0935, -3.0687022, 1.0935, 3.5954199, 1.0935, -3.6259542
0.1294412, -0.0075532, 1.10025, 0.0476685, 1.10025, -0.9998779, 1.10025, -0.149292, 1.10025, -2.9923663, 1.10025, 3.0458016, 1.10025, -3.648855
0.1302353, -0.0223239, 1.107, 0.0523682, 1.107, -1.0014038, 1.107, -0.1531372, 1.107, -2.961832, 1.107, 2.9923663, 1.107, -3.6030533
0.1310294, -0.0382696, 1.11375, 0.0508423, 1.11375, -0.9992065, 1.11375, -0.1518555, 1.11375, -3.129771, 1.11375, 3.0992367, 1.11375, -3.3282442
0.1318235, -0.0518654, 1.1205, 0.0475464, 1.1205, -0.996582, 1.1205, -0.1499023, 1.1205, -3.1068702, 1.1205, 3.1374047, 1.1205, -3.4045801
0.1326176, -0.0525368, 1.12725, 0.0450439, 1.12725, -1.0010376, 1.12725, -0.1514893, 1.12725, -3.0152671, 1.12725, 3.2671757, 1.12725, -3.2977099
0.1334118, -0.026688, 1.134, 0.038269, 1.134, -1.0006104, 1.134, -0.1513062, 1.134, -3.0458016, 1.134, 2.7862597, 1.134, -3.2290077
0.1342059, 0.0078889, 1.14075, 0.0366211, 1.14075, -1.0008545, 1.14075, -0.1530151, 1.14075, -3.0076337, 1.14075, 2.4122138, 1.14075, -3.2061069
0.135, 0.021149, 1.1475, 0.0315552, 1.1475, -1.0004883, 1.1475, -0.1442261, 1.1475, -2.6717558, 1.1475, 2.0992367, 1.1475, -3.0076337
0.1357941, 0.0250095, 1.15425, 0.0333862, 1.15425, -1.0022583, 1.15425, -0.149353, 1.15425, -2.5496182, 1.15425, 1.9007634, 1.15425, -2.7709923
0.1365882, 0.0354162, 1.161, 0.0350952, 1.161, -1, 1.161, -0.1592407, 1.161, -2.5725191, 1.161, 1.6870229, 1.161, -2.6870229
0.1373824, 0.0421302, 1.16775, 0.0361938, 1.16775, -1.0014648, 1.16775, -0.1558838, 1.16775, -2.5114503, 1.16775, 1.5954199, 1.16775, -2.6259542
0.1381765, 0.0340734, 1.1745, 0.0443726, 1.1745, -1.0046387, 1.1745, -0.1474609, 1.1745, -2.3740458, 1.1745, 2.0229008, 1.1745, -2.5343511
0.1389706, 0.0327306, 1.18125, 0.0474243, 1.18125, -1.003479, 1.18125, -0.1425171, 1.18125, -2.4656489, 1.18125, 2.6259542, 1.18125, -2.1603053
0.1397647, 0.026688, 1.188, 0.0461426, 1.188, -1.0021362, 1.188, -0.1520996, 1.188, -2.4351146, 1.188, 2.5343511, 1.188, -2.2290077
0.1405588, 0.0135958, 1.19475, 0.0430298, 1.19475, -1.0001221, 1.19475, -0.1450806, 1.19475, -2.6870229, 1.19475, 3, 1.19475, -1.8778626
0.1413529, -0.0001678, 1.2015, 0.0406494, 1.2015, -1.0004883, 1.2015, -0.1378784, 1.2015, -2.8167939, 1.2015, 2.7022901, 1.2015, -1.7480916
0.1421471, -0.005539, 1.20825, 0.0354614, 1.20825, -1.0021362, 1.20825, -0.1391602, 1.20825, -2.6870229, 1.20825, 1.7480916, 1.20825, -1.7557251
0.1429412, -0.0139315, 1.215, 0.0322876, 1.215, -1.0015869, 1.215, -0.1392212, 1.215, -2.8549619, 1.215, 1.2519084, 1.215, -1.6870229
0.1437353, -0.0203098, 1.22175, 0.0281372, 1.22175, -0.9985352, 1.22175, -0.1395874, 1.22175, -3.0839694, 1.22175, 0.1908397, 1.22175, -1.5725191
0.1445294, -0.0243381, 1.2285, 0.022522, 1.2285, -0.9962769, 1.2285, -0.1387329, 1.2285, -3.2061069, 1.2285, -1.5267175, 1.2285, -1.6259542
0.1453235, -0.0283665, 1.23525, 0.020813, 1.23525, -0.9985962, 1.23525, -0.1369629, 1.23525, -3.3358779, 1.23525, -2.740458, 1.23525, -1.6793894
0.1461176, -0.0303807, 1.242, 0.0219727, 1.242, -1.0021973, 1.242, -0.1422729, 1.242, -3.4503818, 1.242, -3.3435113, 1.242, -1.5572519
0.1469118, -0.0303807, 1.24875, 0.0276489, 1.24875, -1.0037842, 1.24875, -0.1445923, 1.24875, -3.7022901, 1.24875, -4.519084, 1.24875, -1.519084
0.1477059, -0.0323949, 1.2555, 0.0290527, 1.2555, -1.0026855, 1.2555, -0.1461792, 1.2555, -3.6641221, 1.2555, -5.5114503, 1.2555, -1.2366412
0.1485, -0.0313878, 1.26225, 0.0383301, 1.26225, -1.0015869, 1.26225, -0.1480713, 1.26225, -3.8549619, 1.26225, -6.1145039, 1.26225, -1.3206106
0.1492941, -0.0283665, 1.269, 0.0452881, 1.269, -1.0003052, 1.269, -0.1494141, 1.269, -4.0534353, 1.269, -5.9694657, 1.269, -1.1145039
0.1500882, -0.0303807, 1.27575, 0.0545654, 1.27575, -0.99646, 1.27575, -0.1554565, 1.27575, -4.0687022, 1.27575, -5.7938933, 1.27575, -0.7938932
0.1508824, -0.0323949, 1.2825, 0.0563965, 1.2825, -0.9997559, 1.2825, -0.1548462, 1.2825, -3.9694657, 1.2825, -4.5954199, 1.2825, -0.5725191
0.1516765, -0.0297093, 1.28925, 0.0568848, 1.28925, -1.0020142, 1.28925, -0.1495972, 1.28925, -3.6946564, 1.28925, -3.5725191, 1.28925, -0.1526718
0.1524706, -0.0270237, 1.296, 0.0539551, 1.296, -0.994873, 1.296, -0.1512451, 1.296, -3.7480917, 1.296, -3.4122138, 1.296, -0.0610687
0.1532647, -0.0283665, 1.30275, 0.0442505, 1.30275, -0.9899292, 1.30275, -0.1558228, 1.30275, -3.8015268, 1.30275, -3.5496182, 1.30275, -0.0381679
0.1540588, -0.023331, 1.3095, 0.034668, 1.3095, -0.9854736, 1.3095, -0.1528931, 1.3095, -3.8167939, 1.3095, -3.7557251, 1.3095, 0.1374046
0.1548529, -0.0182956, 1.31625, 0.0297241, 1.31625, -0.9905396, 1.31625, -0.1521606, 1.31625, -3.8396947, 1.31625, -4.8549619, 1.31625, 0.2519084
0.1556471, -0.0203098, 1.323, 0.0394897, 1.323, -0.996582, 1.323, -0.1533813, 1.323, -3.610687, 1.323, -5.4274807, 1.323, 0.3740458
0.1564412, -0.0162814, 1.32975, 0.0592651, 1.32975, -0.9994507, 1.32975, -0.1557617, 1.32975, -3.1450381, 1.32975, -6.2137403, 1.32975, 0.6259542
0.1572353, -0.0146029, 1.3365, 0.0889282, 1.3365, -1.0028687, 1.3365, -0.1549683, 1.3365, -2.740458, 1.3365, -5.7862597, 1.3365, 1.0534351
0.1580294, -0.0172885, 1.34325, 0.1045532, 1.34325, -1.0089722, 1.34325, -0.1369019, 1.34325, -1.610687, 1.34325, -4.9007635, 1.34325, 1.4885496
0.1588235, -0.0218204, 1.35, 0.1010132, 1.35, -1.0078125, 1.35, -0.1268311, 1.35, 0.648855, 1.35, -2.4427481, 1.35, 1.5725191
0.1596176, -0.0216526, 1.35675, 0.0773315, 1.35675, -1.0004883, 1.35675, -0.1404419, 1.35675, 2.2442749, 1.35675, 2.4885497, 1.35675, 2.0992367
0.1604118, -0.0223239, 1.3635, 0.0571289, 1.3635, -0.9966431, 1.3635, -0.1502686, 1.3635, 3.1755726, 1.3635, 6.4198475, 1.3635, 2.9541984
0.1612059, -0.0243381, 1.37025, 0.0053711, 1.37025, -0.9978638, 1.37025, -0.1657715, 1.37025, 4.3358779, 1.37025, 7.480916, 1.37025, 3.2748091
0.162, -0.0263523, 1.377, -0.0467529, 1.377, -1.0116577, 1.377, -0.1693726, 1.377, 4.7633586, 1.377, 6.9160304, 1.377, 3.778626
0.1627941, -0.0276951, 1.38375, -0.0643921, 1.38375, -1.0265503, 1.38375, -0.177002, 1.38375, 4.9770994, 1.38375, 2.9007633, 1.38375, 3.6183207
0.1635882, -0.0256809, 1.3905, -0.0598755, 1.3905, -1.0332642, 1.3905, -0.2038574, 1.3905, 5.1526718, 1.3905, -2.8778627, 1.3905, 2.7633588
0.1643824, -0.023331, 1.39725, -0.0322876, 1.39725, -1.0228271, 1.39725, -0.2199097, 1.39725, 5.2137403, 1.39725, -5.4427481, 1.39725, 2.3969467
0.1651765, -0.0203098, 1.404, 0.0088501, 1.404, -1.0081177, 1.404, -0.2261963, 1.404, 4.6564884, 1.404, -7.8015265, 1.404, 2.2061069
0.1659706, -0.0216526, 1.41075, 0.0559692, 1.41075, -1.0062866, 1.41075, -0.2347412, 1.41075, 4.9007635, 1.41075, -5.8473282, 1.41075, 2.1908398
0.1667647, -0.0213169, 1.4175, 0.0842896, 1.4175, -1.0083008, 1.4175, -0.2392578, 1.4175, 5.4732823, 1.4175, -2.259542, 1.4175, 2.6793892
0.1675588, -0.0186313, 1.42425, 0.083374, 1.42425, -1.0053101, 1.42425, -0.2247314, 1.42425, 5.519084, 1.42425, 1.2442749, 1.42425, 2.9312978
0.1683529, -0.0169528, 1.431, 0.0505981, 1.431, -0.9976807, 1.431, -0.2105713, 1.431, 6.1374044, 1.431, 4.0458016, 1.431, 2.8549619
0.1691471, -0.0142672, 1.43775, 0.0330811, 1.43775, -0.9973755, 1.43775, -0.2059326, 1.43775, 6.1450381, 1.43775, 4.9389315, 1.43775, 2.5801528
0.1699412, -0.0137636, 1.4445, -0.0073242, 1.4445, -1.0042725, 1.4445, -0.1931763, 1.4445, 5.519084, 1.4445, 3.8931298, 1.4445, 2.2671757
0.1707353, -0.012253, 1.45125, -0.0408936, 1.45125, -1.0146484, 1.45125, -0.1688843, 1.45125, 5.1297708, 1.45125, 1.5038168, 1.45125, 2.1145039
0.1715294, -0.0132601, 1.458, -0.0657349, 1.458, -1.019043, 1.458, -0.1520996, 1.458, 4.7480917, 1.458, -2.7251909, 1.458, 1.5572519
0.1723235, -0.0129244, 1.46475, -0.0714722, 1.46475, -1.0093994, 1.46475, -0.1421509, 1.46475, 4.4503818, 1.46475, -7.9694657, 1.46475, 1.1221374
0.1731176, -0.0102388, 1.4715, -0.0554199, 1.4715, -0.9998169, 1.4715, -0.1497803, 1.4715, 4.1679387, 1.4715, -12.2137403, 1.4715, 0.8854962
0.1739118, -0.0095674, 1.47825, -0.0272827, 1.47825, -1.0055542, 1.47825, -0.1538696, 1.47825, 3.9236641, 1.47825, -14, 1.47825, 0.7709923
0.1747059, -0.0105745, 1.485, 0.005127, 1.485, -1.015686, 1.485, -0.1555176, 1.485, 3.7099237, 1.485, -14.8854961, 1.485, 0.4045801
0.1755, -0.0095674, 1.49175, 0.0385132, 1.49175, -1.010498, 1.49175, -0.1556396, 1.49175, 3.5267177, 1.49175, -13.3282442, 1.49175, 0.2748092
0.1762941, -0.0112459, 1.4985, 0.0547485, 1.4985, -0.9993896, 1.4985, -0.1590576, 1.4985, 3.2977099, 1.4985, -9.2977095, 1.4985, 0.519084
0.1770882, -0.0105745, 1.50525, 0.0484009, 1.50525, -0.9911499, 1.50525, -0.1628418, 1.50525, 3.1908398, 1.50525, -4.0687022, 1.50525, 0.7557252
0.1778824, -0.0102388, 1.512, 0.0271606, 1.512, -0.9940186, 1.512, -0.1451416, 1.512, 2.3129771, 1.512, 0.3664122, 1.512, 1.0458015
0.1786765, -0.012253, 1.51875, 0.0161133, 1.51875, -0.9935913, 1.51875, -0.1404419, 1.51875, 2.5267177, 1.51875, 2.6717558, 1.51875, 1.1908396
0.1794706, -0.012253, 1.5255, -0.0078735, 1.5255, -0.9886475, 1.5255, -0.145813, 1.5255, 2.0839694, 1.5255, 2.6030533, 1.5255, 0.8167939
0.1802647, -0.0149386, 1.53225, -0.0339355, 1.53225, -0.99646, 1.53225, -0.1339722, 1.53225, 1.2442749, 1.53225, 2.1221373, 1.53225, 0.3206107
0.1810588, -0.018967, 1.539, -0.0411987, 1.539, -1.0115967, 1.539, -0.1156006, 1.539, 0.8167939, 1.539, -0.2061069, 1.539, -0.3282443
0.1818529, -0.0154421, 1.54575, -0.0375366, 1.54575, -1.0201416, 1.54575, -0.1239624, 1.54575, 0.870229, 1.54575, -2.870229, 1.54575, -0.9694657
0.1826471, -0.0171206, 1.5525, -0.0302124, 1.5525, -1.0227051, 1.5525, -0.1298218, 1.5525, 0.3129771, 1.5525, -3.6030533, 1.5525, -1.1908396
0.1834412, -0.0157778, 1.55925, -0.0176392, 1.55925, -1.0332031, 1.55925, -0.1262817, 1.55925, -0.5877863, 1.55925, -4.3969464, 1.55925, -1.7633588
0.1842353, -0.0129244, 1.566, -0.0096436, 1.566, -1.0410767, 1.566, -0.1283569, 1.566, -0.9389313, 1.566, -4.4045801, 1.566, -2.3435113
0.1850294, -0.0130922, 1.57275, -0.0097046, 1.57275, -1.0372925, 1.57275, -0.1366577, 1.57275, -0.9236641, 1.57275, -3.0076337, 1.57275, -2.7328243
0.1858235, -0.0127565, 1.5795, -0.0140991, 1.5795, -1.0293579, 1.5795, -0.1473389, 1.5795, -1.1068702, 1.5795, -0.7251908, 1.5795, -2.9923663
0.1866176, -0.011078, 1.58625, -0.0143433, 1.58625, -1.0245972, 1.58625, -0.159729, 1.58625, -1.2442749, 1.58625, 1.091603, 1.58625, -3.5496182
0.1874118, -0.0092317, 1.593, -0.0114136, 1.593, -1.0241699, 1.593, -0.1695557, 1.593, -1.3129771, 1.593, 2.3969467, 1.593, -4.0229006
0.1882059, -0.0072175, 1.59975, -0.0014648, 1.59975, -1.0254517, 1.59975, -0.1924438, 1.59975, -1.4656489, 1.59975, 5.1145039, 1.59975, -4.6946564
0.189, -0.0041962, 1.6065, 0.0114746, 1.6065, -1.0244751, 1.6065, -0.2011719, 1.6065, -1.519084, 1.6065, 8.2519083, 1.6065, -5.0458016
0.1897941, -0.0026856, 1.61325, 0.0148315, 1.61325, -1.020813, 1.61325, -0.1975098, 1.61325, -1.1832061, 1.61325, 12.0763359, 1.61325, -5.1984735
0.1905882, -0.0038605, 1.62, 0.0072021, 1.62, -1.0166626, 1.62, -0.1966553, 1.62, -0.4885496, 1.62, 14.679389, 1.62, -5.5038166
0.1913824, -0.0035248, 1.62675, -0.0021973, 1.62675, -1.0163574, 1.62675, -0.2022705, 1.62675, 0.1908397, 1.62675, 16.2137413, 1.62675, -5.6412215
0.1921765, -0.0031891, 1.6335, -0.0089722, 1.6335, -1.0180054, 1.6335, -0.2012329, 1.6335, 0.5877863, 1.6335, 16.3893127, 1.6335, -5.9389315
0.1929706, -0.0062104, 1.64025, -0.0099487, 1.64025, -1.0233765, 1.64025, -0.1972656, 1.64025, 1.6335878, 1.64025, 16.1679382, 1.64025, -6.1297708
0.1937647, -0.0109102, 1.647, 0.0003052, 1.647, -1.0180054, 1.647, -0.1994019, 1.647, 2.8244274, 1.647, 15.4656487, 1.647, -6.4656487
0.1945588, -0.0152743, 1.65375, 0.0084229, 1.65375, -1.0083008, 1.65375, -0.2045898, 1.65375, 3.7251909, 1.65375, 14.6717558, 1.65375, -6.8167939
0.1953529, -0.0149386, 1.6605, 0.0090942, 1.6605, -0.9995728, 1.6605, -0.1976929, 1.6605, 4.1908398, 1.6605, 14.2671757, 1.6605, -6.9465647
0.1961471, -0.0179599, 1.66725, 0.0078125, 1.66725, -1.0004883, 1.66725, -0.1850586, 1.66725, 4.7099237, 1.66725, 13.7480917, 1.66725, -7.1068702
0.1969412, -0.0157778, 1.674, 0.0061646, 1.674, -1.0026245, 1.674, -0.1791992, 1.674, 5.1450381, 1.674, 12.961832, 1.674, -7.3511453
0.1977353, -0.0213169, 1.68075, 0.0021362, 1.68075, -1.0068359, 1.68075, -0.1731567, 1.68075, 5.6030536, 1.68075, 11.5496187, 1.68075, -7.6412215
0.1985294, -0.024506, 1.6875, 0.003418, 1.6875, -1.0085449, 1.6875, -0.1750488, 1.6875, 5.8549619, 1.6875, 9.9007635, 1.6875, -7.8473282
0.1993235, -0.0229953, 1.69425, 0.006897, 1.69425, -1.0127563, 1.69425, -0.1682739, 1.69425, 6.0687022, 1.69425, 9.2366409, 1.69425, -7.9465647
0.2001176, -0.026688, 1.701, 0.0144653, 1.701, -1.0222778, 1.701, -0.1658325, 1.701, 6.6183205, 1.701, 8.4656487, 1.701, -8.1755724
0.2009118, -0.0283665, 1.70775, 0.0151367, 1.70775, -1.0206299, 1.70775, -0.168457, 1.70775, 6.6717558, 1.70775, 8.3129768, 1.70775, -8.0152674
0.2017059, -0.0251774, 1.7145, 0.0135498, 1.7145, -1.0223389, 1.7145, -0.1716309, 1.7145, 6.9923663, 1.7145, 8.2442751, 1.7145, -8.1221371
0.2025, -0.021149, 1.72125, 0.0065308, 1.72125, -1.022644, 1.72125, -0.1704712, 1.72125, 6.9923663, 1.72125, 8.5267172, 1.72125, -8.2519083
0.2032941, -0.0169528, 1.728, -0.0009766, 1.728, -1.0232544, 1.728, -0.1643677, 1.728, 7.480916, 1.728, 8.6183205, 1.728, -8.3129768
0.2040882, -0.01561, 1.73475, -0.0177612, 1.73475, -1.0241089, 1.73475, -0.1657104, 1.73475, 8.0152674, 1.73475, 7.4656487, 1.73475, -8.5954199
0.2048824, -0.0162814, 1.7415, -0.0275879, 1.7415, -1.0172729, 1.7415, -0.1651611, 1.7415, 8.4274807, 1.7415, 5.8854961, 1.7415, -8.8702288
0.2056765, -0.008896, 1.74825, -0.0229492, 1.74825, -1.015564, 1.74825, -0.1661987, 1.74825, 9.0534353, 1.74825, 4.4198475, 1.74825, -9.2900763
0.2064706, -0.0052033, 1.755, -0.0177002, 1.755, -1.0195312, 1.755, -0.1674805, 1.755, 9.0687027, 1.755, 3.1908398, 1.755, -9.5801525
0.2072647, -0.008896, 1.76175, -0.0186157, 1.76175, -1.0224609, 1.76175, -0.1607666, 1.76175, 9.4427481, 1.76175, 2.778626, 1.76175, -9.961832
0.2080588, -0.0125887, 1.7685, -0.0157471, 1.7685, -1.0248413, 1.7685, -0.1536865, 1.7685, 9.641221, 1.7685, 2.9312978, 1.7685, -10.480916
0.2088529, -0.0115816, 1.77525, -0.0110474, 1.77525, -1.024292, 1.77525, -0.145813, 1.77525, 9.8320608, 1.77525, 3.4961832, 1.77525, -10.5877867
0.2096471, -0.0159457, 1.782, -0.0076904, 1.782, -1.0241089, 1.782, -0.1384888, 1.782, 9.7938929, 1.782, 4.7099237, 1.782, -10.7022905
0.2104412, -0.0135958, 1.78875, -0.0010986, 1.78875, -1.0195923, 1.78875, -0.1270142, 1.78875, 9.7022905, 1.78875, 5.6030536, 1.78875, -10.6870232
0.2112353, -0.0139315, 1.7955, 0.0005493, 1.7955, -1.0179443, 1.7955, -0.118103, 1.7955, 9.4656487, 1.7955, 7.2137403, 1.7955, -10.5572519
0.2120294, -0.017792, 1.80225, -0.0006714, 1.80225, -1.0184326, 1.80225, -0.1139526, 1.80225, 9.1755724, 1.80225, 8.1755724, 1.80225, -10.7786255
0.2128235, -0.018967, 1.809, -0.0045776, 1.809, -1.010437, 1.809, -0.1005249, 1.809, 8.5801525, 1.809, 9.0992365, 1.809, -11.198473
0.2136176, -0.0231632, 1.81575, -0.0140381, 1.81575, -1.0021973, 1.81575, -0.0927124, 1.81575, 7.9694657, 1.81575, 9.5038166, 1.81575, -11.480916
0.2144118, -0.0196384, 1.8225, -0.0172729, 1.8225, -0.9923706, 1.8225, -0.0835571, 1.8225, 7.3053436, 1.8225, 8.9083967, 1.8225, -11.8625956
0.2152059, -0.0199741, 1.82925, -0.0184937, 1.82925, -0.9900513, 1.82925, -0.0785522, 1.82925, 6.519084, 1.82925, 7.5343513, 1.82925, -12.2290077
0.216, -0.0204776, 1.836, -0.0158081, 1.836, -0.9884033, 1.836, -0.0766602, 1.836, 5.2671757, 1.836, 6.3816795, 1.836, -12.358779
0.2167941, -0.0246738, 1.84275, -0.0044556, 1.84275, -0.9915771, 1.84275, -0.0609741, 1.84275, 4.2900763, 1.84275, 5.7480917, 1.84275, -12.6946564
0.2175882, -0.0236667, 1.8495, 0.0059204, 1.8495, -0.9941406, 1.8495, -0.0450439, 1.8495, 3.6793892, 1.8495, 5.4427481, 1.8495, -13.0763359
0.2183824, -0.0236667, 1.85625, 0.0165405, 1.85625, -0.9976196, 1.85625, -0.0423584, 1.85625, 3.610687, 1.85625, 5.6717558, 1.85625, -13.1908398
0.2191765, -0.0238346, 1.863, 0.0320435, 1.863, -0.9978027, 1.863, -0.0469971, 1.863, 3.2137403, 1.863, 5.6717558, 1.863, -13.1908398
0.2199706, -0.0229953, 1.86975, 0.0512695, 1.86975, -1.0004272, 1.86975, -0.0475464, 1.86975, 2.5954199, 1.86975, 6.1068702, 1.86975, -13.0992365
0.2207647, -0.0226596, 1.8765, 0.0534058, 1.8765, -1.0029907, 1.8765, -0.0466919, 1.8765, 1.2900764, 1.8765, 6.9160304, 1.8765, -12.9694653
0.2215588, -0.0142672, 1.88325, 0.0513916, 1.88325, -1.00177, 1.88325, -0.0496216, 1.88325, -0.221374, 1.88325, 7.9465647, 1.88325, -13.198473
0.2223529, -0.0102388, 1.89, 0.0465088, 1.89, -0.9991455, 1.89, -0.0596313, 1.89, -1.9541985, 1.89, 8.3282442, 1.89, -13.3129768
0.2231471, -0.0149386, 1.89675, 0.0429077, 1.89675, -1.0029297, 1.89675, -0.0631714, 1.89675, -3.6717558, 1.89675, 8.2442751, 1.89675, -13.4427481
0.2239412, -0.01561, 1.9035, 0.0396118, 1.9035, -1.0040283, 1.9035, -0.0661621, 1.9035, -5.221374, 1.9035, 8.1145039, 1.9035, -13.4656487
0.2247353, -0.0119173, 1.91025, 0.0385742, 1.91025, -1.0060425, 1.91025, -0.0636597, 1.91025, -6.9083967, 1.91025, 8.3358774, 1.91025, -13.4580154
0.2255294, -0.0142672, 1.917, 0.0396729, 1.917, -1.0106201, 1.917, -0.065979, 1.917, -8, 1.917, 7.6793895, 1.917, -13.4198475
0.2263235, -0.0142672, 1.92375, 0.0358276, 1.92375, -1.0142212, 1.92375, -0.0758667, 1.92375, -9.160305, 1.92375, 7.961832, 1.92375, -13.2442751
0.2271176, -0.0057069, 1.9305, 0.0272827, 1.9305, -1.0174561, 1.9305, -0.0737915, 1.9305, -10.6183205, 1.9305, 9.2748089, 1.9305, -13.0076332
0.2279118, -0.0052033, 1.93725, 0.0247803, 1.93725, -1.0212402, 1.93725, -0.0685425, 1.93725, -11.9160309, 1.93725, 9.8091602, 1.93725, -12.5419846
0.2287059, -0.0095674, 1.944, 0.0212402, 1.944, -1.0299683, 1.944, -0.0709229, 1.944, -12.3969469, 1.944, 9.5954199, 1.944, -12.2977095
0.2295, -0.0124208, 1.95075, 0.0169067, 1.95075, -1.0379639, 1.95075, -0.0744629, 1.95075, -13.7022905, 1.95075, 9.7328243, 1.95075, -11.7938929
0.2302941, -0.01561, 1.9575, 0.0310059, 1.9575, -1.0510254, 1.9575, -0.0491333, 1.9575, -15.5267172, 1.9575, 11.7022905, 1.9575, -10.9923668
0.2310882, -0.0203098, 1.96425, 0.0349731, 1.96425, -1.0713501, 1.96425, -0.0128784, 1.96425, -16.3893127, 1.96425, 15.7404585, 1.96425, -9.7862597
0.2318824, -0.0226596, 1.971, 0.0368042, 1.971, -1.0690308, 1.971, -0.0137329, 1.971, -13.6183205, 1.971, 21.160305, 1.971, -8.320611
0.2326765, -0.0179599, 1.97775, 0.0472412, 1.97775, -1.050293, 1.97775, -0.0383301, 1.97775, -10.5343513, 1.97775, 26.2290077, 1.97775, -6.7022901
0.2334706, -0.0198062, 1.9845, 0.0553589, 1.9845, -1.0380859, 1.9845, -0.0316772, 1.9845, -11.9770994, 1.9845, 29.4198475, 1.9845, -4.8167939
0.2342647, -0.0196384, 1.99125, 0.057251, 1.99125, -1.0448608, 1.99125, 0.1016846, 1.99125, -12.4885492, 1.99125, 43.7786255, 1.99125, -2.1450381
0.2350588, -0.0172885, 1.998, 0.0457153, 1.998, -1.0587158, 1.998, 0.1048584, 1.998, -2.8091602, 1.998, 53.7251892, 1.998, -0.1984733
0.2358529, -0.0152743, 2.00475, 0.0457764, 2.00475, -1.0202637, 2.00475, -0.1132202, 2.00475, 0.259542, 2.00475, 45.038166, 2.00475, 0.1450382
0.2366471, -0.0139315, 2.0115, 0.0608521, 2.0115, -0.9700928, 2.0115, -0.2763672, 2.0115, -2.648855, 2.0115, 30.0229015, 2.0115, 0.2900763
0.2374412, -0.0142672, 2.01825, 0.0710449, 2.01825, -0.9506836, 2.01825, -0.2562866, 2.01825, -4.3129773, 2.01825, 29.801527, 2.01825, 0.8854962
0.2382353, -0.012253, 2.025, 0.0925293, 2.025, -0.9743652, 2.025, -0.2562256, 2.025, -7.9770994, 2.025, 34.9083977, 2.025, 2.3969467
0.2390294, -0.0097353, 2.03175, 0.1152954, 2.03175, -0.9911499, 2.03175, -0.2811279, 2.03175, -8.8702288, 2.03175, 27.9923668, 2.03175, 2.648855
0.2398235, -0.0092317, 2.0385, 0.1306763, 2.0385, -0.9718018, 2.0385, -0.2991333, 2.0385, -7.1297708, 2.0385, 24.8549614, 2.0385, 3.8473282
0.2406176, -0.0062104, 2.04525, 0.1668091, 2.04525, -0.9508667, 2.04525, -0.3234253, 2.04525, -5.9312978, 2.04525, 31.6183205, 2.04525, 6.7328243
0.2414118, -0.0068818, 2.052, 0.1981201, 2.052, -0.9445801, 2.052, -0.317688, 2.052, -4.3893127, 2.052, 36.7709923, 2.052, 9.0687027
0.2422059, -0.0130922, 2.05875, 0.2080688, 2.05875, -0.9475708, 2.05875, -0.3007202, 2.05875, -1.7480916, 2.05875, 43.122139, 2.05875, 10.7786255
0.243, -0.0176242, 2.0655, 0.2124634, 2.0655, -0.9429321, 2.0655, -0.3062134, 2.0655, 0.9847328, 2.0655, 50.3893127, 2.0655, 12.0458012
0.2437941, -0.0162814, 2.07225, 0.2149048, 2.07225, -0.940979, 2.07225, -0.3300781, 2.07225, 2.6030533, 2.07225, 57.0992355, 2.07225, 12.8778629
0.2445882, -0.0149386, 2.079, 0.2072144, 2.079, -0.951355, 2.079, -0.3245239, 2.079, 5, 2.079, 65.0992355, 2.079, 13.6030531
0.2453824, -0.0149386, 2.08575, 0.1862793, 2.08575, -0.9711914, 2.08575, -0.2994385, 2.08575, 7.8854961, 2.08575, 70.4580154, 2.08575, 13.7480917
0.2461765, -0.0134279, 2.0925, 0.1541748, 2.0925, -0.9658813, 2.0925, -0.2805176, 2.0925, 11.1679392, 2.0925, 70.8396912, 2.0925, 13.5038166
0.2469706, -0.0169528, 2.09925, 0.1107788, 2.09925, -0.9407349, 2.09925, -0.270752, 2.09925, 12.6030531, 2.09925, 69.7022934, 2.09925, 13.0916033
0.2477647, -0.0162814, 2.106, 0.057373, 2.106, -0.9168701, 2.106, -0.2462158, 2.106, 14.6259546, 2.106, 66.4503784, 2.106, 12.320611
0.2485588, -0.0157778, 2.11275, 0.0065918, 2.11275, -0.9006958, 2.11275, -0.242981, 2.11275, 16.2671757, 2.11275, 57.2137413, 2.11275, 10.6259546
0.2493529, -0.012253, 2.1195, -0.0211792, 2.1195, -0.8851318, 2.1195, -0.25354, 2.1195, 17.0687027, 2.1195, 43.4198456, 2.1195, 8.0076332
0.2501471, -0.0142672, 2.12625, -0.0089722, 2.12625, -0.8716431, 2.12625, -0.2679443, 2.12625, 15.8167934, 2.12625, 27.4045811, 2.12625, 4.6412215
0.2509412, -0.0142672, 2.133, 0.0447998, 2.133, -0.8665771, 2.133, -0.2931519, 2.133, 12.1832066, 2.133, 8.9847326, 2.133, 0.7175573
0.2517353, -0.0157778, 2.13975, 0.0877686, 2.13975, -0.8717651, 2.13975, -0.2869873, 2.13975, 7.0992365, 2.13975, -9.2748089, 2.13975, -3.8931298
0.2525294, -0.0142672, 2.1465, 0.1427002, 2.1465, -0.9240112, 2.1465, -0.2453613, 2.1465, 4.5877862, 2.1465, -19.358778, 2.1465, -7.6641221
0.2533235, -0.0130922, 2.15325, 0.1643066, 2.15325, -0.9815063, 2.15325, -0.1762695, 2.15325, 5.8396945, 2.15325, -24.1679382, 2.15325, -9.2290077
0.2541176, -0.0142672, 2.16, 0.1956787, 2.16, -1.0026245, 2.16, -0.1485596, 2.16, 8.5877867, 2.16, -26.5877857, 2.16, -9.5572519
0.2549118, -0.01561, 2.16675, 0.2258301, 2.16675, -1.0158081, 2.16675, -0.1470947, 2.16675, 10.6183205, 2.16675, -25.2671757, 2.16675, -9.8244276
0.2557059, -0.0176242, 2.1735, 0.2006836, 2.1735, -1.0327759, 2.1735, -0.1571045, 2.1735, 11.0916033, 2.1735, -23.6717548, 2.1735, -9.480916
0.2565, -0.0176242, 2.18025, 0.1173706, 2.18025, -1.0454102, 2.18025, -0.1358643, 2.18025, 10.9236641, 2.18025, -18.1145039, 2.18025, -8.5954199
0.2572941, -0.0169528, 2.187, 0.0105591, 2.187, -1.0594482, 2.187, -0.1085205, 2.187, 10.6106873, 2.187, -12.3358774, 2.187, -7.3358779
0.2580882, -0.0176242, 2.19375, -0.0844727, 2.19375, -1.0697632, 2.19375, -0.0978394, 2.19375, 9.9083967, 2.19375, -10.0076332, 2.19375, -6.2671757
0.2588824, -0.0182956, 2.2005, -0.1552734, 2.2005, -1.0769653, 2.2005, -0.0958252, 2.2005, 9.1221371, 2.2005, -9.5572519, 2.2005, -5.3206105
0.2596765, -0.0142672, 2.20725, -0.1845093, 2.20725, -1.0730591, 2.20725, -0.0894165, 2.20725, 8.5801525, 2.20725, -10.1145039, 2.20725, -3.9007633
0.2604706, -0.0129244, 2.214, -0.1906128, 2.214, -1.0699463, 2.214, -0.0876465, 2.214, 7.6717558, 2.214, -11.6183205, 2.214, -2.5801528
0.2612647, -0.0169528, 2.22075, -0.1746826, 2.22075, -1.0681763, 2.22075, -0.0767822, 2.22075, 7.5725193, 2.22075, -13.5419846, 2.22075, -1.4351145
0.2620588, -0.0209812, 2.2275, -0.1378784, 2.2275, -1.060791, 2.2275, -0.0859985, 2.2275, 7.6259542, 2.2275, -15.7862597, 2.2275, -0.5419847
0.2628529, -0.0250095, 2.23425, -0.071167, 2.23425, -1.046936, 2.23425, -0.0993042, 2.23425, 7.3587785, 2.23425, -17.4580154, 2.23425, -0.4198473
0.2636471, -0.023331, 2.241, -0.0046997, 2.241, -1.0372925, 2.241, -0.1104126, 2.241, 6.6564884, 2.241, -17.358778, 2.241, -0.351145
0.2644412, -0.0236667, 2.24775, 0.0582275, 2.24775, -1.0263062, 2.24775, -0.1150513, 2.24775, 5.2061067, 2.24775, -15.0763359, 2.24775, -0.648855
0.2652353, -0.0224918, 2.2545, 0.1083984, 2.2545, -1.0280151, 2.2545, -0.0969238, 2.2545, 4.4427481, 2.2545, -13.2442751, 2.2545, -0.610687
0.2660294, -0.0203098, 2.26125, 0.1380615, 2.26125, -1.0303955, 2.26125, -0.0840454, 2.26125, 3.7862597, 2.26125, -9.8778629, 2.26125, -0.6259542
0.2668235, -0.0216526, 2.268, 0.1414185, 2.268, -1.0213623, 2.268, -0.0835571, 2.268, 4.3435116, 2.268, -8.2137403, 2.268, -0.7328244
0.2676176, -0.0182956, 2.27475, 0.1296387, 2.27475, -1.00177, 2.27475, -0.0898438, 2.27475, 4.9770994, 2.27475, -7.3511453, 2.27475, -0.648855
0.2684118, -0.0213169, 2.2815, 0.1152954, 2.2815, -0.9859009, 2.2815, -0.0873413, 2.2815, 4.7938933, 2.2815, -7.2900763, 2.2815, -0.7175573
0.2692059, -0.0236667, 2.28825, 0.0969238, 2.28825, -0.9838867, 2.28825, -0.0722656, 2.28825, 4.4045801, 2.28825, -8.0687027, 2.28825, -0.8167939
0.27, -0.0203098, 2.295, 0.0848389, 2.295, -0.9827881, 2.295, -0.0704346, 2.295, 4.6183205, 2.295, -9.320611, 2.295, -0.8091603
0.2707941, -0.0137636, 2.30175, 0.0606689, 2.30175, -0.9859619, 2.30175, -0.0772705, 2.30175, 4.4198475, 2.30175, -11.2748089, 2.30175, -0.8931298
0.2715882, -0.0092317, 2.3085, 0.0459595, 2.3085, -0.9872437, 2.3085, -0.0903931, 2.3085, 4.0687022, 2.3085, -13.6259546, 2.3085, -0.8625954
0.2723824, -0.0083925, 2.31525, 0.0421143, 2.31525, -0.9837646, 2.31525, -0.1083984, 2.31525, 3.4656489, 2.31525, -15.038168, 2.31525, -0.778626
0.2731765, -0.0099031, 2.322, 0.0435181, 2.322, -0.9876099, 2.322, -0.1099854, 2.322, 3.0458016, 2.322, -14.9541988, 2.322, -0.3664122
0.2739706, -0.0099031, 2.32875, 0.0453491, 2.32875, -0.9917603, 2.32875, -0.1160889, 2.32875, 2.7938931, 2.32875, -14.4580154, 2.32875, -0.2748092
0.2747647, -0.0115816, 2.3355, 0.0480957, 2.3355, -0.9922485, 2.3355, -0.116394, 2.3355, 2.2442749, 2.3355, -12.717557, 2.3355, 0.1068702
0.2755588, -0.0099031, 2.34225, 0.0356445, 2.34225, -0.9926758, 2.34225, -0.1254272, 2.34225, 2.2366412, 2.34225, -10.717557, 2.34225, 0.0992366
0.2763529, -0.0109102, 2.349, 0.0223389, 2.349, -1.001709, 2.349, -0.1292725, 2.349, 2.0610688, 2.349, -8.480916, 2.349, 0.351145
0.2771471, -0.0102388, 2.35575, 0.0075073, 2.35575, -1.0095215, 2.35575, -0.1240234, 2.35575, 1.9770992, 2.35575, -6.5267177, 2.35575, 0.8320611
0.2779412, -0.0109102, 2.3625, -0.0106201, 2.3625, -1.0135498, 2.3625, -0.1264038, 2.3625, 1.961832, 2.3625, -5.5572519, 2.3625, 0.870229
0.2787353, -0.0109102, 2.36925, -0.0161743, 2.36925, -1.0199585, 2.36925, -0.1231689, 2.36925, 2.1374047, 2.36925, -4.8931298, 2.36925, 0.8396947
0.2795294, -0.0099031, 2.376, -0.0213623, 2.376, -1.0238037, 2.376, -0.1201782, 2.376, 2.1221373, 2.376, -5.4045801, 2.376, 0.9007633
0.2803235, -0.0095674, 2.38275, -0.0115967, 2.38275, -1.0271606, 2.38275, -0.1228638, 2.38275, 2.1679389, 2.38275, -6.3969464, 2.38275, 0.8854962
0.2811176, -0.0129244, 2.3895, 0.0045166, 2.3895, -1.0328979, 2.3895, -0.1187134, 2.3895, 2.0534351, 2.3895, -6.9847326, 2.3895, 0.961832
0.2819118, -0.0151064, 2.39625, 0.0171509, 2.39625, -1.032959, 2.39625, -0.1097412, 2.39625, 1.9770992, 2.39625, -6.8473282, 2.39625, 0.870229
0.2827059, -0.0204776, 2.403, 0.0338135, 2.403, -1.0314331, 2.403, -0.112854, 2.403, 1.8320611, 2.403, -6.6412215, 2.403, 0.7175573
0.2835, -0.0226596, 2.40975, 0.0401001, 2.40975, -1.0248413, 2.40975, -0.1257935, 2.40975, 2.0076337, 2.40975, -6.6183205, 2.40975, 0.610687
0.2842941, -0.0169528, 2.4165, 0.0488281, 2.4165, -1.0127563, 2.4165, -0.1407471, 2.4165, 2.129771, 2.4165, -5.6717558, 2.4165, 0.1832061
0.2850882, -0.0124208, 2.42325, 0.0516357, 2.42325, -1.0053711, 2.42325, -0.1469727, 2.42325, 2.5801528, 2.42325, -4.7251906, 2.42325, -0.1221374
0.2858824, -0.0129244, 2.43, 0.0437622, 2.43, -0.9990234, 2.43, -0.1433716, 2.43, 2.9541984, 2.43, -3.2900763, 2.43, 0.0687023
0.2866765, -0.0129244, 2.43675, 0.0302124, 2.43675, -0.9962158, 2.43675, -0.1342773, 2.43675, 3.259542, 2.43675, -1.5877863, 2.43675, 0.1221374
0.2874706, -0.0124208, 2.4435, 0.0115356, 2.4435, -0.9993286, 2.4435, -0.1278687, 2.4435, 3.740458, 2.4435, 0.1679389, 2.4435, 0
0.2882647, -0.0083925, 2.45025, 0.0061646, 2.45025, -1.0009766, 2.45025, -0.1266479, 2.45025, 3.9160306, 2.45025, 0.7328244, 2.45025, 0.1832061
0.2890588, -0.006714, 2.457, -0.0057373, 2.457, -1.003418, 2.457, -0.1192017, 2.457, 4.1221375, 2.457, 0.1374046, 2.457, 0.2061069
0.2898529, -0.0083925, 2.46375, -0.0117188, 2.46375, -1.0042114, 2.46375, -0.1136475, 2.46375, 4.4351144, 2.46375, -1.038168, 2.46375, 0.3129771
0.2906471, -0.0050355, 2.4705, 0.0004272, 2.4705, -1.0059814, 2.4705, -0.1098022, 2.4705, 4.5572519, 2.4705, -2.5419848, 2.4705, 0.2977099
0.2914412, -0.0062104, 2.47725, 0.0181885, 2.47725, -0.999939, 2.47725, -0.1126709, 2.47725, 4.5114503, 2.47725, -3.480916, 2.47725, 0.0763359
0.2922353, -0.0068818, 2.484, 0.039856, 2.484, -0.9962158, 2.484, -0.1154785, 2.484, 4.3206105, 2.484, -3.1221373, 2.484, -0.1450382
0.2930294, -0.0075532, 2.49075, 0.0380249, 2.49075, -0.9952393, 2.49075, -0.1134033, 2.49075, 4.0534353, 2.49075, -2.6870229, 2.49075, -0.3282443
0.2938235, -0.0109102, 2.4975, 0.0284424, 2.4975, -0.9880371, 2.4975, -0.0984497, 2.4975, 3.6259542, 2.4975, -1.6946565, 2.4975, -0.6946565
0.2946176, -0.0095674, 2.50425, 0.010498, 2.50425, -0.9882812, 2.50425, -0.0919189, 2.50425, 3.4885497, 2.50425, -1.6030535, 2.50425, -1.0305344
0.2954118, -0.0119173, 2.511, -0.0111084, 2.511, -0.9901733, 2.511, -0.0940552, 2.511, 3.0763359, 2.511, -2.740458, 2.511, -1.038168
0.2962059, -0.0193027, 2.51775, -0.0213013, 2.51775, -1.0012817, 2.51775, -0.0866699, 2.51775, 2.8549619, 2.51775, -4.3740458, 2.51775, -1.2442749
0.297, -0.0243381, 2.5245, -0.0251465, 2.5245, -1.0089722, 2.5245, -0.0845947, 2.5245, 2.6641221, 2.5245, -6.5801525, 2.5245, -1.519084
0.2977941, -0.0208133, 2.53125, -0.0199585, 2.53125, -1.0214844, 2.53125, -0.0939331, 2.53125, 2.4198472, 2.53125, -8.8167934, 2.53125, -1.8778626
0.2985882, -0.0209812, 2.538, -0.0057983, 2.538, -1.0284424, 2.538, -0.1005859, 2.538, 2.2977099, 2.538, -9.6030531, 2.538, -1.9236641
0.2993824, -0.0240024, 2.54475, 0.0078125, 2.54475, -1.0262451, 2.54475, -0.0978394, 2.54475, 2.1450381, 2.54475, -9.3969469, 2.54475, -1.9160305
0.3001765, -0.0243381, 2.5515, 0.0192261, 2.5515, -1.0255737, 2.5515, -0.1016846, 2.5515, 1.8015267, 2.5515, -7.7328243, 2.5515, -2
0.3009706, -0.0280308, 2.55825, 0.0189209, 2.55825, -1.0317993, 2.55825, -0.0874634, 2.55825, 2.2519083, 2.55825, -6.0229006, 2.55825, -1.6641221
0.3017647, -0.0216526, 2.565, 0.0125122, 2.565, -1.0484619, 2.565, -0.0699463, 2.565, 2.3740458, 2.565, -5.7175574, 2.565, -1.648855
0.3025588, -0.0223239, 2.57175, -0.0083618, 2.57175, -1.074646, 2.57175, -0.0314941, 2.57175, 3.4045801, 2.57175, -6.4656487, 2.57175, -1.2671756
0.3033529, -0.0193027, 2.5785, -0.0342407, 2.5785, -1.0910034, 2.5785, 0.0078125, 2.5785, 6.7328243, 2.5785, -8.5114508, 2.5785, -1.3358779
0.3041471, -0.01561, 2.58525, -0.0621948, 2.58525, -1.088501, 2.58525, -0.0106201, 2.58525, 11.0534353, 2.58525, -10.519084, 2.58525, -0.961832
0.3049412, -0.0184634, 2.592, -0.1000366, 2.592, -1.0939331, 2.592, -0.0162964, 2.592, 12.7099237, 2.592, -13.5954199, 2.592, -0.6870229
0.3057353, -0.0193027, 2.59875, -0.1278076, 2.59875, -1.0992432, 2.59875, -0.0252075, 2.59875, 13.5648851, 2.59875, -20.9312973, 2.59875, -0.6335878
0.3065294, -0.0176242, 2.6055, -0.1240845, 2.6055, -1.0916748, 2.6055, -0.0540161, 2.6055, 16.1450386, 2.6055, -26.4885502, 2.6055, -0.9465649
0.3073235, -0.0146029, 2.61225, -0.0764771, 2.61225, -1.0438232, 2.61225, -0.1414795, 2.61225, 15.9236641, 2.61225, -31.2595425, 2.61225, -1.5038168
0.3081176, -0.0142672, 2.619, 0.0083008, 2.619, -0.986145, 2.619, -0.1981201, 2.619, 13.5648851, 2.619, -34.877861, 2.619, -1.9541985
0.3089118, -0.008896, 2.62575, 0.1011963, 2.62575, -0.9663696, 2.62575, -0.2061157, 2.62575, 10.4961834, 2.62575, -32.5267181, 2.62575, -2.0839694
0.3097059, -0.0075532, 2.6325, 0.1829224, 2.6325, -0.9719238, 2.6325, -0.2003784, 2.6325, 9.4122133, 2.6325, -26.2748089, 2.6325, -2.5572519
0.3105, -0.0162814, 2.63925, 0.2300415, 2.63925, -0.9827881, 2.63925, -0.1898804, 2.63925, 8.9541988, 2.63925, -17.7633591, 2.63925, -2.4198472
0.3112941, -0.01561, 2.646, 0.2133789, 2.646, -0.9856567, 2.646, -0.1815186, 2.646, 9.0076332, 2.646, -12.8778629, 2.646, -2.3969467
0.3120882, -0.0159457, 2.65275, 0.1484985, 2.65275, -0.9907227, 2.65275, -0.1571045, 2.65275, 8.9923668, 2.65275, -4.259542, 2.65275, -1.8473282
0.3128824, -0.0172885, 2.6595, 0.0682983, 2.6595, -0.9989624, 2.6595, -0.1382446, 2.6595, 9.8931293, 2.6595, 0.2519084, 2.6595, -1.519084
0.3136765, -0.0243381, 2.66625, 0.0023193, 2.66625, -1.0053101, 2.66625, -0.1236572, 2.66625, 10.1526718, 2.66625, 1.0610687, 2.66625, -1.4045801
0.3144706, -0.0250095, 2.673, -0.043457, 2.673, -0.9954834, 2.673, -0.1094971, 2.673, 10.8320608, 2.673, -1.3587786, 2.673, -1.4122137
0.3152647, -0.0234989, 2.67975, -0.0493774, 2.67975, -0.9887085, 2.67975, -0.1031494, 2.67975, 10.7633591, 2.67975, -5.0534353, 2.67975, -1.2748091
0.3160588, -0.0253452, 2.6865, -0.053833, 2.6865, -0.9942627, 2.6865, -0.1054688, 2.6865, 10.9541988, 2.6865, -9.3816795, 2.6865, -1.4045801
0.3168529, -0.0224918, 2.69325, -0.0324707, 2.69325, -0.9961548, 2.69325, -0.1148682, 2.69325, 10.8473282, 2.69325, -12.2519083, 2.69325, -1.9312977
0.3176471, -0.0219883, 2.7, 0.0187378, 2.7, -0.9837646, 2.7, -0.1245117, 2.7, 9.9465647, 2.7, -12.3511448, 2.7, -1.8473282
0.3184412, -0.0218204, 2.70675, 0.0753784, 2.70675, -0.9798584, 2.70675, -0.1224976, 2.70675, 9.9083967, 2.70675, -8.8625956, 2.70675, -1.4732825
0.3192353, -0.0209812, 2.7135, 0.1069946, 2.7135, -0.9788208, 2.7135, -0.1193237, 2.7135, 9.320611, 2.7135, -2.5877862, 2.7135, -1.0763359
0.3200294, -0.0186313, 2.72025, 0.1124878, 2.72025, -0.99646, 2.72025, -0.1094971, 2.72025, 9.0687027, 2.72025, 0.9923664, 2.72025, -0.6870229
0.3208235, -0.017792, 2.727, 0.1070557, 2.727, -1.0141602, 2.727, -0.1149902, 2.727, 9.5267172, 2.727, 8.7633591, 2.727, -0.0839695
0.3216176, -0.0149386, 2.73375, 0.0745239, 2.73375, -1.0219727, 2.73375, -0.1050415, 2.73375, 9.519084, 2.73375, 15.6106873, 2.73375, 0.3206107
0.3224118, -0.0105745, 2.7405, 0.036499, 2.7405, -1.0320435, 2.7405, -0.0821533, 2.7405, 9.6946564, 2.7405, 19.1145039, 2.7405, 0.9541985
0.3232059, -0.012253, 2.74725, 0.0054321, 2.74725, -1.0318604, 2.74725, -0.0870972, 2.74725, 10.1297712, 2.74725, 20.9923668, 2.74725, 1.0229008
0.324, -0.0151064, 2.754, -0.0166626, 2.754, -1.0258789, 2.754, -0.092041, 2.754, 9.9312973, 2.754, 19.0305347, 2.754, 0.6717557
0.3247941, -0.0176242, 2.76075, -0.022644, 2.76075, -1.0178223, 2.76075, -0.0927124, 2.76075, 9.2213745, 2.76075, 16.2824421, 2.76075, 0.4503817
0.3255882, -0.0176242, 2.7675, -0.0098877, 2.7675, -1.0120239, 2.7675, -0.085144, 2.7675, 9.038168, 2.7675, 13.8931293, 2.7675, 0.0992366
0.3263824, -0.0152743, 2.77425, 0.0080566, 2.77425, -1.0091553, 2.77425, -0.09198, 2.77425, 8.7480917, 2.77425, 12.1068707, 2.77425, -0.1145038
0.3271765, -0.0149386, 2.781, 0.0266113, 2.781, -1.0130615, 2.781, -0.104126, 2.781, 8.480916, 2.781, 11.5572519, 2.781, -0.3435115
0.3279706, -0.0139315, 2.78775, 0.0379639, 2.78775, -1.0067139, 2.78775, -0.1194458, 2.78775, 8.3511448, 2.78775, 11.9312973, 2.78775, -0.5954198
0.3287647, -0.0125887, 2.7945, 0.043335, 2.7945, -0.99646, 2.7945, -0.1312256, 2.7945, 8.4198475, 2.7945, 13.5267172, 2.7945, -0.5343512
0.3295588, -0.0151064, 2.80125, 0.0473022, 2.80125, -0.9915771, 2.80125, -0.140686, 2.80125, 8.2900763, 2.80125, 14.2595415, 2.80125, -0.5648855
0.3303529, -0.018967, 2.808, 0.0470581, 2.808, -0.9910278, 2.808, -0.1316528, 2.808, 8.0763359, 2.808, 15.4351149, 2.808, -0.648855
0.3311471, -0.0199741, 2.81475, 0.0358276, 2.81475, -0.99646, 2.81475, -0.1253052, 2.81475, 8.2137403, 2.81475, 16.9694653, 2.81475, -0.7862595
0.3319412, -0.0213169, 2.8215, 0.0232544, 2.8215, -0.9980469, 2.8215, -0.1190186, 2.8215, 8.7709923, 2.8215, 17.9923668, 2.8215, -0.6183206
0.3327353, -0.0176242, 2.82825, 0.0050049, 2.82825, -1.0018921, 2.82825, -0.1137085, 2.82825, 9.2290077, 2.82825, 18.160305, 2.82825, -0.8320611
0.3335294, -0.0162814, 2.835, -0.001709, 2.835, -0.9992676, 2.835, -0.1133423, 2.835, 9.8931293, 2.835, 17.9312973, 2.835, -0.7099237
0.3343235, -0.0169528, 2.84175, -0.0029907, 2.84175, -0.9985352, 2.84175, -0.0940552, 2.84175, 10.160305, 2.84175, 17.8167934, 2.84175, -0.5954198
0.3351176, -0.0140993, 2.8485, -0.0168457, 2.8485, -1.0001831, 2.8485, -0.083252, 2.8485, 11.2748089, 2.8485, 17.3511448, 2.8485, -0.4427481
0.3359118, -0.011078, 2.85525, -0.0317993, 2.85525, -0.9937744, 2.85525, -0.088501, 2.85525, 11.5267172, 2.85525, 16.358778, 2.85525, -0.5725191
0.3367059, -0.0146029, 2.862, -0.0396118, 2.862, -0.9848022, 2.862, -0.0742798, 2.862, 11.1297712, 2.862, 15.4656487, 2.862, -0.3206107
0.3375, -0.0129244, 2.86875, -0.0388794, 2.86875, -0.9849243, 2.86875, -0.0505981, 2.86875, 10.8778629, 2.86875, 13.519084, 2.86875, -0.389313
0.3382941, -0.0099031, 2.8755, -0.0309448, 2.8755, -0.9860229, 2.8755, -0.0405884, 2.8755, 11.0152674, 2.8755, 12.4656487, 2.8755, -0.5954198
0.3390882, -0.0090639, 2.88225, -0.0139771, 2.88225, -0.9850464, 2.88225, -0.0386353, 2.88225, 10.679389, 2.88225, 10.7328243, 2.88225, -0.740458
0.3398824, -0.0078889, 2.889, 0.0040894, 2.889, -0.9859619, 2.889, -0.0371704, 2.889, 10.0916033, 2.889, 9.5801525, 2.889, -0.778626
0.3406765, -0.0085603, 2.89575, 0.010498, 2.89575, -0.9963989, 2.89575, -0.0257568, 2.89575, 9.2137403, 2.89575, 9.2671757, 2.89575, -0.7328244
0.3414706, -0.0085603, 2.9025, 0.0131226, 2.9025, -1.0041504, 2.9025, -0.0231323, 2.9025, 8.7709923, 2.9025, 9.0152674, 2.9025, -0.778626
0.3422647, -0.0119173, 2.90925, 0.0155029, 2.90925, -1.0046997, 2.90925, -0.0274658, 2.90925, 8.0305347, 2.90925, 8.9694653, 2.90925, -1.0229008
0.3430588, -0.012253, 2.916, 0.0135498, 2.916, -1.0071411, 2.916, -0.0253296, 2.916, 7.2977099, 2.916, 8.8244276, 2.916, -1.129771
0.3438529, -0.0146029, 2.92275, 0.0039062, 2.92275, -1.0074463, 2.92275, -0.0170898, 2.92275, 6.4427481, 2.92275, 8.4198475, 2.92275, -1.1908396
0.3446471, -0.01561, 2.9295, -0.0071411, 2.9295, -1.0066528, 2.9295, -0.0229492, 2.9295, 5.9007635, 2.9295, 7.1526718, 2.9295, -1.389313
0.3454412, -0.0134279, 2.93625, -0.0112915, 2.93625, -0.9979248, 2.93625, -0.0240479, 2.93625, 4.9770994, 2.93625, 6.1068702, 2.93625, -1.519084
0.3462353, -0.0142672, 2.943, -0.0145874, 2.943, -0.9931641, 2.943, -0.019104, 2.943, 4.0152674, 2.943, 5.1450381, 2.943, -1.5572519
0.3470294, -0.0109102, 2.94975, -0.0151367, 2.94975, -1.0007935, 2.94975, -0.0199585, 2.94975, 3.5343511, 2.94975, 3.5419848, 2.94975, -1.5114504
0.3478235, -0.0146029, 2.9565, -0.0151367, 2.9565, -1.00354, 2.9565, -0.0318604, 2.9565, 3.3206108, 2.9565, 3.1068702, 2.9565, -1.5801526
0.3486176, -0.0162814, 2.96325, -0.0007324, 2.96325, -1.0075073, 2.96325, -0.034668, 2.96325, 2.6564887, 2.96325, 2.4580152, 2.96325, -1.5648855
0.3494118, -0.0193027, 2.97, 0.0187378, 2.97, -1.0073242, 2.97, -0.0495605, 2.97, 2.8396947, 2.97, 2.2519083, 2.97, -1.4427481
0.3502059, -0.0223239, 2.97675, 0.0344849, 2.97675, -1.0045776, 2.97675, -0.0625, 2.97675, 2.7328243, 2.97675, 3.1679389, 2.97675, -1.1679389
0.351, -0.0209812, 2.9835, 0.0388184, 2.9835, -1.008728, 2.9835, -0.0613403, 2.9835, 2.4961832, 2.9835, 5.1221375, 2.9835, -1.0229008
0.3517941, -0.018967, 2.99025, 0.0328369, 2.99025, -1.0172729, 2.99025, -0.0578003, 2.99025, 2.9694657, 2.99025, 7.6793895, 2.99025, -1.0076336
0.3525882, -0.0159457, 2.997, 0.0142212, 2.997, -1.019043, 2.997, -0.0563965, 2.997, 3.6335878, 2.997, 8.8854961, 2.997, -0.8015267
0.3533824, -0.0112459, 3.00375, -0.008728, 3.00375, -1.0218506, 3.00375, -0.0496826, 3.00375, 4.221374, 3.00375, 8.6488552, 3.00375, -0.6259542
0.3541765, -0.0127565, 3.0105, -0.0308838, 3.0105, -1.0169678, 3.0105, -0.0510864, 3.0105, 4.778626, 3.0105, 6.6641221, 3.0105, -0.6259542
0.3549706, -0.0115816, 3.01725, -0.03125, 3.01725, -1.0075073, 3.01725, -0.0614014, 3.01725, 4.5954199, 3.01725, 4.0992365, 3.01725, -0.610687
0.3557647, -0.0115816, 3.024, -0.0203247, 3.024, -1.0079956, 3.024, -0.0620117, 3.024, 4.6641221, 3.024, 1.8320611, 3.024, -0.7099237
0.3565588, -0.0135958, 3.03075, -0.0048218, 3.03075, -1.005127, 3.03075, -0.0570068, 3.03075, 4.6030536, 3.03075, 1.0839695, 3.03075, -0.5648855
0.3573529, -0.0132601, 3.0375, 0.0112915, 3.0375, -1.0049438, 3.0375, -0.069458, 3.0375, 4.6793895, 3.0375, 0.1450382, 3.0375, -0.7251908
0.3581471, -0.0142672, 3.04425, 0.0204468, 3.04425, -1.003479, 3.04425, -0.0767822, 3.04425, 4.4427481, 3.04425, -0.0687023, 3.04425, -0.6335878
0.3589412, -0.0129244, 3.051, 0.0220947, 3.051, -1.0013428, 3.051, -0.0753784, 3.051, 4.1984735, 3.051, 0.5877863, 3.051, -0.610687
0.3597353, -0.0109102, 3.05775, 0.0142822, 3.05775, -1.0022583, 3.05775, -0.071228, 3.05775, 4.1068702, 3.05775, 1.5801526, 3.05775, -0.5114504
0.3605294, -0.0104067, 3.0645, -0.0003052, 3.0645, -1.0080566, 3.0645, -0.0661621, 3.0645, 4.0687022, 3.0645, 2.0152671, 3.0645, -0.5725191
0.3613235, -0.0095674, 3.07125, -0.0061646, 3.07125, -1.0087891, 3.07125, -0.0640869, 3.07125, 4, 3.07125, 2.0610688, 3.07125, -0.4198473
0.3621176, -0.008896, 3.078, -0.0101929, 3.078, -1.0078125, 3.078, -0.0586548, 3.078, 3.8854961, 3.078, 1.1526718, 3.078, -0.3587786
0.3629118, -0.012253, 3.08475, -0.0062866, 3.08475, -1.0057983, 3.08475, -0.0560913, 3.08475, 3.7251909, 3.08475, 1.129771, 3.08475, -0.2061069
0.3637059, -0.0109102, 3.0915, 0.0010376, 3.0915, -1.0094604, 3.0915, -0.0477295, 3.0915, 4.2290077, 3.0915, 1.7862595, 3.0915, 0.0458015
0.3645, -0.0129244, 3.09825, 0.0103149, 3.09825, -1.010437, 3.09825, -0.0527344, 3.09825, 4.2366414, 3.09825, 2.5343511, 3.09825, -0.2824427
0.3652941, -0.0196384, 3.105, 0.0075073, 3.105, -1.0059814, 3.105, -0.0528564, 3.105, 4.4198475, 3.105, 3.7175572, 3.105, -0.1221374
0.3660882, -0.0186313, 3.11175, 0.0012207, 3.11175, -1.0067749, 3.11175, -0.0480957, 3.11175, 4.2366414, 3.11175, 4.259542, 3.11175, -0.2137405
0.3668824, -0.0179599, 3.1185, -0.006897, 3.1185, -1.0067749, 3.1185, -0.0471802, 3.1185, 3.740458, 3.1185, 4.480916, 3.1185, -0.2366412
0.3676765, -0.0172885, 3.12525, -0.0065308, 3.12525, -0.9993896, 3.12525, -0.0549927, 3.12525, 3.8473282, 3.12525, 4.4580154, 3.12525, -0.2900763
0.3684706, -0.0164492, 3.132, -0.0043945, 3.132, -1.000061, 3.132, -0.0470581, 3.132, 3.4580152, 3.132, 5.0534353, 3.132, -0.1832061
0.3692647, -0.0149386, 3.13875, -0.0084839, 3.13875, -1.0049438, 3.13875, -0.0446777, 3.13875, 3.4274809, 3.13875, 5.2671757, 3.13875, -0.3206107
0.3700588, -0.0164492, 3.1455, -0.0112305, 3.1455, -1.0066528, 3.1455, -0.0403442, 3.1455, 3.2137403, 3.1455, 5.8167939, 3.1455, -0.3435115
0.3708529, -0.0186313, 3.15225, -0.0101318, 3.15225, -1.0098267, 3.15225, -0.0455933, 3.15225, 3, 3.15225, 5.740458, 3.15225, -0.3740458
0.3716471, -0.0179599, 3.159, -0.0186157, 3.159, -1.0059814, 3.159, -0.0357666, 3.159, 2.7175572, 3.159, 5.3587785, 3.159, -0.5572519
0.3724412, -0.0162814, 3.16575, -0.0219116, 3.16575, -1.0112915, 3.16575, -0.0296631, 3.16575, 2.9236641, 3.16575, 5.2442746, 3.16575, -0.6717557
0.3732353, -0.0129244, 3.1725, -0.0222168, 3.1725, -1.008606, 3.1725, -0.0349731, 3.1725, 3.0763359, 3.1725, 4.5114503, 3.1725, -0.6564885
0.3740294, -0.0052033, 3.17925, -0.0182495, 3.17925, -1.0046997, 3.17925, -0.0351562, 3.17925, 2.7175572, 3.17925, 3.4198472, 3.17925, -0.7633588
0.3748235, 0.0065461, 3.186, -0.0193481, 3.186, -1.0039673, 3.186, -0.0336914, 3.186, 2.6030533, 3.186, 3.1145039, 3.186, -0.8625954
0.3756176, -0.0028534, 3.19275, -0.0172729, 3.19275, -1.003479, 3.19275, -0.0396729, 3.19275, 2.4580152, 3.19275, 2.5114503, 3.19275, -0.8473282
0.3764118, -0.0132601, 3.1995, -0.0131836, 3.1995, -1.0003662, 3.1995, -0.0457153, 3.1995, 2.2442749, 3.1995, 2.0687022, 3.1995, -0.9160305
0.3772059, -0.0203098, 3.20625, -0.0018921, 3.20625, -1.0014648, 3.20625, -0.050293, 3.20625, 2.1068702, 3.20625, 1.7328244, 3.20625, -1.0076336
0.378, -0.0209812, 3.213, -0.0003052, 3.213, -1.0026245, 3.213, -0.0526123, 3.213, 1.870229, 3.213, 1.8625954, 3.213, -1.0687023
0.3787941, -0.0216526, 3.21975, -0.0025024, 3.21975, -1.0062256, 3.21975, -0.0488281, 3.21975, 1.7557251, 3.21975, 2.4045801, 3.21975, -1.1221374
0.3795882, -0.023331, 3.2265, -0.005127, 3.2265, -1.0067749, 3.2265, -0.0510254, 3.2265, 1.5954199, 3.2265, 2.7175572, 3.2265, -1.1832061
0.3803824, -0.0219883, 3.23325, -0.0146484, 3.23325, -1.0095215, 3.23325, -0.0545654, 3.23325, 1.7251909, 3.23325, 2.9389312, 3.23325, -1.3129771
0.3811765, -0.0250095, 3.24, -0.0217896, 3.24, -1.0020142, 3.24, -0.0492554, 3.24, 1.6717557, 3.24, 2.5648854, 3.24, -1.2137405
0.3819706, -0.0221561, 3.24675, -0.0231323, 3.24675, -1.0036011, 3.24675, -0.0473022, 3.24675, 1.6335878, 3.24675, 2.1068702, 3.24675, -1.2442749
0.3827647, -0.0229953, 3.2535, -0.0212402, 3.2535, -1.0057373, 3.2535, -0.0456543, 3.2535, 1.8091604, 3.2535, 1.6717557, 3.2535, -1.4961832
0.3835588, -0.0243381, 3.26025, -0.0170898, 3.26025, -0.9984741, 3.26025, -0.0499268, 3.26025, 1.9160305, 3.26025, 1.6259542, 3.26025, -1.3664122
0.3843529, -0.0216526, 3.267, -0.0137329, 3.267, -0.9984131, 3.267, -0.0514526, 3.267, 1.7480916, 3.267, 1.5267175, 3.267, -1.480916
0.3851471, -0.0209812, 3.27375, -0.0181274, 3.27375, -1.0041504, 3.27375, -0.038147, 3.27375, 1.351145, 3.27375, 1.1679389, 3.27375, -1.5877863
0.3859412, -0.0182956, 3.2805, -0.0171509, 3.2805, -1.00354, 3.2805, -0.0471802, 3.2805, 1.3969465, 3.2805, 1.1221374, 3.2805, -1.8549619
0.3867353, -0.01561, 3.28725, -0.0122681, 3.28725, -1.0075684, 3.28725, -0.039978, 3.28725, 1.0687023, 3.28725, 1.0076336, 3.28725, -2.0152671
0.3875294, -0.0152743, 3.294, -0.0067749, 3.294, -1.0059814, 3.294, -0.0444946, 3.294, 1.4732825, 3.294, 1.1679389, 3.294, -1.8549619
0.3883235, -0.0137636, 3.30075, -0.0043945, 3.30075, -1.0061646, 3.30075, -0.0473022, 3.30075, 1.3435115, 3.30075, 1.2824427, 3.30075, -1.8854961
0.3891176, -0.0082246, 3.3075, -0.0007324, 3.3075, -1.0119019, 3.3075, -0.0404663, 3.3075, 1.4885496, 3.3075, 1.5877863, 3.3075, -1.6717557
0.3899118, -0.008896, 3.31425, -0.0091553, 3.31425, -1.0132446, 3.31425, -0.0429688, 3.31425, 1.4045801, 3.31425, 1.4503816, 3.31425, -1.8396946
0.3907059, -0.0099031, 3.321, -0.017334, 3.321, -1.012085, 3.321, -0.0429688, 3.321, 1.480916, 3.321, 1.9465649, 3.321, -2.091603
0.3915, -0.0099031, 3.32775, -0.0304565, 3.32775, -1.0080566, 3.32775, -0.0454712, 3.32775, 1.5725191, 3.32775, 1.519084, 3.32775, -2.1374047
0.3922941, -0.0104067, 3.3345, -0.0339355, 3.3345, -1.0079956, 3.3345, -0.0309448, 3.3345, 1.0076336, 3.3345, 0.2748092, 3.3345, -2.1984732
0.3930882, -0.012253, 3.34125, -0.0311279, 3.34125, -1.0087891, 3.34125, -0.0373535, 3.34125, 1.1221374, 3.34125, -0.3358779, 3.34125, -2.3816793
0.3938824, -0.0142672, 3.348, -0.022644, 3.348, -1.0048828, 3.348, -0.0462036, 3.348, 1.0992366, 3.348, -1.2290076, 3.348, -2.519084
0.3946765, -0.0169528, 3.35475, -0.0114136, 3.35475, -1.0084229, 3.35475, -0.0385742, 3.35475, 0.9770992, 3.35475, -1.5648855, 3.35475, -2.5114503
0.3954706, -0.0179599, 3.3615, -0.0057983, 3.3615, -1.0043945, 3.3615, -0.0402222, 3.3615, 0.9312977, 3.3615, -0.908397, 3.3615, -2.2519083
0.3962647, -0.0204776, 3.36825, 0.0022583, 3.36825, -1.0048828, 3.36825, -0.0444946, 3.36825, 1.0076336, 3.36825, -0.6870229, 3.36825, -2.2900763
0.3970588, -0.0203098, 3.375, -0.0040283, 3.375, -1.0114746, 3.375, -0.0379028, 3.375, 1.0610687, 3.375, -0.0687023, 3.375, -2.389313
0.3978529, -0.021149, 3.38175, -0.0043335, 3.38175, -1.0120239, 3.38175, -0.0405273, 3.38175, 1.2137405, 3.38175, 0.8167939, 3.38175, -2.4351146
0.3986471, -0.0216526, 3.3885, -0.0128174, 3.3885, -1.0106812, 3.3885, -0.0455933, 3.3885, 1.3053435, 3.3885, 1.0763359, 3.3885, -2.351145
0.3994412, -0.0209812, 3.39525, -0.0210571, 3.39525, -1.0092773, 3.39525, -0.0357056, 3.39525, 1.1908396, 3.39525, 1.1908396, 3.39525, -2.2061069
0.4002353, -0.0182956, 3.402, -0.020874, 3.402, -1.0108643, 3.402, -0.0371704, 3.402, 1.3587786, 3.402, 0.1603053, 3.402, -2.480916
0.4010294, -0.0176242, 3.40875, -0.0165405, 3.40875, -1.0063477, 3.40875, -0.0403442, 3.40875, 1.0458015, 3.40875, -0.7328244, 3.40875, -2.5801528
0.4018235, -0.0166171, 3.4155, -0.0162964, 3.4155, -1.0149536, 3.4155, -0.0341187, 3.4155, 1.3358779, 3.4155, -0.6030535, 3.4155, -2.740458
0.4026176, -0.0149386, 3.42225, -0.0205688, 3.42225, -1.0151978, 3.42225, -0.0353394, 3.42225, 1.5038168, 3.42225, -0.6793893, 3.42225, -2.870229
0.4034118, -0.0095674, 3.429, -0.0254517, 3.429, -1.0151367, 3.429, -0.0326538, 3.429, 1.3587786, 3.429, -0.0839695, 3.429, -2.7022901
0.4042059, -0.0077211, 3.43575, -0.0204468, 3.43575, -1.0115967, 3.43575, -0.0383911, 3.43575, 1.480916, 3.43575, -0.1374046, 3.43575, -2.5877862
0.405, -0.0099031, 3.4425, -0.0152588, 3.4425, -1.0021973, 3.4425, -0.0427246, 3.4425, 1.0763359, 3.4425, -0.8549618, 3.4425, -2.5725191
0.4057941, -0.0115816, 3.44925, -0.0093994, 3.44925, -1.0031738, 3.44925, -0.0392456, 3.44925, 0.6030535, 3.44925, -0.5114504, 3.44925, -2.5343511
0.4065882, -0.0124208, 3.456, -0.0067139, 3.456, -1.0038452, 3.456, -0.0404053, 3.456, 0.4122137, 3.456, 0.0534351, 3.456, -2.7633588
0.4073824, -0.0117494, 3.46275, -0.0130615, 3.46275, -1.0125122, 3.46275, -0.0372925, 3.46275, 0.2824427, 3.46275, 0.8854962, 3.46275, -2.8396947
0.4081765, -0.0095674, 3.4695, -0.0195923, 3.4695, -1.0109863, 3.4695, -0.0358276, 3.4695, 0.3053435, 3.4695, 0.8320611, 3.4695, -2.8778627
0.4089706, -0.0092317, 3.47625, -0.0176392, 3.47625, -1.0032349, 3.47625, -0.0422974, 3.47625, 0.0381679, 3.47625, 0.1679389, 3.47625, -2.8778627
0.4097647, -0.0125887, 3.483, -0.0159302, 3.483, -1.0057983, 3.483, -0.0388184, 3.483, -0.2137405, 3.483, 0.0839695, 3.483, -3
0.4105588, -0.0135958, 3.48975, -0.0184326, 3.48975, -1.0061035, 3.48975, -0.0350952, 3.48975, -0.1374046, 3.48975, -0.259542, 3.48975, -3.091603
0.4113529, -0.0179599, 3.4965, -0.0186157, 3.4965, -1.0050659, 3.4965, -0.0400391, 3.4965, -0.3053435, 3.4965, 0, 3.4965, -3.3053436
0.4121471, -0.0216526, 3.50325, -0.0219727, 3.50325, -1.0031128, 3.50325, -0.0419922, 3.50325, -0.3282443, 3.50325, 0.4961832, 3.50325, -3.1450381
0.4129412, -0.0223239, 3.51, -0.0194702, 3.51, -1.0014648, 3.51, -0.0453491, 3.51, -0.8015267, 3.51, 0.0610687, 3.51, -3.2442749
0.4137353, -0.0229953, 3.51675, -0.015625, 3.51675, -1.0029907, 3.51675, -0.0507812, 3.51675, -0.8015267, 3.51675, -0.0458015, 3.51675, -3.2366412
0.4145294, -0.0240024, 3.5235, -0.0106812, 3.5235, -1.0059204, 3.5235, -0.0449219, 3.5235, -1.0687023, 3.5235, 0.5572519, 3.5235, -3.3740458
0.4153235, -0.0280308, 3.53025, -0.0128784, 3.53025, -1.0059204, 3.53025, -0.0490112, 3.53025, -1.0992366, 3.53025, 1.0305344, 3.53025, -3.4351146
0.4161176, -0.026688, 3.537, -0.019165, 3.537, -1.0048218, 3.537, -0.0484009, 3.537, -1.2442749, 3.537, 1.519084, 3.537, -3.4656489
0.4169118, -0.024506, 3.54375, -0.019165, 3.54375, -1.0079346, 3.54375, -0.0521851, 3.54375, -1.3969465, 3.54375, 1.2519084, 3.54375, -3.6335878
0.4177059, -0.0256809, 3.5505, -0.0130615, 3.5505, -1.0043335, 3.5505, -0.0500488, 3.5505, -1.5572519, 3.5505, 1.0839695, 3.5505, -3.7022901
0.4185, -0.0216526, 3.55725, -0.0137939, 3.55725, -1.0078735, 3.55725, -0.0443726, 3.55725, -1.4656489, 3.55725, 1.8015267, 3.55725, -3.6870229
0.4192941, -0.0191348, 3.564, -0.0195923, 3.564, -1.0064697, 3.564, -0.0487671, 3.564, -1.3969465, 3.564, 1.7709924, 3.564, -3.9312978
0.4200882, -0.0169528, 3.57075, -0.0278931, 3.57075, -1.0066528, 3.57075, -0.0509033, 3.57075, -1.6412214, 3.57075, 1.6335878, 3.57075, -3.9847329
0.4208824, -0.0166171, 3.5775, -0.0288696, 3.5775, -1.0043335, 3.5775, -0.0458984, 3.5775, -1.6641221, 3.5775, 1.4198474, 3.5775, -3.961832
0.4216765, -0.0102388, 3.58425, -0.0279541, 3.58425, -1.007019, 3.58425, -0.0427856, 3.58425, -1.7709924, 3.58425, 0.9847328, 3.58425, -4.0916033
0.4224706, -0.0105745, 3.591, -0.0266113, 3.591, -1.0075684, 3.591, -0.0471191, 3.591, -1.7862595, 3.591, 0.7175573, 3.591, -4.2442746
0.4232647, -0.0092317, 3.59775, -0.0229492, 3.59775, -1.006958, 3.59775, -0.0497437, 3.59775, -1.8167939, 3.59775, 0.5572519, 3.59775, -4.2977099
0.4240588, -0.0092317, 3.6045, -0.0169067, 3.6045, -1.0037231, 3.6045, -0.0516357, 3.6045, -2.0152671, 3.6045, 0.5572519, 3.6045, -4.3282442
0.4248529, -0.0062104, 3.61125, -0.0168457, 3.61125, -1.0047607, 3.61125, -0.0491333, 3.61125, -2.1068702, 3.61125, 0.7251908, 3.61125, -4.259542
0.4256471, -0.0085603, 3.618, -0.0155029, 3.618, -1.0071411, 3.618, -0.0512695, 3.618, -2.1526718, 3.618, 0.5572519, 3.618, -4.6259542
0.4264412, -0.0095674, 3.62475, -0.0192871, 3.62475, -1.0060425, 3.62475, -0.0507812, 3.62475, -2.1984732, 3.62475, 0.4732825, 3.62475, -4.8549619
0.4272353, -0.0102388, 3.6315, -0.0201416, 3.6315, -1.0072021, 3.6315, -0.0531616, 3.6315, -2.2900763, 3.6315, 0.0839695, 3.6315, -4.7633586
0.4280294, -0.0095674, 3.63825, -0.0176392, 3.63825, -1.0047607, 3.63825, -0.0595703, 3.63825, -2.0839694, 3.63825, -0.7022901, 3.63825, -4.8778625
0.4288235, -0.0109102, 3.645, -0.0133057, 3.645, -0.9971313, 3.645, -0.0602417, 3.645, -2.2824428, 3.645, -0.7251908, 3.645, -4.9236641
0.4296176, -0.0135958, 3.65175, -0.0100708, 3.65175, -1.0023804, 3.65175, -0.0504761, 3.65175, -2.3969467, 3.65175, -0.6564885, 3.65175, -5
0.4304118, -0.0137636, 3.6585, -0.0141602, 3.6585, -1.012085, 3.6585, -0.0544434, 3.6585, -1.9312977, 3.6585, -0.7633588, 3.6585, -5.1603055
0.4312059, -0.0104067, 3.66525, -0.0123291, 3.66525, -1.0115356, 3.66525, -0.064209, 3.66525, -1.610687, 3.66525, -1.1984733, 3.66525, -5.1374044
0.432, -0.0095674, 3.672, -0.0111694, 3.672, -1.0126953, 3.672, -0.0588379, 3.672, -1.6564885, 3.672, -0.9923664, 3.672, -5.3206105
0.4327941, -0.0078889, 3.67875, -0.0064697, 3.67875, -1.0186768, 3.67875, -0.0571899, 3.67875, -1.3053435, 3.67875, -0.9007633, 3.67875, -5.3053436
0.4335882, -0.0095674, 3.6855, -0.0100098, 3.6855, -1.0105591, 3.6855, -0.0636597, 3.6855, -0.9770992, 3.6855, -0.9007633, 3.6855, -5.3053436
0.4343824, -0.0151064, 3.69225, -0.0050049, 3.69225, -1.008667, 3.69225, -0.0653076, 3.69225, -1.2137405, 3.69225, -0.5267175, 3.69225, -5.2442746
0.4351765, -0.0166171, 3.699, -0.0083008, 3.699, -1.0142212, 3.699, -0.0617065, 3.699, -0.9541985, 3.699, -0.870229, 3.699, -5.5038166
0.4359706, -0.0137636, 3.70575, -0.0077515, 3.70575, -1.0134277, 3.70575, -0.0639648, 3.70575, -1.0076336, 3.70575, -0.5725191, 3.70575, -5.3435116
0.4367647, -0.0139315, 3.7125, -0.0099487, 3.7125, -1.0128174, 3.7125, -0.0646973, 3.7125, -0.648855, 3.7125, 0.2977099, 3.7125, -5.4045801
0.4375588, -0.0149386, 3.71925, -0.0112915, 3.71925, -1.0100708, 3.71925, -0.0628662, 3.71925, -0.5801527, 3.71925, 0.351145, 3.71925, -5.3587785
0.4383529, -0.0139315, 3.726, -0.0164795, 3.726, -1.0074463, 3.726, -0.0591431, 3.726, -0.5877863, 3.726, 0.7251908, 3.726, -5.2824426
0.4391471, -0.0058747, 3.73275, -0.010437, 3.73275, -1.0110474, 3.73275, -0.0595093, 3.73275, -0.6030535, 3.73275, 0.6717557, 3.73275, -5.2290077
0.4399412, -0.0065461, 3.7395, -0.0089111, 3.7395, -1.007019, 3.7395, -0.0581665, 3.7395, -0.480916, 3.7395, 0.4961832, 3.7395, -5.3053436
0.4407353, -0.0085603, 3.74625, -0.0079956, 3.74625, -1.012085, 3.74625, -0.0490112, 3.74625, -0.7557252, 3.74625, 0.961832, 3.74625, -5.3129773
0.4415294, -0.0135958, 3.753, -0.0108032, 3.753, -1.0098267, 3.753, -0.0521851, 3.753, -0.3587786, 3.753, 0.9312977, 3.753, -5.4503818
0.4423235, -0.0164492, 3.75975, -0.0109863, 3.75975, -1.0095215, 3.75975, -0.0570679, 3.75975, -0.1984733, 3.75975, 0.5801527, 3.75975, -5.5877862
0.4431176, -0.01561, 3.7665, -0.0126953, 3.7665, -1.0078735, 3.7665, -0.0579224, 3.7665, -0.2366412, 3.7665, 0.3282443, 3.7665, -5.6106873
0.4439118, -0.0137636, 3.77325, -0.0087891, 3.77325, -1.005188, 3.77325, -0.0562744, 3.77325, -0.2290076, 3.77325, 0.2442748, 3.77325, -5.5267177
0.4447059, -0.0152743, 3.78, -0.0128174, 3.78, -1.0070801, 3.78, -0.0554199, 3.78, -0.4274809, 3.78, 0.2366412, 3.78, -5.8015265
0.4455, -0.0219883, 3.78675, -0.012146, 3.78675, -1.0130005, 3.78675, -0.0595093, 3.78675, -0.3816794, 3.78675, 0.0839695, 3.78675, -5.9083967
0.4462941, -0.0253452, 3.7935, -0.0101929, 3.7935, -1.0106812, 3.7935, -0.0605469, 3.7935, -0.3587786, 3.7935, -0.5038168, 3.7935, -6.0610685
0.4470882, -0.0229953, 3.80025, -0.0093384, 3.80025, -1.0110474, 3.80025, -0.0681763, 3.80025, -0.0839695, 3.80025, -0.7480916, 3.80025, -6.0992365
0.4478824, -0.0218204, 3.807, -0.005249, 3.807, -1.0098877, 3.807, -0.0668335, 3.807, -0.129771, 3.807, -0.7099237, 3.807, -6.0229006
0.4486765, -0.0240024, 3.81375, -0.0048828, 3.81375, -1.0118408, 3.81375, -0.0610352, 3.81375, -0.0610687, 3.81375, -0.3129771, 3.81375, -6.1603055
0.4494706, -0.027863, 3.8205, -0.010376, 3.8205, -1.0111084, 3.8205, -0.0599365, 3.8205, -0.0687023, 3.8205, -0.0763359, 3.8205, -6.0458016
0.4502647, -0.0246738, 3.82725, -0.0162964, 3.82725, -1.0064697, 3.82725, -0.0666504, 3.82725, 0.0152672, 3.82725, -0.221374, 3.82725, -6.0458016
0.4510588, -0.0203098, 3.834, -0.0124512, 3.834, -1.0075073, 3.834, -0.0656738, 3.834, 0.0763359, 3.834, -0.7328244, 3.834, -6.3893127
0.4518529, -0.018967, 3.84075, -0.0085449, 3.84075, -1.00354, 3.84075, -0.0707397, 3.84075, 0.1450382, 3.84075, -0.9694657, 3.84075, -6.519084
0.4526471, -0.0162814, 3.8475, -0.0062256, 3.8475, -1.0026245, 3.8475, -0.0672607, 3.8475, 0.0076336, 3.8475, -0.4885496, 3.8475, -6.2900763
0.4534412, -0.0152743, 3.85425, 0.0003662, 3.85425, -1.0048828, 3.85425, -0.0640259, 3.85425, 0.0839695, 3.85425, -0.2137405, 3.85425, -6.1374044
0.4542353, -0.0159457, 3.861, 0.0004272, 3.861, -1.0012817, 3.861, -0.0669556, 3.861, 0.0305344, 3.861, 0.2366412, 3.861, -6.4503818
0.4550294, -0.0142672, 3.86775, -6.1E-05, 3.86775, -1.0006104, 3.86775, -0.0667114, 3.86775, 0.0763359, 3.86775, 0.7175573, 3.86775, -6.4885497
0.4558235, -0.0065461, 3.8745, -0.0024414, 3.8745, -1.0053711, 3.8745, -0.0583496, 3.8745, 0.0839695, 3.8745, 1.0458015, 3.8745, -6.3053436
0.4566176, -0.0031891, 3.88125, -0.0021362, 3.88125, -1.0056152, 3.88125, -0.0645142, 3.88125, 0.129771, 3.88125, 0.5648855, 3.88125, -6.480916
0.4574118, -0.0077211, 3.888, -0.0053101, 3.888, -1.0014038, 3.888, -0.067688, 3.888, -0.1679389, 3.888, 0.5114504, 3.888, -6.4580154
0.4582059, -0.0082246, 3.89475, -0.0067139, 3.89475, -1.005127, 3.89475, -0.0672607, 3.89475, -0.4274809, 3.89475, 0.4885496, 3.89475, -6.9007635
0.459, -0.011078, 3.9015, -0.010498, 3.9015, -1.0102539, 3.9015, -0.062561, 3.9015, -0.4656489, 3.9015, 0.0763359, 3.9015, -6.9694657
0.4597941, -0.0132601, 3.90825, -0.010376, 3.90825, -1.0128784, 3.90825, -0.0664062, 3.90825, -0.5648855, 3.90825, -0.3206107, 3.90825, -7.0534353
0.4605882, -0.0109102, 3.915, -0.0073853, 3.915, -1.0067749, 3.915, -0.074585, 3.915, -0.5801527, 3.915, -1.1450381, 3.915, -7.1526718
0.4613824, -0.0139315, 3.92175, -0.0031128, 3.92175, -1.0029907, 3.92175, -0.0750732, 3.92175, -0.5267175, 3.92175, -1.4732825, 3.92175, -7.2137403
0.4621765, -0.0139315, 3.9285, -0.0020142, 3.9285, -1.0038452, 3.9285, -0.0778809, 3.9285, -0.8167939, 3.9285, -1.3816794, 3.9285, -7.2290077
0.4629706, -0.0135958, 3.93525, 0, 3.93525, -1.0037842, 3.93525, -0.076355, 3.93525, -0.8320611, 3.93525, -1.3587786, 3.93525, -7.4274807
0.4637647, -0.0159457, 3.942, 0.0049438, 3.942, -1.003418, 3.942, -0.0783691, 3.942, -0.9923664, 3.942, -1.6259542, 3.942, -7.4656487
0.4645588, -0.018967, 3.94875, 0.0097656, 3.94875, -0.9993896, 3.94875, -0.0814819, 3.94875, -1.1145039, 3.94875, -1.4198474, 3.94875, -7.5267177
0.4653529, -0.021149, 3.9555, 0.0072632, 3.9555, -0.9963379, 3.9555, -0.0871582, 3.9555, -1.4732825, 3.9555, -1.4274809, 3.9555, -7.5725193
0.4661471, -0.0176242, 3.96225, 0.0028076, 3.96225, -0.9995117, 3.96225, -0.078125, 3.96225, -1.7633588, 3.96225, -1.3816794, 3.96225, -7.480916
0.4669412, -0.0169528, 3.969, -0.0026855, 3.969, -1.0032349, 3.969, -0.0740356, 3.969, -1.8015267, 3.969, -1.6335878, 3.969, -7.8702292
0.4677353, -0.0216526, 3.97575, -0.0023804, 3.97575, -1.0023193, 3.97575, -0.0842285, 3.97575, -1.6870229, 3.97575, -2.5114503, 3.97575, -7.8778625
0.4685294, -0.0216526, 3.9825, 0.0010986, 3.9825, -1.0029297, 3.9825, -0.0759888, 3.9825, -1.6259542, 3.9825, -3.0458016, 3.9825, -7.7175574
0.4693235, -0.0260166, 3.98925, 0.0031738, 3.98925, -1.0004272, 3.98925, -0.0751343, 3.98925, -1.3053435, 3.98925, -3.648855, 3.98925, -7.8091602
0.4701176, -0.0229953, 3.996, 0.0076904, 3.996, -1.0020752, 3.996, -0.0772705, 3.996, -1.3664122, 3.996, -4.1755724, 3.996, -7.9770994
0.4709118, -0.0193027, 4.00275, 0.0050659, 4.00275, -1.0014648, 4.00275, -0.0733643, 4.00275, -0.9923664, 4.00275, -4.8473282, 4.00275, -7.9236641
0.4717059, -0.0176242, 4.0095, 0.0020752, 4.0095, -1.00354, 4.0095, -0.0675049, 4.0095, -1.1221374, 4.0095, -5.2442746, 4.0095, -8.0458012
0.4725, -0.0184634, 4.01625, -0.0023804, 4.01625, -1.0116577, 4.01625, -0.0650024, 4.01625, -1.2061069, 4.01625, -6.0763359, 4.01625, -8.1145039
0.4732941, -0.0142672, 4.023, -0.0036621, 4.023, -1.0093384, 4.023, -0.0667725, 4.023, -0.9541985, 4.023, -6.8396945, 4.023, -8.198473
0.4740882, -0.0149386, 4.02975, -0.0001831, 4.02975, -1.0099487, 4.02975, -0.0593872, 4.02975, -0.8854962, 4.02975, -7.0229006, 4.02975, -8.1374044
0.4748824, -0.0176242, 4.0365, 0.0100098, 4.0365, -1.0139771, 4.0365, -0.0597534, 4.0365, -1.0687023, 4.0365, -7.7709923, 4.0365, -8.2442751
0.4756765, -0.0162814, 4.04325, 0.0159912, 4.04325, -1.0233765, 4.04325, -0.0603638, 4.04325, -1.038168, 4.04325, -7.8702292, 4.04325, -8.2137403
0.4764706, -0.0132601, 4.05, 0.0241699, 4.05, -1.0246582, 4.05, -0.0591431, 4.05, -0.1374046, 4.05, -7.0534353, 4.05, -8.1068707
0.4772647, -0.01561, 4.05675, 0.0274658, 4.05675, -1.0230103, 4.05675, -0.0628662, 4.05675, 0.610687, 4.05675, -5.3893127, 4.05675, -8.0763359
0.4780588, -0.0167849, 4.0635, 0.0183716, 4.0635, -1.0139771, 4.0635, -0.0689697, 4.0635, 1.1145039, 4.0635, -4.4351144, 4.0635, -8.1221371
0.4788529, -0.0176242, 4.07025, 0.0140381, 4.07025, -1.0062866, 4.07025, -0.0814209, 4.07025, 1.3358779, 4.07025, -3.9389312, 4.07025, -8.0458012
0.4796471, -0.0182956, 4.077, 0.0107422, 4.077, -1.0087891, 4.077, -0.083252, 4.077, 1.1221374, 4.077, -3.519084, 4.077, -8.0687027
0.4804412, -0.0213169, 4.08375, 0.0112915, 4.08375, -1.0098267, 4.08375, -0.0796509, 4.08375, 1.1755725, 4.08375, -3.1755726, 4.08375, -8.1679392
0.4812353, -0.0199741, 4.0905, 0.0095825, 4.0905, -1.0079346, 4.0905, -0.0762329, 4.0905, 1.3206106, 4.0905, -3.2824428, 4.0905, -8.3053436
0.4820294, -0.0193027, 4.09725, 0.0064697, 4.09725, -1.0080566, 4.09725, -0.0769043, 4.09725, 1.1908396, 4.09725, -3.091603, 4.09725, -8.2442751
0.4828235, -0.0204776, 4.104, 0.0057983, 4.104, -1.0127563, 4.104, -0.0682373, 4.104, 1.0839695, 4.104, -3.0763359, 4.104, -8.2748089
0.4836176, -0.0208133, 4.11075, 0.0061035, 4.11075, -1.0206299, 4.11075, -0.0603638, 4.11075, 1.3129771, 4.11075, -3.3969467, 4.11075, -8.2061071
0.4844118, -0.023331, 4.1175, 0.0098877, 4.1175, -1.0231934, 4.1175, -0.0563965, 4.1175, 1.3129771, 4.1175, -3.3664122, 4.1175, -8.2900763
0.4852059, -0.0234989, 4.12425, 0.0142212, 4.12425, -1.0249634, 4.12425, -0.0461426, 4.12425, 1.5572519, 4.12425, -2.5038168, 4.12425, -7.9236641
0.486, -0.0196384, 4.131, 0.0211182, 4.131, -1.0215454, 4.131, -0.0335693, 4.131, 2.7709923, 4.131, -1.8167939, 4.131, -7.778626
0.4867941, -0.0182956, 4.13775, 0.024231, 4.13775, -1.0222778, 4.13775, -0.0365601, 4.13775, 4.0534353, 4.13775, -0.2748092, 4.13775, -7.5572519
0.4875882, -0.0135958, 4.1445, 0.026001, 4.1445, -1.0145874, 4.1445, -0.0524292, 4.1445, 6.5267177, 4.1445, 0.6412213, 4.1445, -7.2824426
0.4883824, -0.0109102, 4.15125, 0.0330811, 4.15125, -1.0081787, 4.15125, -0.0632324, 4.15125, 7.4045801, 4.15125, -0.0152672, 4.15125, -7.4274807
0.4891765, -0.0109102, 4.158, 0.0316772, 4.158, -1.0014038, 4.158, -0.0704956, 4.158, 7.1221375, 4.158, -1.3053435, 4.158, -7.7251906
0.4899706, -0.0082246, 4.16475, 0.0371704, 4.16475, -1.0018921, 4.16475, -0.0735474, 4.16475, 6.2671757, 4.16475, -1.2748091, 4.16475, -7.8244276
0.4907647, -0.0082246, 4.1715, 0.0361938, 4.1715, -1.0073242, 4.1715, -0.0667725, 4.1715, 5.9083967, 4.1715, -1.2977099, 4.1715, -8.1297712
0.4915588, -0.0065461, 4.17825, 0.0291748, 4.17825, -1.0061646, 4.17825, -0.0605469, 4.17825, 5.4198475, 4.17825, -1.2290076, 4.17825, -8.3129768
0.4923529, -0.0082246, 4.185, 0.0240479, 4.185, -0.9995117, 4.185, -0.0600586, 4.185, 5.3969464, 4.185, -1.3816794, 4.185, -8.1526718
0.4931471, -0.0085603, 4.19175, 0.0266113, 4.19175, -0.9957275, 4.19175, -0.0634155, 4.19175, 4.5343513, 4.19175, -0.8091603, 4.19175, -7.8702292
0.4939412, -0.0149386, 4.1985, 0.0303345, 4.1985, -1.0027466, 4.1985, -0.0482788, 4.1985, 4.1145039, 4.1985, -0.1526718, 4.1985, -7.6488547
0.4947353, -0.0206455, 4.20525, 0.0276489, 4.20525, -1.0020752, 4.20525, -0.0498657, 4.20525, 4.1450381, 4.20525, 0.870229, 4.20525, -7.3893127
0.4955294, -0.0229953, 4.212, 0.0281982, 4.212, -1.0036621, 4.212, -0.0606689, 4.212, 3.9312978, 4.212, 1.1908396, 4.212, -7.2061067
0.4963235, -0.0223239, 4.21875, 0.0341187, 4.21875, -1.0050659, 4.21875, -0.0692139, 4.21875, 4.0458016, 4.21875, 0.7099237, 4.21875, -6.9160304
0.4971176, -0.0193027, 4.2255, 0.0401611, 4.2255, -1.0071411, 4.2255, -0.0620728, 4.2255, 4.1145039, 4.2255, 0.3206107, 4.2255, -7.1374044
0.4979118, -0.018967, 4.23225, 0.0449829, 4.23225, -1.0140991, 4.23225, -0.0492554, 4.23225, 4.4045801, 4.23225, 1.3129771, 4.23225, -6.7938933
0.4987059, -0.0216526, 4.239, 0.0462036, 4.239, -1.0148315, 4.239, -0.048645, 4.239, 5.3206105, 4.239, 3.7938931, 4.239, -6.5114503
0.4995, -0.0206455, 4.24575, 0.0452271, 4.24575, -1.0136719, 4.24575, -0.0463257, 4.24575, 6.2671757, 4.24575, 4.8931298, 4.24575, -6.4885497
0.5002941, -0.0172885, 4.2525, 0.0435181, 4.2525, -1.0062256, 4.2525, -0.043396, 4.2525, 6.4503818, 4.2525, 6.2977099, 4.2525, -6.5877862
0.5010882, -0.0135958, 4.25925, 0.0348511, 4.25925, -1.0097046, 4.25925, -0.0404053, 4.25925, 6.2824426, 4.25925, 7.5877862, 4.25925, -6.5343513
0.5018824, -0.0112459, 4.266, 0.03302, 4.266, -1.0098877, 4.266, -0.0460815, 4.266, 5.480916, 4.266, 8.7862597, 4.266, -6.5419846
0.5026765, -0.0119173, 4.27275, 0.0332642, 4.27275, -1.0119629, 4.27275, -0.0466309, 4.27275, 4.9770994, 4.27275, 9.519084, 4.27275, -6.6793895
0.5034706, -0.0105745, 4.2795, 0.0303955, 4.2795, -1.0131836, 4.2795, -0.0634766, 4.2795, 4.5496182, 4.2795, 9.3969469, 4.2795, -6.7328243
0.5042647, -0.0082246, 4.28625, 0.0353394, 4.28625, -1.0134888, 4.28625, -0.064209, 4.28625, 4.3511453, 4.28625, 8.4580154, 4.28625, -6.7862597
0.5050588, -0.0072175, 4.293, 0.0361328, 4.293, -1.0149536, 4.293, -0.0704346, 4.293, 4.6030536, 4.293, 7.8549619, 4.293, -6.6106873
0.5058529, -0.008896, 4.29975, 0.0375977, 4.29975, -1.0112915, 4.29975, -0.0790405, 4.29975, 4.4045801, 4.29975, 7.5725193, 4.29975, -6.6870227
0.5066471, -0.0075532, 4.3065, 0.0388794, 4.3065, -1.0126343, 4.3065, -0.0646362, 4.3065, 4.2290077, 4.3065, 8.2061071, 4.3065, -6.8931298
0.5074412, -0.0058747, 4.31325, 0.0357056, 4.31325, -1.0097656, 4.31325, -0.0593872, 4.31325, 4.6106873, 4.31325, 8.8931293, 4.31325, -6.9160304
0.5082353, -0.0083925, 4.32, 0.0290527, 4.32, -1.0073242, 4.32, -0.0588379, 4.32, 4.8091602, 4.32, 8.6946564, 4.32, -6.778626
0.5090294, -0.0125887, 4.32675, 0.0314941, 4.32675, -1.0045166, 4.32675, -0.0789185, 4.32675, 5.0763359, 4.32675, 8.0687027, 4.32675, -6.5725193
0.5098235, -0.0151064, 4.3335, 0.0327759, 4.3335, -0.9995117, 4.3335, -0.0904541, 4.3335, 4.778626, 4.3335, 7.3740458, 4.3335, -6.6717558
0.5106176, -0.017792, 4.34025, 0.0369873, 4.34025, -1.0014648, 4.34025, -0.0760498, 4.34025, 4.4961834, 4.34025, 6.6488547, 4.34025, -6.6564884
0.5114118, -0.0243381, 4.347, 0.0410156, 4.347, -1.0002441, 4.347, -0.06604, 4.347, 4.1984735, 4.347, 5.9007635, 4.347, -6.5343513
0.5122059, -0.0176242, 4.35375, 0.041687, 4.35375, -1.0024414, 4.35375, -0.0616455, 4.35375, 4.1832061, 4.35375, 5.6717558, 4.35375, -6.7022901
0.513, -0.0169528, 4.3605, 0.0438232, 4.3605, -1.0029297, 4.3605, -0.0485229, 4.3605, 4.0992365, 4.3605, 4.9541984, 4.3605, -6.9007635
0.5137941, -0.0176242, 4.36725, 0.0420532, 4.36725, -1.0046387, 4.36725, -0.039856, 4.36725, 3.7862597, 4.36725, 4.2900763, 4.36725, -6.8549619
0.5145882, -0.0203098, 4.374, 0.0361938, 4.374, -1.0056152, 4.374, -0.0285645, 4.374, 4.3206105, 4.374, 4.0763359, 4.374, -6.8702292
0.5153824, -0.0229953, 4.38075, 0.0300903, 4.38075, -0.9953613, 4.38075, -0.031311, 4.38075, 4.6259542, 4.38075, 3.6335878, 4.38075, -6.8244276
0.5161765, -0.0221561, 4.3875, 0.0306396, 4.3875, -0.9916382, 4.3875, -0.0222168, 4.3875, 4.0534353, 4.3875, 2.351145, 4.3875, -6.9770994
0.5169706, -0.0199741, 4.39425, 0.0290527, 4.39425, -0.9927979, 4.39425, -0.0218506, 4.39425, 3.6717558, 4.39425, 0.9923664, 4.39425, -7.0534353
0.5177647, -0.018967, 4.401, 0.029541, 4.401, -0.99646, 4.401, -0.0197754, 4.401, 3.1603053, 4.401, 0, 4.401, -7.1297708
0.5185588, -0.0146029, 4.40775, 0.0265503, 4.40775, -1.0002441, 4.40775, -0.0222168, 4.40775, 2.5572519, 4.40775, -0.6183206, 4.40775, -6.8702292
0.5193529, -0.0135958, 4.4145, 0.0339355, 4.4145, -1.0024414, 4.4145, -0.0149536, 4.4145, 2.3435113, 4.4145, -1.1221374, 4.4145, -6.9160304
0.5201471, -0.0139315, 4.42125, 0.0350952, 4.42125, -1.0019531, 4.42125, -0.0155029, 4.42125, 1.8167939, 4.42125, -1.4274809, 4.42125, -6.9923663
0.5209412, -0.0112459, 4.428, 0.0387573, 4.428, -1.0014038, 4.428, -0.0169067, 4.428, 1.6870229, 4.428, -1.5267175, 4.428, -6.8320613
0.5217353, -0.0102388, 4.43475, 0.0452881, 4.43475, -1.0031738, 4.43475, -0.0227051, 4.43475, 1.1603054, 4.43475, -1.5038168, 4.43475, -6.6106873
0.5225294, -0.0109102, 4.4415, 0.0454712, 4.4415, -1.0076904, 4.4415, -0.0206909, 4.4415, 0.8931298, 4.4415, -0.8244275, 4.4415, -6.5343513
0.5233235, -0.0109102, 4.44825, 0.0509033, 4.44825, -1.0090942, 4.44825, -0.0196533, 4.44825, 0.5038168, 4.44825, -0.2061069, 4.44825, -6.3053436
0.5241176, -0.012253, 4.455, 0.0546265, 4.455, -1.0038452, 4.455, -0.0249634, 4.455, 0.1450382, 4.455, 0.2748092, 4.455, -6.2824426
0.5249118, -0.0147707, 4.46175, 0.0548096, 4.46175, -1.0019531, 4.46175, -0.0319824, 4.46175, -0.2748092, 4.46175, 0.961832, 4.46175, -6.1984735
0.5257059, -0.0129244, 4.4685, 0.0521851, 4.4685, -1.0014648, 4.4685, -0.032959, 4.4685, -0.8244275, 4.4685, 1.5496184, 4.4685, -6.2519083
0.5265, -0.0099031, 4.47525, 0.0465088, 4.47525, -1.0029297, 4.47525, -0.0307617, 4.47525, -0.9923664, 4.47525, 1.5572519, 4.47525, -6.1679387
0.5272941, -0.0129244, 4.482, 0.0422363, 4.482, -1.0001831, 4.482, -0.0308228, 4.482, -1.5267175, 4.482, 1.3435115, 4.482, -6.0305343
0.5280882, -0.0124208, 4.48875, 0.0432129, 4.48875, -0.9990845, 4.48875, -0.0332642, 4.48875, -2, 4.48875, 0.8320611, 4.48875, -6.0839696
0.5288824, -0.0132601, 4.4955, 0.041687, 4.4955, -0.9996338, 4.4955, -0.0406494, 4.4955, -2.4427481, 4.4955, -0.2290076, 4.4955, -5.7709923
0.5296765, -0.0169528, 4.50225, 0.039917, 4.50225, -0.99646, 4.50225, -0.0341187, 4.50225, -2.870229, 4.50225, -1.3282443, 4.50225, -6.0687022
0.5304706, -0.0224918, 4.509, 0.0437622, 4.509, -1, 4.509, -0.0351562, 4.509, -2.9541984, 4.509, -2.0687022, 4.509, -5.9923663
0.5312647, -0.0250095, 4.51575, 0.0479126, 4.51575, -0.9975586, 4.51575, -0.0427246, 4.51575, -3.389313, 4.51575, -3.1755726, 4.51575, -5.8625956
0.5320588, -0.0206455, 4.5225, 0.0514526, 4.5225, -0.9985962, 4.5225, -0.0413208, 4.5225, -3.740458, 4.5225, -3.7862597, 4.5225, -5.9007635
0.5328529, -0.0203098, 4.52925, 0.0583496, 4.52925, -0.9967041, 4.52925, -0.0499878, 4.52925, -3.961832, 4.52925, -4.3969464, 4.52925, -5.6641221
0.5336471, -0.0203098, 4.536, 0.0569458, 4.536, -1.0024414, 4.536, -0.050293, 4.536, -4.2290077, 4.536, -4.9694657, 4.536, -5.7099237
0.5344412, -0.017792, 4.54275, 0.0587158, 4.54275, -1.0020752, 4.54275, -0.0539551, 4.54275, -4.4427481, 4.54275, -4.9541984, 4.54275, -5.6106873
0.5352353, -0.0171206, 4.5495, 0.0556641, 4.5495, -1.0009155, 4.5495, -0.0563965, 4.5495, -4.4351144, 4.5495, -4.7557254, 4.5495, -5.4656487
0.5360294, -0.0176242, 4.55625, 0.0582275, 4.55625, -1.0027466, 4.55625, -0.053894, 4.55625, -4.3053436, 4.55625, -4.259542, 4.55625, -5.3282442
0.5368235, -0.0140993, 4.563, 0.0537109, 4.563, -1.0044556, 4.563, -0.0627441, 4.563, -4.0610685, 4.563, -4.4122138, 4.563, -5.3511453
0.5376176, -0.0142672, 4.56975, 0.0515137, 4.56975, -1.0044556, 4.56975, -0.0643921, 4.56975, -4.0229006, 4.56975, -4.0534353, 4.56975, -5.1374044
0.5384118, -0.0135958, 4.5765, 0.0511475, 4.5765, -1.0004272, 4.5765, -0.0664062, 4.5765, -4.0610685, 4.5765, -3.778626, 4.5765, -4.9541984
0.5392059, -0.0109102, 4.58325, 0.0527954, 4.58325, -1.0004272, 4.58325, -0.0653076, 4.58325, -4.1068702, 4.58325, -3.6641221, 4.58325, -4.9160304
0.54, -0.0135958, 4.59, 0.0541992, 4.59, -1.0023804, 4.59, -0.0662231, 4.59, -3.9923663, 4.59, -3.5419848, 4.59, -4.8320613
0.5407941, -0.0149386, 4.59675, 0.0534058, 4.59675, -1.0032349, 4.59675, -0.0665283, 4.59675, -3.8549619, 4.59675, -3.3740458, 4.59675, -4.7328243
0.5415882, -0.0146029, 4.6035, 0.0597534, 4.6035, -1.0021973, 4.6035, -0.0645752, 4.6035, -3.9389312, 4.6035, -2.8473282, 4.6035, -4.5877862
0.5423824, -0.0149386, 4.61025, 0.060791, 4.61025, -1.0010986, 4.61025, -0.0679932, 4.61025, -4.038168, 4.61025, -2.3664122, 4.61025, -4.1526718
0.5431765, -0.0142672, 4.617, 0.0610352, 4.617, -1.0029907, 4.617, -0.0579834, 4.617, -4.5954199, 4.617, -1.908397, 4.617, -4.1297708
0.5439706, -0.0135958, 4.62375, 0.0610352, 4.62375, -1.0037231, 4.62375, -0.0557861, 4.62375, -4.3664122, 4.62375, -1.3206106, 4.62375, -3.9541984
0.5447647, -0.0162814, 4.6305, 0.0615845, 4.6305, -1.0026245, 4.6305, -0.0640869, 4.6305, -4.1068702, 4.6305, -1.7557251, 4.6305, -3.7709923
0.5455588, -0.0182956, 4.63725, 0.0596924, 4.63725, -1.0004272, 4.63725, -0.0640869, 4.63725, -3.9007633, 4.63725, -1.7709924, 4.63725, -3.7328243
0.5463529, -0.0203098, 4.644, 0.059082, 4.644, -0.9993286, 4.644, -0.0648804, 4.644, -3.9312978, 4.644, -1.7480916, 4.644, -3.5801528
0.5471471, -0.0213169, 4.65075, 0.0606689, 4.65075, -1.0044556, 4.65075, -0.0601807, 4.65075, -3.8854961, 4.65075, -1.7480916, 4.65075, -3.4656489
0.5479412, -0.0176242, 4.6575, 0.06073, 4.6575, -1.0077515, 4.6575, -0.06073, 4.6575, -3.7557251, 4.6575, -1.9160305, 4.6575, -3.5038168
0.5487353, -0.0206455, 4.66425, 0.0588379, 4.66425, -1.0050049, 4.66425, -0.0571899, 4.66425, -3.7328243, 4.66425, -1.9312977, 4.66425, -3.4198472
0.5495294, -0.0193027, 4.671, 0.059021, 4.671, -1.0020142, 4.671, -0.0620728, 4.671, -3.4656489, 4.671, -1.8167939, 4.671, -3.091603
0.5503235, -0.0162814, 4.67775, 0.0582886, 4.67775, -1.0045776, 4.67775, -0.0633545, 4.67775, -3.389313, 4.67775, -1.7862595, 4.67775, -3.0305343
0.5511176, -0.017792, 4.6845, 0.0581055, 4.6845, -1.0038452, 4.6845, -0.0638428, 4.6845, -3.2137403, 4.6845, -1.8625954, 4.6845, -2.9160306
0.5519118, -0.0182956, 4.69125, 0.0597534, 4.69125, -1.001709, 4.69125, -0.0656738, 4.69125, -2.9770992, 4.69125, -1.7862595, 4.69125, -2.5419848
0.5527059, -0.012253, 4.698, 0.0595703, 4.698, -1.0062256, 4.698, -0.0709229, 4.698, -2.7709923, 4.698, -1.4198474, 4.698, -2.7022901
0.5535, -0.0125887, 4.70475, 0.0576172, 4.70475, -1.0031738, 4.70475, -0.0670776, 4.70475, -2.5954199, 4.70475, -0.9694657, 4.70475, -2.3969467
0.5542941, -0.0095674, 4.7115, 0.0535278, 4.7115, -1.0050049, 4.7115, -0.0668945, 4.7115, -2.4122138, 4.7115, -0.6870229, 4.7115, -2.2748091
0.5550882, -0.0085603, 4.71825, 0.0525513, 4.71825, -1.0110474, 4.71825, -0.0683594, 4.71825, -2.5038168, 4.71825, -0.4351145, 4.71825, -2.1984732
0.5558824, -0.0028534, 4.725, 0.0475464, 4.725, -1.0159302, 4.725, -0.0691528, 4.725, -2.1374047, 4.725, 0, 4.725, -2.3282442
0.5566765, -0.0035248, 4.73175, 0.0455933, 4.73175, -1.0154419, 4.73175, -0.0723877, 4.73175, -1.778626, 4.73175, 0, 4.73175, -2.1832061
0.5574706, -0.006714, 4.7385, 0.0474854, 4.7385, -1.0109863, 4.7385, -0.0699463, 4.7385, -2.0992367, 4.7385, -0.0610687, 4.7385, -2.0305343
0.5582647, -0.008896, 4.74525, 0.0491333, 4.74525, -1.0060425, 4.74525, -0.0744629, 4.74525, -1.6946565, 4.74525, -0.2671756, 4.74525, -1.8320611
0.5590588, -0.0105745, 4.752, 0.0546265, 4.752, -1.008728, 4.752, -0.079834, 4.752, -1.519084, 4.752, -0.4122137, 4.752, -1.5954199
0.5598529, -0.008896, 4.75875, 0.0565796, 4.75875, -1.007019, 4.75875, -0.0716553, 4.75875, -1.2748091, 4.75875, -0.1755725, 4.75875, -1.648855
0.5606471, -0.0130922, 4.7655, 0.0531616, 4.7655, -1.0061035, 4.7655, -0.067688, 4.7655, -1.1526718, 4.7655, -0.1145038, 4.7655, -1.7022901
0.5614412, -0.01561, 4.77225, 0.0506592, 4.77225, -1.0037842, 4.77225, -0.067688, 4.77225, -0.961832, 4.77225, -0.0381679, 4.77225, -1.8167939
0.5622353, -0.0135958, 4.779, 0.0471802, 4.779, -1.0074463, 4.779, -0.0701294, 4.779, -0.870229, 4.779, -0.0076336, 4.779, -1.6183206
0.5630294, -0.0169528, 4.78575, 0.0480347, 4.78575, -1.0062866, 4.78575, -0.0715332, 4.78575, -0.6030535, 4.78575, -0.1755725, 4.78575, -1.4732825
0.5638235, -0.017792, 4.7925, 0.0488281, 4.7925, -1.0080566, 4.7925, -0.0697021, 4.7925, -0.5954198, 4.7925, -0.1450382, 4.7925, -1.4580153
0.5646176, -0.0171206, 4.79925, 0.0447998, 4.79925, -1.0055542, 4.79925, -0.0687256, 4.79925, -0.7022901, 4.79925, -0.3358779, 4.79925, -1.4885496
0.5654118, -0.0223239, 4.806, 0.0421143, 4.806, -1.0036011, 4.806, -0.0674438, 4.806, -0.6946565, 4.806, -0.5267175, 4.806, -1.5114504
0.5662059, -0.0221561, 4.81275, 0.0438232, 4.81275, -1.0084839, 4.81275, -0.0709229, 4.81275, -0.4732825, 4.81275, -0.9236641, 4.81275, -1.5648855
0.567, -0.0208133, 4.8195, 0.0462036, 4.8195, -1.0061035, 4.8195, -0.0754395, 4.8195, -0.3969466, 4.8195, -0.8091603, 4.8195, -1.6564885
0.5677941, -0.0203098, 4.82625, 0.0483398, 4.82625, -1.0075073, 4.82625, -0.0762329, 4.82625, -0.3816794, 4.82625, -0.5801527, 4.82625, -1.6335878
0.5685882, -0.0223239, 4.833, 0.045105, 4.833, -1.0050049, 4.833, -0.0718994, 4.833, -0.389313, 4.833, -0.3053435, 4.833, -1.389313
0.5693824, -0.0209812, 4.83975, 0.0429688, 4.83975, -1.0027466, 4.83975, -0.0775757, 4.83975, -0.1679389, 4.83975, -0.0916031, 4.83975, -1.3740458
0.5701765, -0.0182956, 4.8465, 0.0449829, 4.8465, -1.0027466, 4.8465, -0.0773315, 4.8465, -0.3816794, 4.8465, 0.2900763, 4.8465, -1.1679389
0.5709706, -0.0166171, 4.85325, 0.0405273, 4.85325, -1.0078735, 4.85325, -0.0732422, 4.85325, -0.2442748, 4.85325, 0.6183206, 4.85325, -1.3053435
0.5717647, -0.0099031, 4.86, 0.039917, 4.86, -1.0067139, 4.86, -0.0700684, 4.86, -0.0305344, 4.86, 0.4732825, 4.86, -1.4427481
0.5725588, -0.0095674, 4.86675, 0.0410767, 4.86675, -1.0083008, 4.86675, -0.0733643, 4.86675, -0.2366412, 4.86675, 0.6564885, 4.86675, -1.1679389
0.5733529, -0.0115816, 4.8735, 0.0419312, 4.8735, -1.0100708, 4.8735, -0.0759277, 4.8735, -0.3129771, 4.8735, 0.8473282, 4.8735, -1.2061069
0.5741471, -0.0119173, 4.88025, 0.0424805, 4.88025, -1.006958, 4.88025, -0.0699463, 4.88025, -0.4122137, 4.88025, 1.0076336, 4.88025, -1.1679389
0.5749412, -0.012253, 4.887, 0.0454102, 4.887, -1.0047607, 4.887, -0.0667114, 4.887, -0.221374, 4.887, 1.1145039, 4.887, -1.2519084
0.5757353, -0.0115816, 4.89375, 0.041687, 4.89375, -1.0067749, 4.89375, -0.0669556, 4.89375, -0.221374, 4.89375, 0.9770992, 4.89375, -1.1679389
0.5765294, -0.0142672, 4.9005, 0.041626, 4.9005, -1.0061035, 4.9005, -0.0725098, 4.9005, -0.3358779, 4.9005, 0.4580153, 4.9005, -1.3816794
0.5773235, -0.0130922, 4.90725, 0.0376587, 4.90725, -1.0059204, 4.90725, -0.0715332, 4.90725, -0.4503817, 4.90725, 0.4580153, 4.90725, -1.2824427
0.5781176, -0.0115816, 4.914, 0.0366821, 4.914, -1.0097656, 4.914, -0.0700684, 4.914, -0.3816794, 4.914, 0.3587786, 4.914, -1.4656489
0.5789118, -0.0149386, 4.92075, 0.0331421, 4.92075, -1.0125122, 4.92075, -0.0681152, 4.92075, -0.4274809, 4.92075, 0.1374046, 4.92075, -1.5496184
0.5797059, -0.0203098, 4.9275, 0.0355835, 4.9275, -1.0094604, 4.9275, -0.0734863, 4.9275, -0.4198473, 4.9275, -0.2900763, 4.9275, -1.5801526
0.5805, -0.0179599, 4.93425, 0.0390015, 4.93425, -1.0078735, 4.93425, -0.0757446, 4.93425, -0.2366412, 4.93425, -0.4198473, 4.93425, -1.6030535
0.5812941, -0.0159457, 4.941, 0.0405884, 4.941, -1.0082397, 4.941, -0.0809326, 4.941, -0.2061069, 4.941, -0.4580153, 4.941, -1.6259542
0.5820882, -0.0199741, 4.94775, 0.0422974, 4.94775, -1.0076904, 4.94775, -0.0782471, 4.94775, -0.4885496, 4.94775, -0.1908397, 4.94775, -1.7328244
0.5828824, -0.0213169, 4.9545, 0.0435791, 4.9545, -1.0073853, 4.9545, -0.0752563, 4.9545, -0.221374, 4.9545, 0.0458015, 4.9545, -1.5954199
0.5836765, -0.0226596, 4.96125, 0.0441284, 4.96125, -1.0093994, 4.96125, -0.0831299, 4.96125, -0.1068702, 4.96125, 0.2366412, 4.96125, -1.5877863
0.5844706, -0.0182956, 4.968, 0.0448608, 4.968, -1.008728, 4.968, -0.0812988, 4.968, -0.2519084, 4.968, 1, 4.968, -1.5114504
0.5852647, -0.0179599, 4.97475, 0.0452881, 4.97475, -1.0090942, 4.97475, -0.0807495, 4.97475, -0.1450382, 4.97475, 1.221374, 4.97475, -1.6564885
0.5860588, -0.0176242, 4.9815, 0.0401001, 4.9815, -1.0106812, 4.9815, -0.0831299, 4.9815, -0.0305344, 4.9815, 1.4961832, 4.9815, -1.9007634
0.5868529, -0.0176242, 4.98825, 0.0344238, 4.98825, -1.0114136, 4.98825, -0.0791016, 4.98825, 0.0152672, 4.98825, 1.6259542, 4.98825, -1.7633588
0.5876471, -0.0157778, 4.995, 0.0334473, 4.995, -1.0092773, 4.995, -0.0764771, 4.995, 0.1526718, 4.995, 1.7709924, 4.995, -1.8015267
0.5884412, -0.01561, 5.00175, 0.031189, 5.00175, -1.0067749, 5.00175, -0.0795288, 5.00175, 0.2290076, 5.00175, 1.8396946, 5.00175, -2.0076337
0.5892353, -0.0132601, 5.0085, 0.0322266, 5.0085, -1.0068359, 5.0085, -0.0794067, 5.0085, 0.0610687, 5.0085, 1.2900764, 5.0085, -1.8244275
0.5900294, -0.0132601, 5.01525, 0.0298462, 5.01525, -1.0079956, 5.01525, -0.0770264, 5.01525, 0.3282443, 5.01525, 1.2671756, 5.01525, -1.7709924
0.5908235, -0.0166171, 5.022, 0.0296631, 5.022, -1.0100708, 5.022, -0.0812988, 5.022, 0.4427481, 5.022, 1.1221374, 5.022, -2.0458016
0.5916176, -0.0146029, 5.02875, 0.0316772, 5.02875, -1.0092163, 5.02875, -0.0762329, 5.02875, 0.4580153, 5.02875, 0.7938932, 5.02875, -2.0229008
0.5924118, -0.0149386, 5.0355, 0.0319824, 5.0355, -1.0075073, 5.0355, -0.0767822, 5.0355, 0.5419847, 5.0355, 0.5648855, 5.0355, -2.1984732
0.5932059, -0.0169528, 5.04225, 0.0358276, 5.04225, -1.0072021, 5.04225, -0.0796509, 5.04225, 0.6564885, 5.04225, 0.5114504, 5.04225, -2.2290077
0.594, -0.0169528, 5.049, 0.0372314, 5.049, -1.0075073, 5.049, -0.0802612, 5.049, 0.6564885, 5.049, 0.5648855, 5.049, -2.3282442
0.5947941, -0.01561, 5.05575, 0.0410767, 5.05575, -1.0103149, 5.05575, -0.0758057, 5.05575, 0.7251908, 5.05575, 0.5801527, 5.05575, -2.3053436
0.5955882, -0.0196384, 5.0625, 0.0385132, 5.0625, -1.0095825, 5.0625, -0.0769653, 5.0625, 0.5267175, 5.0625, 0.5954198, 5.0625, -2.1832061
0.5963824, -0.0199741, 5.06925, 0.0393677, 5.06925, -1.0037231, 5.06925, -0.0784912, 5.06925, 0.6335878, 5.06925, 1.2977099, 5.06925, -2.3282442
0.5971765, -0.0218204, 5.076, 0.0422974, 5.076, -1.0056763, 5.076, -0.0822754, 5.076, 0.5496183, 5.076, 1.2748091, 5.076, -2.3587787
0.5979706, -0.0209812, 5.08275, 0.0336914, 5.08275, -1.0070801, 5.08275, -0.0783691, 5.08275, 0.6335878, 5.08275, 1.5877863, 5.08275, -2.4427481
0.5987647, -0.0162814, 5.0895, 0.0335083, 5.0895, -1.0070801, 5.0895, -0.0766602, 5.0895, 0.6335878, 5.0895, 2.0076337, 5.0895, -2.3740458
0.5995588, -0.0164492, 5.09625, 0.0314941, 5.09625, -1.0081787, 5.09625, -0.0784302, 5.09625, 0.8396947, 5.09625, 1.9389313, 5.09625, -2.5267177
0.6003529, -0.0179599, 5.103, 0.0297241, 5.103, -1.0065918, 5.103, -0.0774536, 5.103, 0.6946565, 5.103, 2.1679389, 5.103, -2.5038168
0.6011471, -0.0186313, 5.10975, 0.0297852, 5.10975, -1.0079956, 5.10975, -0.0727539, 5.10975, 0.740458, 5.10975, 2.0458016, 5.10975, -2.5419848
0.6019412, -0.0179599, 5.1165, 0.0291748, 5.1165, -1.0108032, 5.1165, -0.0704346, 5.1165, 0.610687, 5.1165, 1.5648855, 5.1165, -2.7557251
0.6027353, -0.0169528, 5.12325, 0.0273438, 5.12325, -1.0081177, 5.12325, -0.072998, 5.12325, 0.5419847, 5.12325, 1.4656489, 5.12325, -2.6259542
0.6035294, -0.0152743, 5.13, 0.0321045, 5.13, -1.010498, 5.13, -0.0697632, 5.13, 0.5648855, 5.13, 1.5725191, 5.13, -2.6870229
0.6043235, -0.0172885, 5.13675, 0.0346069, 5.13675, -1.0095825, 5.13675, -0.0667725, 5.13675, 0.4045801, 5.13675, 1.2977099, 5.13675, -2.9312978
0.6051176, -0.0159457, 5.1435, 0.0348511, 5.1435, -1.0078735, 5.1435, -0.0706177, 5.1435, 0.7175573, 5.1435, 1.4045801, 5.1435, -2.9389312
0.6059118, -0.0125887, 5.15025, 0.0348511, 5.15025, -1.0056152, 5.15025, -0.0740356, 5.15025, 0.6412213, 5.15025, 1.1526718, 5.15025, -2.7938931
0.6067059, -0.0109102, 5.157, 0.0319214, 5.157, -1.0075073, 5.157, -0.0748901, 5.157, 0.6564885, 5.157, 0.8320611, 5.157, -2.9160306
0.6075, -0.011078, 5.16375, 0.0299072, 5.16375, -1.0065918, 5.16375, -0.0761108, 5.16375, 0.5114504, 5.16375, 0.7938932, 5.16375, -3.0839694
0.6082941, -0.0129244, 5.1705, 0.0300293, 5.1705, -1.0076294, 5.1705, -0.0743408, 5.1705, 0.4427481, 5.1705, 0.3129771, 5.1705, -3.2442749
0.6090882, -0.008896, 5.17725, 0.0337524, 5.17725, -1.0075684, 5.17725, -0.0772705, 5.17725, 0.4274809, 5.17725, -0.2290076, 5.17725, -3.0992367
0.6098824, -0.0102388, 5.184, 0.0320435, 5.184, -1.0074463, 5.184, -0.074646, 5.184, 0.4122137, 5.184, -0.2748092, 5.184, -3.2137403
0.6106765, -0.0159457, 5.19075, 0.0344849, 5.19075, -1.0046997, 5.19075, -0.0775146, 5.19075, 0.480916, 5.19075, -0.4961832, 5.19075, -3.2900763
0.6114706, -0.0198062, 5.1975, 0.036499, 5.1975, -1.0060425, 5.1975, -0.0767212, 5.1975, 0.389313, 5.1975, -0.8854962, 5.1975, -3.259542
0.6122647, -0.0186313, 5.20425, 0.0379028, 5.20425, -1.0076294, 5.20425, -0.0791626, 5.20425, 0.480916, 5.20425, -0.7480916, 5.20425, -3.2061069
0.6130588, -0.0186313, 5.211, 0.0389404, 5.211, -1.008728, 5.211, -0.0806274, 5.211, 0.3206107, 5.211, -0.7099237, 5.211, -3.4656489
0.6138529, -0.017792, 5.21775, 0.0410156, 5.21775, -1.0077515, 5.21775, -0.0812988, 5.21775, 0.3435115, 5.21775, -0.221374, 5.21775, -3.3206108
0.6146471, -0.0199741, 5.2245, 0.03479, 5.2245, -1.0106812, 5.2245, -0.0799561, 5.2245, 0.4274809, 5.2245, 0.0458015, 5.2245, -3.3664122
0.6154412, -0.0196384, 5.23125, 0.0330811, 5.23125, -1.0055542, 5.23125, -0.0766602, 5.23125, 0.3740458, 5.23125, 0.7480916, 5.23125, -3.4045801
0.6162353, -0.0172885, 5.238, 0.0342407, 5.238, -1.0045776, 5.238, -0.0770874, 5.238, 0.4122137, 5.238, 0.8854962, 5.238, -3.6641221
0.6170294, -0.0172885, 5.24475, 0.03125, 5.24475, -1.0053101, 5.24475, -0.0803223, 5.24475, 0.5725191, 5.24475, 0.8549618, 5.24475, -3.6335878
0.6178235, -0.0179599, 5.2515, 0.0321655, 5.2515, -1.006897, 5.2515, -0.0830688, 5.2515, 0.5419847, 5.2515, 0.9465649, 5.2515, -3.4351146
0.6186176, -0.0149386, 5.25825, 0.0374146, 5.25825, -1.0081787, 5.25825, -0.0800781, 5.25825, 0.3969466, 5.25825, 1.3053435, 5.25825, -3.4427481
0.6194118, -0.0072175, 5.265, 0.0368652, 5.265, -1.0075073, 5.265, -0.0739746, 5.265, 0.4045801, 5.265, 1.6412214, 5.265, -3.3816793
0.6202059, -0.0058747, 5.27175, 0.0390015, 5.27175, -1.0078735, 5.27175, -0.072998, 5.27175, 0.8091603, 5.27175, 1.8320611, 5.27175, -3.4732823
0.621, -0.0036927, 5.2785, 0.0368652, 5.2785, -1.0060425, 5.2785, -0.0822754, 5.2785, 0.4427481, 5.2785, 1.8396946, 5.2785, -3.4045801
0.6217941, -0.0068818, 5.28525, 0.0355225, 5.28525, -1.0062256, 5.28525, -0.0790405, 5.28525, 0.5419847, 5.28525, 1.9389313, 5.28525, -3.4656489
0.6225882, -0.008896, 5.292, 0.0380249, 5.292, -1.0088501, 5.292, -0.0777588, 5.292, 0.7480916, 5.292, 1.6564885, 5.292, -3.5038168
0.6233824, -0.0045319, 5.29875, 0.0346069, 5.29875, -1.0057373, 5.29875, -0.0748291, 5.29875, 0.5954198, 5.29875, 1.2137405, 5.29875, -3.7480917
0.6241765, -0.0062104, 5.3055, 0.0338135, 5.3055, -1.0061646, 5.3055, -0.0793457, 5.3055, 0.5343512, 5.3055, 1.0763359, 5.3055, -3.6564887
0.6249706, -0.0075532, 5.31225, 0.034729, 5.31225, -1.0039062, 5.31225, -0.0775757, 5.31225, 0.610687, 5.31225, 0.9694657, 5.31225, -3.6641221
0.6257647, -0.0082246, 5.319, 0.0376587, 5.319, -1.0050049, 5.319, -0.0762939, 5.319, 0.5877863, 5.319, 0.7251908, 5.319, -3.6259542
0.6265588, -0.0070497, 5.32575, 0.0375366, 5.32575, -1.0055542, 5.32575, -0.0752563, 5.32575, 0.6870229, 5.32575, 0.6717557, 5.32575, -3.9465649
0.6273529, -0.0109102, 5.3325, 0.0358887, 5.3325, -1.0067749, 5.3325, -0.0782471, 5.3325, 0.6717557, 5.3325, 0.6183206, 5.3325, -3.8015268
0.6281471, -0.0102388, 5.33925, 0.0388794, 5.33925, -1.0072021, 5.33925, -0.0786133, 5.33925, 0.7099237, 5.33925, 0.7557252, 5.33925, -3.6564887
0.6289412, -0.0146029, 5.346, 0.0360718, 5.346, -1.0072021, 5.346, -0.0773926, 5.346, 0.5801527, 5.346, 0.7862595, 5.346, -3.870229
0.6297353, -0.0218204, 5.35275, 0.0386963, 5.35275, -1.0065918, 5.35275, -0.0814209, 5.35275, 0.6183206, 5.35275, 1.0992366, 5.35275, -3.6564887
0.6305294, -0.0229953, 5.3595, 0.0395508, 5.3595, -1.005188, 5.3595, -0.0827637, 5.3595, 0.6946565, 5.3595, 1.2442749, 5.3595, -3.7709923
0.6313235, -0.0256809, 5.36625, 0.0408936, 5.36625, -1.0060425, 5.36625, -0.079834, 5.36625, 0.5725191, 5.36625, 1.4122137, 5.36625, -3.6793892
0.6321176, -0.0303807, 5.373, 0.0421143, 5.373, -1.0076294, 5.373, -0.0818481, 5.373, 0.6870229, 5.373, 1.8167939, 5.373, -3.5725191
0.6329118, -0.0290379, 5.37975, 0.0421143, 5.37975, -1.0078125, 5.37975, -0.0802612, 5.37975, 0.5496183, 5.37975, 2.038168, 5.37975, -3.5343511
0.6337059, -0.0276951, 5.3865, 0.0411377, 5.3865, -1.006958, 5.3865, -0.076355, 5.3865, 0.5267175, 5.3865, 2.2519083, 5.3865, -3.6335878
0.6345, -0.0196384, 5.39325, 0.0386963, 5.39325, -1.0090332, 5.39325, -0.0829468, 5.39325, 0.6870229, 5.39325, 2.2137403, 5.39325, -3.7328243
0.6352941, -0.0099031, 5.4, 0.0383301, 5.4, -1.0097656, 5.4, -0.0825195, 5.4, 0.7709923, 5.4, 2.2137403, 5.4, -3.5114503
0.6360882, -0.0099031, 5.40675, 0.038147, 5.40675, -1.0071411, 5.40675, -0.0793457, 5.40675, 0.961832, 5.40675, 2.2977099, 5.40675, -3.6564887
0.6368824, -0.0109102, 5.4135, 0.0401611, 5.4135, -1.008606, 5.4135, -0.0773926, 5.4135, 0.8778626, 5.4135, 1.9847329, 5.4135, -3.5648854
0.6376765, -0.0095674, 5.42025, 0.0357666, 5.42025, -1.0072021, 5.42025, -0.0785522, 5.42025, 0.8931298, 5.42025, 1.8473282, 5.42025, -3.5954199
0.6384706, -0.0115816, 5.427, 0.038269, 5.427, -1.0081787, 5.427, -0.0799561, 5.427, 0.9770992, 5.427, 1.3129771, 5.427, -3.6183207
0.6392647, -0.0109102, 5.43375, 0.0396729, 5.43375, -1.0058594, 5.43375, -0.0770874, 5.43375, 0.8549618, 5.43375, 1.4427481, 5.43375, -3.5725191
0.6400588, -0.0104067, 5.4405, 0.0419312, 5.4405, -1.0077515, 5.4405, -0.0802612, 5.4405, 0.8549618, 5.4405, 1.3129771, 5.4405, -3.6717558
0.6408529, -0.0075532, 5.44725, 0.0414429, 5.44725, -1.0065918, 5.44725, -0.0762939, 5.44725, 0.9160305, 5.44725, 1.2519084, 5.44725, -3.5801528
0.6416471, -0.0077211, 5.454, 0.0426025, 5.454, -1.0073242, 5.454, -0.0774536, 5.454, 1.1832061, 5.454, 1.0534351, 5.454, -3.7022901
0.6424412, -0.0102388, 5.46075, 0.039856, 5.46075, -1.0057983, 5.46075, -0.0794067, 5.46075, 1.0152671, 5.46075, 1.0229008, 5.46075, -3.5114503
0.6432353, -0.0112459, 5.4675, 0.0397339, 5.4675, -1.0091553, 5.4675, -0.0794678, 5.4675, 1.0458015, 5.4675, 0.8396947, 5.4675, -3.7557251
0.6440294, -0.0149386, 5.47425, 0.036499, 5.47425, -1.0158691, 5.47425, -0.0775146, 5.47425, 1.0534351, 5.47425, 0.8396947, 5.47425, -3.6793892
0.6448235, -0.0139315, 5.481, 0.0365601, 5.481, -1.0132446, 5.481, -0.0750732, 5.481, 0.9770992, 5.481, 0.6641222, 5.481, -3.6183207
0.6456176, -0.0151064, 5.48775, 0.0396729, 5.48775, -1.0048218, 5.48775, -0.0743408, 5.48775, 1.0687023, 5.48775, 0.0916031, 5.48775, -3.4732823
0.6464118, -0.0172885, 5.4945, 0.0424194, 5.4945, -1.0057373, 5.4945, -0.078186, 5.4945, 1.3587786, 5.4945, -0.0687023, 5.4945, -3.5648854
0.6472059, -0.0196384, 5.50125, 0.0430298, 5.50125, -1.0065308, 5.50125, -0.0831299, 5.50125, 1.1832061, 5.50125, -0.0763359, 5.50125, -3.4427481
0.648, -0.0223239, 5.508, 0.0443115, 5.508, -1.0056152, 5.508, -0.0845947, 5.508, 1.0458015, 5.508, 0.1908397, 5.508, -3.5114503
0.6487941, -0.0193027, 5.51475, 0.0420532, 5.51475, -1.0044556, 5.51475, -0.079834, 5.51475, 1, 5.51475, 0.3435115, 5.51475, -3.4274809
0.6495882, -0.0182956, 5.5215, 0.0409546, 5.5215, -1.0057983, 5.5215, -0.0769653, 5.5215, 1.1068702, 5.5215, 0.2748092, 5.5215, -3.4045801
0.6503824, -0.0191348, 5.52825, 0.0380859, 5.52825, -1.0031738, 5.52825, -0.0792847, 5.52825, 1.0076336, 5.52825, 0.129771, 5.52825, -3.4580152
0.6511765, -0.0226596, 5.535, 0.038208, 5.535, -1.0037842, 5.535, -0.0737915, 5.535, 1.038168, 5.535, -0.1450382, 5.535, -3.5343511
0.6519706, -0.0229953, 5.54175, 0.0386353, 5.54175, -1.0042114, 5.54175, -0.0760498, 5.54175, 1.3740458, 5.54175, -0.2671756, 5.54175, -3.6564887
0.6527647, -0.0223239, 5.5485, 0.0440063, 5.5485, -1.0062256, 5.5485, -0.0783081, 5.5485, 1.1603054, 5.5485, -0.221374, 5.5485, -3.5267177
0.6535588, -0.0203098, 5.55525, 0.0438843, 5.55525, -1.005249, 5.55525, -0.0791016, 5.55525, 1.0076336, 5.55525, -0.0534351, 5.55525, -3.4961832
0.6543529, -0.0152743, 5.562, 0.0432739, 5.562, -1.0040894, 5.562, -0.0826416, 5.562, 1.0687023, 5.562, 0.5114504, 5.562, -3.4961832
0.6551471, -0.0139315, 5.56875, 0.0383301, 5.56875, -1.0084229, 5.56875, -0.0800781, 5.56875, 1.091603, 5.56875, 0.740458, 5.56875, -3.5648854
0.6559412, -0.0085603, 5.5755, 0.0390015, 5.5755, -1.0076904, 5.5755, -0.0786743, 5.5755, 1.0992366, 5.5755, 1.1374046, 5.5755, -3.4045801
0.6567353, -0.0085603, 5.58225, 0.0385132, 5.58225, -1.0056763, 5.58225, -0.0774536, 5.58225, 1.1450381, 5.58225, 1.0534351, 5.58225, -3.3206108
0.6575294, -0.0109102, 5.589, 0.0340576, 5.589, -1.0067139, 5.589, -0.0776367, 5.589, 1.0534351, 5.589, 1.1374046, 5.589, -3.1984732
0.6583235, -0.0115816, 5.59575, 0.0352783, 5.59575, -1.0059814, 5.59575, -0.0755005, 5.59575, 1.2061069, 5.59575, 1.0687023, 5.59575, -3.3206108
0.6591176, -0.0097353, 5.6025, 0.0391846, 5.6025, -1.0072021, 5.6025, -0.0786743, 5.6025, 1.0839695, 5.6025, 0.5801527, 5.6025, -3.2824428
0.6599118, -0.0115816, 5.60925, 0.0389404, 5.60925, -1.0062256, 5.60925, -0.0758667, 5.60925, 1.0305344, 5.60925, 0.961832, 5.60925, -3.4045801
0.6607059, -0.0152743, 5.616, 0.0375977, 5.616, -1.0094604, 5.616, -0.0742188, 5.616, 1.0687023, 5.616, 1, 5.616, -3.1603053
0.6615, -0.0196384, 5.62275, 0.038147, 5.62275, -1.0075684, 5.62275, -0.0764771, 5.62275, 1.1374046, 5.62275, 0.7633588, 5.62275, -3.1755726
0.6622941, -0.0176242, 5.6295, 0.0405884, 5.6295, -1.0061035, 5.6295, -0.0780029, 5.6295, 0.9007633, 5.6295, 0.519084, 5.6295, -3.2671757
0.6630882, -0.0203098, 5.63625, 0.0401001, 5.63625, -1.0058594, 5.63625, -0.0795288, 5.63625, 1.0763359, 5.63625, 0.3206107, 5.63625, -3.221374
0.6638824, -0.0196384, 5.643, 0.0418701, 5.643, -1.0077515, 5.643, -0.0791016, 5.643, 1, 5.643, 0.2824427, 5.643, -3.4885497
0.6646765, -0.0203098, 5.64975, 0.0411377, 5.64975, -1.0064697, 5.64975, -0.0759277, 5.64975, 0.8167939, 5.64975, 0.2061069, 5.64975, -3.1603053
0.6654706, -0.0260166, 5.6565, 0.0403442, 5.6565, -1.0046997, 5.6565, -0.0757446, 5.6565, 0.9236641, 5.6565, 0.1679389, 5.6565, -3.1450381
0.6662647, -0.0270237, 5.66325, 0.0426636, 5.66325, -1.0056763, 5.66325, -0.0775757, 5.66325, 0.9160305, 5.66325, 0, 5.66325, -3.1832061
0.6670588, -0.0265202, 5.67, 0.0448608, 5.67, -1.0098877, 5.67, -0.0778198, 5.67, 1.0076336, 5.67, -0.4427481, 5.67, -3.3358779
0.6678529, -0.0179599, 5.67675, 0.0458984, 5.67675, -1.0061035, 5.67675, -0.0806885, 5.67675, 1.0763359, 5.67675, -0.3969466, 5.67675, -3.3206108
0.6686471, -0.01561, 5.6835, 0.0450439, 5.6835, -1.0039062, 5.6835, -0.0848389, 5.6835, 1.129771, 5.6835, -0.3358779, 5.6835, -3.1984732
0.6694412, -0.0162814, 5.69025, 0.0424805, 5.69025, -1.0026245, 5.69025, -0.0839233, 5.69025, 1.1755725, 5.69025, -0.1755725, 5.69025, -3.2519083
0.6702353, -0.0146029, 5.697, 0.0400391, 5.697, -1.0062866, 5.697, -0.0806885, 5.697, 0.9160305, 5.697, -0.0763359, 5.697, -3.1603053
0.6710294, -0.0115816, 5.70375, 0.0370483, 5.70375, -1.0074463, 5.70375, -0.0804443, 5.70375, 1.2061069, 5.70375, -0.0610687, 5.70375, -3.3664122
0.6718235, -0.0129244, 5.7105, 0.0401611, 5.7105, -1.0068359, 5.7105, -0.081604, 5.7105, 1.3969465, 5.7105, -0.2977099, 5.7105, -3.1679389
0.6726176, -0.008896, 5.71725, 0.0418091, 5.71725, -1.0064087, 5.71725, -0.0805054, 5.71725, 1.221374, 5.71725, -0.1984733, 5.71725, -3.1145039
0.6734118, -0.0095674, 5.724, 0.0421753, 5.724, -1.0050049, 5.724, -0.0809937, 5.724, 1.1526718, 5.724, -0.1984733, 5.724, -3.1603053
0.6742059, -0.0087282, 5.73075, 0.0404053, 5.73075, -1.0059814, 5.73075, -0.0821533, 5.73075, 1.2061069, 5.73075, 0.1068702, 5.73075, -3.0610688
0.675, -0.0125887, 5.7375, 0.041626, 5.7375, -1.0090942, 5.7375, -0.0825195, 5.7375, 1.2442749, 5.7375, 0.6335878, 5.7375, -3.0534351
