Application:, Trigno Discover (1.7.0)
Date/Time:, 2026/9/9 下午 03:02:14
Collection Length (seconds):, 43.794
Avanti Sensor 11 (69574)
sensor mode: 50
EMG 1 Time Series (s), EMG 1 (mV), ACC X Time Series (s), ACC X (G), ACC Y Time Series (s), ACC Y (G), ACC Z Time Series (s), ACC Z (G), GYRO X Time Series (s), GYRO X (deg/s), GYRO Y Time Series (s), GYRO Y (deg/s), GYRO Z Time Series (s), GYRO Z (deg/s)
, 1259.2593 Hz, , 148.1481 Hz, , 148.1481 Hz, , 148.1481 Hz, , 148.1481 Hz, , 148.1481 Hz, , 148.1481 Hz
0, -0.0129244, 0, -0.0064697, 0, -1.0048828, 0, -0.1549683, 0, 1.351145, 0, 0.480916, 0, -3.0152671
0.0007941, -0.0068818, 0.00675, -0.0071411, 0.00675, -1.0023193, 0.00675, -0.1522217, 0.00675, 1.4198474, 0.00675, 0.5877863, 0.00675, -2.9770992
0.0015882, -0.0070497, 0.0135, -0.0073853, 0.0135, -1.0058594, 0.0135, -0.1532593, 0.0135, 1.5038168, 0.0135, 0.648855, 0.0135, -2.961832
0.0023824, -0.0125887, 0.02025, -0.0096436, 0.02025, -1.0055542, 0.02025, -0.1539917, 0.02025, 1.3282443, 0.02025, 0.9389313, 0.02025, -3.0229008
0.0031765, -0.0162814, 0.027, -0.0082397, 0.027, -1.0067139, 0.027, -0.152832, 0.027, 1.2061069, 0.027, 1.0687023, 0.027, -3.0992367
0.0039706, -0.0129244, 0.03375, -0.008667, 0.03375, -1.0065308, 0.03375, -0.1533203, 0.03375, 1.1908396, 0.03375, 0.9847328, 0.03375, -3.259542
0.0047647, -0.0082246, 0.0405, -0.0130615, 0.0405, -1.005127, 0.0405, -0.15271, 0.0405, 1.1832061, 0.0405, 0.8167939, 0.0405, -3.0992367
0.0055588, -0.014435, 0.04725, -0.013855, 0.04725, -1.0075684, 0.04725, -0.1549072, 0.04725, 1.1603054, 0.04725, 0.7862595, 0.04725, -3.0610688
0.0063529, -0.0176242, 0.054, -0.0112305, 0.054, -1.0075684, 0.054, -0.151062, 0.054, 1.2442749, 0.054, 0.6564885, 0.054, -2.961832
0.0071471, -0.0172885, 0.06075, -0.0071411, 0.06075, -1.0064087, 0.06075, -0.1507568, 0.06075, 1.2900764, 0.06075, 0.778626, 0.06075, -3.1526718
0.0079412, -0.0176242, 0.0675, -0.0070801, 0.0675, -1.0074463, 0.0675, -0.1508179, 0.0675, 1.0229008, 0.0675, 0.6946565, 0.0675, -3.0992367
0.0087353, -0.0169528, 0.07425, -0.0084839, 0.07425, -1.0093994, 0.07425, -0.1513062, 0.07425, 1.0458015, 0.07425, 0.7175573, 0.07425, -3.0839694
0.0095294, -0.0137636, 0.081, -0.0077515, 0.081, -1.0047607, 0.081, -0.1508179, 0.081, 1.1450381, 0.081, 0.8396947, 0.081, -3.0458016
0.0103235, -0.01561, 0.08775, -0.0097656, 0.08775, -1.0068359, 0.08775, -0.1524658, 0.08775, 1.221374, 0.08775, 0.9236641, 0.08775, -3.1374047
0.0111176, -0.0142672, 0.0945, -0.0061646, 0.0945, -1.0060425, 0.0945, -0.1551514, 0.0945, 1.1221374, 0.0945, 0.8091603, 0.0945, -3.038168
0.0119118, -0.0129244, 0.10125, -0.0081177, 0.10125, -1.0066528, 0.10125, -0.1526489, 0.10125, 1.2442749, 0.10125, 0.6793893, 0.10125, -2.9923663
0.0127059, -0.0102388, 0.108, -0.0075073, 0.108, -1.0064087, 0.108, -0.1523438, 0.108, 1.1221374, 0.108, 0.6412213, 0.108, -3.0687022
0.0135, -0.0112459, 0.11475, -0.0116577, 0.11475, -1.0087891, 0.11475, -0.1556396, 0.11475, 1.0992366, 0.11475, 0.6030535, 0.11475, -3.1450381
0.0142941, -0.012253, 0.1215, -0.0089722, 0.1215, -1.0054932, 0.1215, -0.1564331, 0.1215, 1.0534351, 0.1215, 0.5954198, 0.1215, -3.0992367
0.0150882, -0.0115816, 0.12825, -0.0082397, 0.12825, -1.0045776, 0.12825, -0.15625, 0.12825, 1.1755725, 0.12825, 0.4274809, 0.12825, -3.0534351
0.0158824, -0.0078889, 0.135, -0.0074463, 0.135, -1.0032959, 0.135, -0.1554565, 0.135, 1.2137405, 0.135, 0.5496183, 0.135, -3.1679389
0.0166765, -0.0070497, 0.14175, -0.0068359, 0.14175, -1.0048828, 0.14175, -0.1546021, 0.14175, 1.1450381, 0.14175, 0.6030535, 0.14175, -3.259542
0.0174706, -0.0119173, 0.1485, -0.007019, 0.1485, -1.0061646, 0.1485, -0.1538086, 0.1485, 1.2824427, 0.1485, 0.8320611, 0.1485, -3.0534351
0.0182647, -0.012253, 0.15525, -0.0096436, 0.15525, -1.0073853, 0.15525, -0.1552734, 0.15525, 1.2900764, 0.15525, 0.8473282, 0.15525, -2.8854961
0.0190588, -0.0146029, 0.162, -0.0090332, 0.162, -1.0054932, 0.162, -0.1535645, 0.162, 1.1526718, 0.162, 0.8854962, 0.162, -2.9923663
0.0198529, -0.0182956, 0.16875, -0.0084229, 0.16875, -1.0085449, 0.16875, -0.1519165, 0.16875, 1.3206106, 0.16875, 0.8320611, 0.16875, -3.0152671
0.0206471, -0.0219883, 0.1755, -0.0109253, 0.1755, -1.0077515, 0.1755, -0.1557617, 0.1755, 1.1450381, 0.1755, 0.8015267, 0.1755, -3.0305343
0.0214412, -0.0243381, 0.18225, -0.0092773, 0.18225, -1.0092773, 0.18225, -0.1513062, 0.18225, 1.1832061, 0.18225, 0.7862595, 0.18225, -3.129771
0.0222353, -0.0253452, 0.189, -0.0083618, 0.189, -1.0053711, 0.189, -0.1512451, 0.189, 1.3740458, 0.189, 0.8396947, 0.189, -3.1984732
0.0230294, -0.0250095, 0.19575, -0.0077515, 0.19575, -1.0057983, 0.19575, -0.1522217, 0.19575, 1.2442749, 0.19575, 0.9465649, 0.19575, -3.091603
0.0238235, -0.0229953, 0.2025, -0.0093384, 0.2025, -1.0067749, 0.2025, -0.1512451, 0.2025, 1.3435115, 0.2025, 0.870229, 0.2025, -3.038168
0.0246176, -0.0243381, 0.20925, -0.0103149, 0.20925, -1.0072632, 0.20925, -0.1525879, 0.20925, 1.2366412, 0.20925, 0.8320611, 0.20925, -3.1755726
0.0254118, -0.0256809, 0.216, -0.0108032, 0.216, -1.0048218, 0.216, -0.1536865, 0.216, 1.3435115, 0.216, 0.6412213, 0.216, -3.1679389
0.0262059, -0.0240024, 0.22275, -0.0087891, 0.22275, -1.0061035, 0.22275, -0.1543579, 0.22275, 1.2900764, 0.22275, 0.5877863, 0.22275, -2.961832
0.027, -0.0219883, 0.2295, -0.0084839, 0.2295, -1.0073853, 0.2295, -0.1557007, 0.2295, 1.221374, 0.2295, 0.7022901, 0.2295, -3.1679389
0.0277941, -0.018967, 0.23625, -0.0085449, 0.23625, -1.0083618, 0.23625, -0.1553345, 0.23625, 1.3129771, 0.23625, 0.870229, 0.23625, -3.1832061
0.0285882, -0.0149386, 0.243, -0.0053101, 0.243, -1.0064087, 0.243, -0.15625, 0.243, 1.221374, 0.243, 0.9770992, 0.243, -3.2061069
0.0293824, -0.0146029, 0.24975, -0.0041504, 0.24975, -1.0075073, 0.24975, -0.1539917, 0.24975, 1.389313, 0.24975, 1.129771, 0.24975, -3.1526718
0.0301765, -0.0095674, 0.2565, -0.0068359, 0.2565, -1.0026245, 0.2565, -0.1516724, 0.2565, 1.259542, 0.2565, 1.2671756, 0.2565, -3.0458016
0.0309706, -0.0085603, 0.26325, -0.0108643, 0.26325, -1.0038452, 0.26325, -0.1535034, 0.26325, 1.3435115, 0.26325, 1.3129771, 0.26325, -3.0763359
0.0317647, -0.0083925, 0.27, -0.0105591, 0.27, -1.0040894, 0.27, -0.1541748, 0.27, 1.4351145, 0.27, 1.038168, 0.27, -3.1832061
0.0325588, -0.005539, 0.27675, -0.0109253, 0.27675, -1.0048218, 0.27675, -0.1514282, 0.27675, 1.2137405, 0.27675, 1.0229008, 0.27675, -3.2290077
0.0333529, -0.005539, 0.2835, -0.0078735, 0.2835, -1.0038452, 0.2835, -0.1515503, 0.2835, 1.389313, 0.2835, 0.8549618, 0.2835, -3.0534351
0.0341471, -0.0075532, 0.29025, -0.0123901, 0.29025, -1.006897, 0.29025, -0.1536865, 0.29025, 1.3816794, 0.29025, 0.6412213, 0.29025, -3.0152671
0.0349412, -0.0082246, 0.297, -0.0075073, 0.297, -1.0085449, 0.297, -0.1532593, 0.297, 1.4198474, 0.297, 0.4503817, 0.297, -3.0229008
0.0357353, -0.0119173, 0.30375, -0.0078735, 0.30375, -1.0077515, 0.30375, -0.1546631, 0.30375, 1.3664122, 0.30375, 0.4580153, 0.30375, -3.0458016
0.0365294, -0.0068818, 0.3105, -0.0015259, 0.3105, -1.0119019, 0.3105, -0.1530151, 0.3105, 1.4198474, 0.3105, 0.4732825, 0.3105, -3.0458016
0.0373235, -0.0119173, 0.31725, -0.0045776, 0.31725, -1.0096436, 0.31725, -0.1568604, 0.31725, 1.2290076, 0.31725, 0.519084, 0.31725, -2.9770992
0.0381176, -0.0132601, 0.324, -0.0037842, 0.324, -1.0082397, 0.324, -0.1531982, 0.324, 1.3587786, 0.324, 0.6870229, 0.324, -2.9541984
0.0389118, -0.0184634, 0.33075, -0.0095825, 0.33075, -1.0054321, 0.33075, -0.1552734, 0.33075, 1.5343511, 0.33075, 0.8549618, 0.33075, -2.9694657
0.0397059, -0.0182956, 0.3375, -0.0108643, 0.3375, -1.0045776, 0.3375, -0.1518555, 0.3375, 1.4580153, 0.3375, 0.9389313, 0.3375, -3.0076337
0.0405, -0.0182956, 0.34425, -0.0139771, 0.34425, -1.0011597, 0.34425, -0.1503906, 0.34425, 1.5419847, 0.34425, 0.8625954, 0.34425, -3.1832061
0.0412941, -0.0196384, 0.351, -0.0145874, 0.351, -1.0032349, 0.351, -0.1519165, 0.351, 1.5725191, 0.351, 0.6641222, 0.351, -2.9007633
0.0420882, -0.0216526, 0.35775, -0.0128784, 0.35775, -1.0059204, 0.35775, -0.1484375, 0.35775, 1.5343511, 0.35775, 0.5725191, 0.35775, -3.091603
0.0428824, -0.0159457, 0.3645, -0.0114746, 0.3645, -1.0068359, 0.3645, -0.1439819, 0.3645, 1.2824427, 0.3645, 0.3435115, 0.3645, -3.0992367
0.0436765, -0.0109102, 0.37125, -0.0075684, 0.37125, -1.0070801, 0.37125, -0.1487427, 0.37125, 1.5801526, 0.37125, 0.1603053, 0.37125, -3.1603053
0.0444706, -0.0109102, 0.378, -0.0040894, 0.378, -1.0053101, 0.378, -0.147583, 0.378, 1.5801526, 0.378, 0.351145, 0.378, -3
0.0452647, -0.0097353, 0.38475, -0.0004272, 0.38475, -1.0018921, 0.38475, -0.1496582, 0.38475, 1.2748091, 0.38475, 0.5801527, 0.38475, -3.1145039
0.0460588, -0.010071, 0.3915, -0.003479, 0.3915, -1.0021362, 0.3915, -0.1498413, 0.3915, 1.3664122, 0.3915, 1.0458015, 0.3915, -2.9923663
0.0468529, -0.0109102, 0.39825, -0.0067749, 0.39825, -1.007019, 0.39825, -0.1495972, 0.39825, 1.3358779, 0.39825, 1.0763359, 0.39825, -2.9770992
0.0476471, -0.0078889, 0.405, -0.0131836, 0.405, -1.0073853, 0.405, -0.1516724, 0.405, 1.3129771, 0.405, 1.1526718, 0.405, -3.038168
0.0484412, -0.0063783, 0.41175, -0.0148315, 0.41175, -1.0065918, 0.41175, -0.1522827, 0.41175, 1.2671756, 0.41175, 0.9694657, 0.41175, -3.1221373
0.0492353, -0.0062104, 0.4185, -0.0117798, 0.4185, -1.0076904, 0.4185, -0.1563721, 0.4185, 1.2824427, 0.4185, 0.648855, 0.4185, -3.2366412
0.0500294, -0.0082246, 0.42525, -0.0089722, 0.42525, -1.0062256, 0.42525, -0.1548462, 0.42525, 1.2671756, 0.42525, 0.3587786, 0.42525, -3.1068702
0.0508235, -0.0099031, 0.432, -0.0054321, 0.432, -1.0065918, 0.432, -0.1571045, 0.432, 1.5343511, 0.432, 0.4122137, 0.432, -3.0229008
0.0516176, -0.0102388, 0.43875, -0.0045776, 0.43875, -1.0074463, 0.43875, -0.1558228, 0.43875, 1.480916, 0.43875, 0.6793893, 0.43875, -3.1526718
0.0524118, -0.0135958, 0.4455, -0.0061035, 0.4455, -1.0037231, 0.4455, -0.1528931, 0.4455, 1.519084, 0.4455, 1, 0.4455, -3.2366412
0.0532059, -0.0169528, 0.45225, -0.0115356, 0.45225, -1.0059204, 0.45225, -0.1522827, 0.45225, 1.4274809, 0.45225, 1.1755725, 0.45225, -3.129771
0.054, -0.0142672, 0.459, -0.0124512, 0.459, -1.0090332, 0.459, -0.1535034, 0.459, 1.4274809, 0.459, 1.1908396, 0.459, -3.0992367
0.0547941, -0.0196384, 0.46575, -0.0109253, 0.46575, -1.0078735, 0.46575, -0.1539307, 0.46575, 1.6259542, 0.46575, 1.1145039, 0.46575, -3.1984732
0.0555882, -0.0216526, 0.4725, -0.0097656, 0.4725, -1.0064087, 0.4725, -0.1514893, 0.4725, 1.5419847, 0.4725, 1.0305344, 0.4725, -3.1908398
0.0563824, -0.0216526, 0.47925, -0.0079956, 0.47925, -1.0071411, 0.47925, -0.1503296, 0.47925, 1.3435115, 0.47925, 1.0610687, 0.47925, -2.9847329
0.0571765, -0.0216526, 0.486, -0.0106812, 0.486, -1.0077515, 0.486, -0.1490479, 0.486, 1.4045801, 0.486, 0.9389313, 0.486, -3.1603053
0.0579706, -0.0179599, 0.49275, -0.0083618, 0.49275, -1.0029297, 0.49275, -0.1498413, 0.49275, 1.5419847, 0.49275, 0.9541985, 0.49275, -3.1908398
0.0587647, -0.0179599, 0.4995, -0.008606, 0.4995, -1.0054932, 0.4995, -0.1517944, 0.4995, 1.3053435, 0.4995, 0.9770992, 0.4995, -3.0763359
0.0595588, -0.0166171, 0.50625, -0.0101929, 0.50625, -1.0055542, 0.50625, -0.1503296, 0.50625, 1.2977099, 0.50625, 1.0305344, 0.50625, -3.2519083
0.0603529, -0.0169528, 0.513, -0.0106812, 0.513, -1.0023193, 0.513, -0.1470947, 0.513, 1.1679389, 0.513, 0.9770992, 0.513, -3.1984732
0.0611471, -0.0171206, 0.51975, -0.0136108, 0.51975, -1.0008545, 0.51975, -0.1488037, 0.51975, 1.2290076, 0.51975, 0.6946565, 0.51975, -3.2442749
0.0619412, -0.0135958, 0.5265, -0.0106201, 0.5265, -1.0045166, 0.5265, -0.1489258, 0.5265, 1.2671756, 0.5265, 0.5954198, 0.5265, -3.1755726
0.0627353, -0.0152743, 0.53325, -0.0127563, 0.53325, -1.0064087, 0.53325, -0.152771, 0.53325, 1.0992366, 0.53325, 0.351145, 0.53325, -3.3206108
0.0635294, -0.0132601, 0.54, -0.0085449, 0.54, -1.0029297, 0.54, -0.1516724, 0.54, 1.0687023, 0.54, 0.3129771, 0.54, -3.2366412
0.0643235, -0.0129244, 0.54675, -0.008606, 0.54675, -1.0053711, 0.54675, -0.1495361, 0.54675, 1.0076336, 0.54675, 0.4122137, 0.54675, -3.1526718
0.0651176, -0.0109102, 0.5535, -0.0093994, 0.5535, -1.0059204, 0.5535, -0.1470337, 0.5535, 0.9389313, 0.5535, 0.2442748, 0.5535, -3.2900763
0.0659118, -0.0085603, 0.56025, -0.0080566, 0.56025, -1.0057983, 0.56025, -0.1490479, 0.56025, 1, 0.56025, 0.2519084, 0.56025, -3.0839694
0.0667059, -0.0095674, 0.567, -0.0083618, 0.567, -1.0081787, 0.567, -0.1514893, 0.567, 1.0458015, 0.567, 0.2824427, 0.567, -3.2671757
0.0675, -0.0129244, 0.57375, -0.0061646, 0.57375, -1.0083008, 0.57375, -0.149353, 0.57375, 1.0076336, 0.57375, 0.4198473, 0.57375, -3.3282442
0.0682941, -0.0152743, 0.5805, -0.0074463, 0.5805, -1.0053711, 0.5805, -0.1503296, 0.5805, 0.9236641, 0.5805, 0.3664122, 0.5805, -3.1221373
0.0690882, -0.0142672, 0.58725, -0.0120239, 0.58725, -1.0060425, 0.58725, -0.1499023, 0.58725, 0.8396947, 0.58725, 0.351145, 0.58725, -3.259542
0.0698824, -0.0169528, 0.594, -0.0099487, 0.594, -1.0077515, 0.594, -0.1495361, 0.594, 1.0305344, 0.594, 0.3053435, 0.594, -3.2671757
0.0706765, -0.0223239, 0.60075, -0.0092773, 0.60075, -1.0092773, 0.60075, -0.1506348, 0.60075, 1.0152671, 0.60075, 0.2671756, 0.60075, -3.2900763
0.0714706, -0.0236667, 0.6075, -0.0076294, 0.6075, -1.0054321, 0.6075, -0.1513672, 0.6075, 1.091603, 0.6075, 0.1679389, 0.6075, -3.2290077
0.0722647, -0.0213169, 0.61425, -0.0073853, 0.61425, -1.0056152, 0.61425, -0.1513062, 0.61425, 0.9770992, 0.61425, 0.1755725, 0.61425, -3.259542
0.0730588, -0.0218204, 0.621, -0.0036011, 0.621, -1.003479, 0.621, -0.1529541, 0.621, 0.9923664, 0.621, 0.4656489, 0.621, -3.1908398
0.0738529, -0.0238346, 0.62775, -0.0085449, 0.62775, -1.0045776, 0.62775, -0.1522217, 0.62775, 0.9465649, 0.62775, 0.5114504, 0.62775, -3.2977099
0.0746471, -0.0250095, 0.6345, -0.0043945, 0.6345, -1.0059204, 0.6345, -0.1487427, 0.6345, 0.9694657, 0.6345, 0.7022901, 0.6345, -3.2442749
0.0754412, -0.0203098, 0.64125, -0.0085449, 0.64125, -1.0058594, 0.64125, -0.1513672, 0.64125, 0.9770992, 0.64125, 0.648855, 0.64125, -3.2519083
0.0762353, -0.0203098, 0.648, -0.0043945, 0.648, -1.0036011, 0.648, -0.1514893, 0.648, 0.9007633, 0.648, 0.5954198, 0.648, -3.1526718
0.0770294, -0.0263523, 0.65475, -0.0107422, 0.65475, -1.0024414, 0.65475, -0.1500854, 0.65475, 0.961832, 0.65475, 0.5801527, 0.65475, -3.129771
0.0778235, -0.0236667, 0.6615, -0.0136108, 0.6615, -1.0031738, 0.6615, -0.149292, 0.6615, 1, 0.6615, 0.6793893, 0.6615, -3.1374047
0.0786176, -0.0182956, 0.66825, -0.0084839, 0.66825, -1.0046387, 0.66825, -0.147644, 0.66825, 1.091603, 0.66825, 0.5801527, 0.66825, -3.2061069
0.0794118, -0.0149386, 0.675, -0.0112915, 0.675, -1.0058594, 0.675, -0.1460571, 0.675, 0.9160305, 0.675, 0.2824427, 0.675, -3.2290077
0.0802059, -0.0152743, 0.68175, -0.0095215, 0.68175, -1.006958, 0.68175, -0.151062, 0.68175, 1.038168, 0.68175, 0.1984733, 0.68175, -3.129771
0.081, -0.0139315, 0.6885, -0.0092773, 0.6885, -1.0075073, 0.6885, -0.1505127, 0.6885, 0.9389313, 0.6885, 0.3358779, 0.6885, -3.1984732
0.0817941, -0.0104067, 0.69525, -0.0092163, 0.69525, -1.0042725, 0.69525, -0.1489258, 0.69525, 0.8778626, 0.69525, 0.5267175, 0.69525, -3.2061069
0.0825882, -0.008896, 0.702, -0.0046997, 0.702, -1.0053101, 0.702, -0.1511841, 0.702, 0.8778626, 0.702, 0.7251908, 0.702, -3.221374
0.0833824, -0.005539, 0.70875, -0.0082397, 0.70875, -1.0043335, 0.70875, -0.1470947, 0.70875, 0.9770992, 0.70875, 0.7633588, 0.70875, -3.2519083
0.0841765, -0.005539, 0.7155, -0.0091553, 0.7155, -1.0056763, 0.7155, -0.1521606, 0.7155, 0.8778626, 0.7155, 0.740458, 0.7155, -3.0687022
0.0849706, -0.0092317, 0.72225, -0.0113525, 0.72225, -1.0060425, 0.72225, -0.149353, 0.72225, 1, 0.72225, 0.7099237, 0.72225, -3.1832061
0.0857647, -0.0117494, 0.729, -0.0133057, 0.729, -1.0057373, 0.729, -0.1503296, 0.729, 0.8625954, 0.729, 0.6641222, 0.729, -3.2366412
0.0865588, -0.0149386, 0.73575, -0.0095215, 0.73575, -1.0073853, 0.73575, -0.1516113, 0.73575, 0.8320611, 0.73575, 0.610687, 0.73575, -3.2290077
0.0873529, -0.0176242, 0.7425, -0.0066528, 0.7425, -1.0056152, 0.7425, -0.1507568, 0.7425, 0.908397, 0.7425, 0.6183206, 0.7425, -3.2824428
0.0881471, -0.018967, 0.74925, -0.0063477, 0.74925, -1.0056763, 0.74925, -0.1532593, 0.74925, 0.961832, 0.74925, 0.7709923, 0.74925, -3.1603053
0.0889412, -0.0206455, 0.756, -0.0076904, 0.756, -1.0062866, 0.756, -0.1522217, 0.756, 0.9923664, 0.756, 0.7022901, 0.756, -3.2290077
0.0897353, -0.0216526, 0.76275, -0.0083618, 0.76275, -1.0042725, 0.76275, -0.1524658, 0.76275, 0.9236641, 0.76275, 0.8625954, 0.76275, -3.038168
0.0905294, -0.0179599, 0.7695, -0.0084229, 0.7695, -1.0045776, 0.7695, -0.1512451, 0.7695, 0.9847328, 0.7695, 1.0152671, 0.7695, -3.2748091
0.0913235, -0.0130922, 0.77625, -0.0101929, 0.77625, -1.0054321, 0.77625, -0.1501465, 0.77625, 0.8931298, 0.77625, 1.0229008, 0.77625, -3.1679389
0.0921176, -0.0149386, 0.783, -0.012207, 0.783, -1.0042725, 0.783, -0.1498413, 0.783, 0.8931298, 0.783, 1.0992366, 0.783, -3.1679389
0.0929118, -0.0152743, 0.78975, -0.0078125, 0.78975, -1.0040283, 0.78975, -0.1491699, 0.78975, 0.9465649, 0.78975, 0.870229, 0.78975, -3.1679389
0.0937059, -0.0154421, 0.7965, -0.0097656, 0.7965, -1.0053711, 0.7965, -0.1520386, 0.7965, 0.870229, 0.7965, 0.7709923, 0.7965, -3.3206108
0.0945, -0.01561, 0.80325, -0.0108032, 0.80325, -1.0064697, 0.80325, -0.1522827, 0.80325, 0.8167939, 0.80325, 0.740458, 0.80325, -3.2061069
0.0952941, -0.0130922, 0.81, -0.0095825, 0.81, -1.0082397, 0.81, -0.1508179, 0.81, 0.740458, 0.81, 0.5419847, 0.81, -3.2900763
0.0960882, -0.0129244, 0.81675, -0.0062256, 0.81675, -1.0049438, 0.81675, -0.1541748, 0.81675, 0.9541985, 0.81675, 0.6412213, 0.81675, -3.221374
0.0968824, -0.0082246, 0.8235, -0.008667, 0.8235, -1.0093384, 0.8235, -0.1539307, 0.8235, 0.9694657, 0.8235, 0.6412213, 0.8235, -3.3053436
0.0976765, -0.0099031, 0.83025, -0.0090942, 0.83025, -1.0098267, 0.83025, -0.1525879, 0.83025, 0.8931298, 0.83025, 0.7480916, 0.83025, -3.3664122
0.0984706, -0.0117494, 0.837, -0.0111694, 0.837, -1.0068359, 0.837, -0.1528931, 0.837, 0.9923664, 0.837, 0.7022901, 0.837, -3.1145039
0.0992647, -0.0135958, 0.84375, -0.0100708, 0.84375, -1.0062866, 0.84375, -0.1552734, 0.84375, 0.8625954, 0.84375, 0.7633588, 0.84375, -3.2442749
0.1000588, -0.0130922, 0.8505, -0.0080566, 0.8505, -1.0081177, 0.8505, -0.152832, 0.8505, 0.9847328, 0.8505, 0.8167939, 0.8505, -3.1832061
0.1008529, -0.0114137, 0.85725, -0.0090942, 0.85725, -1.0064697, 0.85725, -0.1536255, 0.85725, 1.1145039, 0.85725, 0.740458, 0.85725, -3.1832061
0.1016471, -0.01561, 0.864, -0.0091553, 0.864, -1.0073853, 0.864, -0.1535034, 0.864, 1.0152671, 0.864, 0.7480916, 0.864, -3.3282442
0.1024412, -0.0196384, 0.87075, -0.0070801, 0.87075, -1.0068359, 0.87075, -0.1517944, 0.87075, 0.8549618, 0.87075, 0.778626, 0.87075, -3.2900763
0.1032353, -0.0176242, 0.8775, -0.0059814, 0.8775, -1.0060425, 0.8775, -0.1500244, 0.8775, 1.0610687, 0.8775, 0.9160305, 0.8775, -3.4122138
0.1040294, -0.0157778, 0.88425, -0.0124512, 0.88425, -1.0067749, 0.88425, -0.1539917, 0.88425, 0.9923664, 0.88425, 0.8778626, 0.88425, -3.3358779
0.1048235, -0.0198062, 0.891, -0.0105591, 0.891, -1.003418, 0.891, -0.1538086, 0.891, 0.9465649, 0.891, 0.778626, 0.891, -3.3969467
0.1056176, -0.023331, 0.89775, -0.0102539, 0.89775, -1.0049438, 0.89775, -0.1513062, 0.89775, 0.9389313, 0.89775, 0.7709923, 0.89775, -3.221374
0.1064118, -0.0243381, 0.9045, -0.0112915, 0.9045, -1.0049438, 0.9045, -0.1506958, 0.9045, 1.0152671, 0.9045, 0.7251908, 0.9045, -3.2442749
0.1072059, -0.0236667, 0.91125, -0.0071411, 0.91125, -1.00354, 0.91125, -0.151123, 0.91125, 0.9236641, 0.91125, 0.8015267, 0.91125, -3.4885497
0.108, -0.0290379, 0.918, -0.0063477, 0.918, -1.0065918, 0.918, -0.1491699, 0.918, 1.1603054, 0.918, 0.7480916, 0.918, -3.2900763
0.1087941, -0.0256809, 0.92475, -0.0065918, 0.92475, -1.0067139, 0.92475, -0.1506958, 0.92475, 1.038168, 0.92475, 0.7938932, 0.92475, -3.2290077
0.1095882, -0.0243381, 0.9315, -0.0080566, 0.9315, -1.0092163, 0.9315, -0.1513672, 0.9315, 0.9236641, 0.9315, 0.7480916, 0.9315, -3.3969467
0.1103824, -0.0223239, 0.93825, -0.0075073, 0.93825, -1.0054321, 0.93825, -0.1537476, 0.93825, 1.0152671, 0.93825, 0.8854962, 0.93825, -3.2671757
0.1111765, -0.0206455, 0.945, -0.0084229, 0.945, -1.0032349, 0.945, -0.1514282, 0.945, 1.0229008, 0.945, 0.8549618, 0.945, -3.1603053
0.1119706, -0.0203098, 0.95175, -0.0080566, 0.95175, -1.0071411, 0.95175, -0.1525269, 0.95175, 1.0610687, 0.95175, 0.6030535, 0.95175, -3.1755726
0.1127647, -0.0149386, 0.9585, -0.0076294, 0.9585, -1.0048218, 0.9585, -0.1549072, 0.9585, 1.0534351, 0.9585, 0.6412213, 0.9585, -3.038168
0.1135588, -0.014435, 0.96525, -0.0065918, 0.96525, -1.0032959, 0.96525, -0.1538086, 0.96525, 1.1374046, 0.96525, 0.7022901, 0.96525, -3.1984732
0.1143529, -0.0124208, 0.972, -0.0076294, 0.972, -1.0061646, 0.972, -0.1500244, 0.972, 1.0229008, 0.972, 0.7557252, 0.972, -3.2977099
0.1151471, -0.0115816, 0.97875, -0.0065918, 0.97875, -1.0036621, 0.97875, -0.1525269, 0.97875, 1.1450381, 0.97875, 0.7022901, 0.97875, -3.1526718
0.1159412, -0.0065461, 0.9855, -0.008728, 0.9855, -1.0045166, 0.9855, -0.1526489, 0.9855, 1.1374046, 0.9855, 0.9312977, 0.9855, -3.2900763
0.1167353, -0.0099031, 0.99225, -0.0089722, 0.99225, -1.003418, 0.99225, -0.151001, 0.99225, 1.1755725, 0.99225, 0.8473282, 0.99225, -3.2366412
0.1175294, -0.0137636, 0.999, -0.0080566, 0.999, -1.0065918, 0.999, -0.1521606, 0.999, 1.3053435, 0.999, 0.9389313, 0.999, -3.2137403
0.1183235, -0.0142672, 1.00575, -0.0075073, 1.00575, -1.0045166, 1.00575, -0.151123, 1.00575, 1.1755725, 1.00575, 0.8931298, 1.00575, -3.2061069
0.1191176, -0.0159457, 1.0125, -0.0084839, 1.0125, -1.0026855, 1.0125, -0.1514282, 1.0125, 1.2442749, 1.0125, 1, 1.0125, -3.1984732
0.1199118, -0.0182956, 1.01925, -0.0079956, 1.01925, -1.006897, 1.01925, -0.1508179, 1.01925, 1.1374046, 1.01925, 0.9541985, 1.01925, -3.259542
0.1207059, -0.0218204, 1.026, -0.0076294, 1.026, -1.0045776, 1.026, -0.1519775, 1.026, 1.2290076, 1.026, 0.9160305, 1.026, -3.1984732
0.1215, -0.018967, 1.03275, -0.0095215, 1.03275, -1.0056763, 1.03275, -0.1541138, 1.03275, 1.1908396, 1.03275, 0.9236641, 1.03275, -3.1984732
0.1222941, -0.0184634, 1.0395, -0.0072632, 1.0395, -1.0033569, 1.0395, -0.1508789, 1.0395, 1.2977099, 1.0395, 0.9694657, 1.0395, -3.3435113
0.1230882, -0.0240024, 1.04625, -0.0083618, 1.04625, -1.0077515, 1.04625, -0.1497803, 1.04625, 1.3282443, 1.04625, 0.9541985, 1.04625, -3.1603053
0.1238824, -0.023331, 1.053, -0.0105591, 1.053, -1.0084839, 1.053, -0.1481934, 1.053, 1.1832061, 1.053, 0.9312977, 1.053, -3.1603053
0.1246765, -0.0176242, 1.05975, -0.0089111, 1.05975, -1.0054321, 1.05975, -0.1478882, 1.05975, 1.2977099, 1.05975, 0.908397, 1.05975, -3.1145039
0.1254706, -0.018967, 1.0665, -0.0094604, 1.0665, -1.005127, 1.0665, -0.147583, 1.0665, 1.2748091, 1.0665, 0.7480916, 1.0665, -3.2519083
0.1262647, -0.01561, 1.07325, -0.0091553, 1.07325, -1.0031128, 1.07325, -0.1471558, 1.07325, 1, 1.07325, 0.6412213, 1.07325, -3.2671757
0.1270588, -0.0134279, 1.08, -0.0077515, 1.08, -1.005188, 1.08, -0.1477051, 1.08, 1.091603, 1.08, 0.740458, 1.08, -3.091603
0.1278529, -0.0164492, 1.08675, -0.0084839, 1.08675, -1.005127, 1.08675, -0.1471558, 1.08675, 1.1679389, 1.08675, 0.4732825, 1.08675, -3.1908398
0.1286471, -0.0162814, 1.0935, -0.006958, 1.0935, -1.0092773, 1.0935, -0.149292, 1.0935, 1.1908396, 1.0935, 0.6946565, 1.0935, -3.1068702
0.1294412, -0.0119173, 1.10025, -0.008667, 1.10025, -1.0067749, 1.10025, -0.1470947, 1.10025, 1.1526718, 1.10025, 0.6259542, 1.10025, -2.9847329
0.1302353, -0.0075532, 1.107, -0.0071411, 1.107, -1.0089722, 1.107, -0.1478882, 1.107, 1.0305344, 1.107, 0.5267175, 1.107, -2.9923663
0.1310294, -0.0072175, 1.11375, -0.0077515, 1.11375, -1.0078735, 1.11375, -0.151062, 1.11375, 1.0076336, 1.11375, 0.6335878, 1.11375, -3.0610688
0.1318235, -0.0075532, 1.1205, -0.0110474, 1.1205, -1.0048218, 1.1205, -0.1523438, 1.1205, 1.1145039, 1.1205, 0.5877863, 1.1205, -3.221374
0.1326176, -0.0065461, 1.12725, -0.0111694, 1.12725, -1.0056152, 1.12725, -0.1508179, 1.12725, 1.0687023, 1.12725, 0.5496183, 1.12725, -3.2977099
0.1334118, -0.0068818, 1.134, -0.008667, 1.134, -1.0065918, 1.134, -0.1497192, 1.134, 1.2442749, 1.134, 0.3816794, 1.134, -3.1679389
0.1342059, -0.011078, 1.14075, -0.0071411, 1.14075, -1.0065308, 1.14075, -0.1503296, 1.14075, 1.0076336, 1.14075, 0.5343512, 1.14075, -3.1374047
0.135, -0.0129244, 1.1475, -0.0076904, 1.1475, -1.0072021, 1.1475, -0.1486816, 1.1475, 0.9389313, 1.1475, 0.7633588, 1.1475, -3.2519083
0.1357941, -0.0137636, 1.15425, -0.0103149, 1.15425, -1.007019, 1.15425, -0.1478271, 1.15425, 1.0152671, 1.15425, 0.740458, 1.15425, -3.2290077
0.1365882, -0.0162814, 1.161, -0.0079346, 1.161, -1.0080566, 1.161, -0.1508789, 1.161, 1.1526718, 1.161, 0.6870229, 1.161, -2.9923663
0.1373824, -0.0182956, 1.16775, -0.0064087, 1.16775, -1.00177, 1.16775, -0.1522217, 1.16775, 1.1374046, 1.16775, 0.6793893, 1.16775, -3.0076337
0.1381765, -0.0182956, 1.1745, -0.0081177, 1.1745, -1.0021973, 1.1745, -0.1513672, 1.1745, 1.1145039, 1.1745, 0.7328244, 1.1745, -3.0534351
0.1389706, -0.0172885, 1.18125, -0.0067749, 1.18125, -1.0007324, 1.18125, -0.1530151, 1.18125, 1.0534351, 1.18125, 0.9160305, 1.18125, -3.0305343
0.1397647, -0.0135958, 1.188, -0.0078125, 1.188, -1.0039673, 1.188, -0.1502075, 1.188, 1.0839695, 1.188, 1.0305344, 1.188, -3.0687022
0.1405588, -0.0139315, 1.19475, -0.0097656, 1.19475, -1.0056152, 1.19475, -0.1505127, 1.19475, 1.091603, 1.19475, 0.9007633, 1.19475, -2.8091602
0.1413529, -0.0129244, 1.2015, -0.0094604, 1.2015, -1.0043945, 1.2015, -0.1516724, 1.2015, 1.129771, 1.2015, 0.7862595, 1.2015, -3
0.1421471, -0.0179599, 1.20825, -0.0076904, 1.20825, -1.0063477, 1.20825, -0.1498413, 1.20825, 1.2671756, 1.20825, 0.778626, 1.20825, -2.870229
0.1429412, -0.017792, 1.215, -0.0063477, 1.215, -1.0084839, 1.215, -0.1487427, 1.215, 1.2519084, 1.215, 0.7251908, 1.215, -3.091603
0.1437353, -0.0196384, 1.22175, -0.0078735, 1.22175, -1.0041504, 1.22175, -0.147644, 1.22175, 1.1526718, 1.22175, 0.648855, 1.22175, -2.9923663
0.1445294, -0.0172885, 1.2285, -0.0087891, 1.2285, -1.0082397, 1.2285, -0.1497192, 1.2285, 1.2290076, 1.2285, 0.7022901, 1.2285, -3.0763359
0.1453235, -0.0169528, 1.23525, -0.0095825, 1.23525, -1.0056152, 1.23525, -0.1528931, 1.23525, 1.0763359, 1.23525, 0.5877863, 1.23525, -2.8778627
0.1461176, -0.012253, 1.242, -0.010437, 1.242, -1.0067139, 1.242, -0.1541138, 1.242, 1.2977099, 1.242, 0.5954198, 1.242, -2.9694657
0.1469118, -0.0105745, 1.24875, -0.0098877, 1.24875, -1.0043945, 1.24875, -0.1494141, 1.24875, 1.0610687, 1.24875, 0.4351145, 1.24875, -3.0763359
0.1477059, -0.011078, 1.2555, -0.008728, 1.2555, -1.0045776, 1.2555, -0.1525269, 1.2555, 1.1679389, 1.2555, 0.4656489, 1.2555, -2.9160306
0.1485, -0.0130922, 1.26225, -0.0064087, 1.26225, -1.0050049, 1.26225, -0.1543579, 1.26225, 1.1984733, 1.26225, 0.3282443, 1.26225, -2.9465649
0.1492941, -0.012253, 1.269, -0.0063477, 1.269, -1.0057983, 1.269, -0.1549683, 1.269, 1.1984733, 1.269, 0.480916, 1.269, -2.9007633
0.1500882, -0.011078, 1.27575, -0.0073853, 1.27575, -1.006958, 1.27575, -0.1569214, 1.27575, 1.259542, 1.27575, 0.8091603, 1.27575, -2.7557251
0.1508824, -0.0095674, 1.2825, -0.0060425, 1.2825, -1.0050659, 1.2825, -0.1539307, 1.2825, 1.2137405, 1.2825, 0.9465649, 1.2825, -2.9923663
0.1516765, -0.0095674, 1.28925, -0.0058594, 1.28925, -1.0073242, 1.28925, -0.1539917, 1.28925, 1.2061069, 1.28925, 1.1603054, 1.28925, -2.8320611
0.1524706, -0.0077211, 1.296, -0.0056152, 1.296, -1.0039062, 1.296, -0.1519775, 1.296, 1.2519084, 1.296, 1.1984733, 1.296, -2.9465649
0.1532647, -0.0129244, 1.30275, -0.0094604, 1.30275, -1.0078735, 1.30275, -0.1522827, 1.30275, 1.2671756, 1.30275, 1.1145039, 1.30275, -2.8625953
0.1540588, -0.0219883, 1.3095, -0.0083618, 1.3095, -1.0045166, 1.3095, -0.1509399, 1.3095, 1.2366412, 1.3095, 0.9312977, 1.3095, -2.8320611
0.1548529, -0.0224918, 1.31625, -0.0106812, 1.31625, -1.0055542, 1.31625, -0.1484985, 1.31625, 1.2519084, 1.31625, 0.648855, 1.31625, -2.9847329
0.1556471, -0.0223239, 1.323, -0.0109253, 1.323, -1.0070801, 1.323, -0.1506958, 1.323, 1.3816794, 1.323, 0.6183206, 1.323, -2.7709923
0.1564412, -0.0199741, 1.32975, -0.0071411, 1.32975, -1.003418, 1.32975, -0.1499634, 1.32975, 1.4274809, 1.32975, 0.4503817, 1.32975, -2.9541984
0.1572353, -0.0184634, 1.3365, -0.0107422, 1.3365, -1.0026245, 1.3365, -0.1508179, 1.3365, 1.1755725, 1.3365, 0.5419847, 1.3365, -2.961832
0.1580294, -0.018967, 1.34325, -0.0120239, 1.34325, -1.00354, 1.34325, -0.1489868, 1.34325, 1.2671756, 1.34325, 0.3816794, 1.34325, -2.8854961
0.1588235, -0.0182956, 1.35, -0.0092773, 1.35, -1.0064697, 1.35, -0.1503906, 1.35, 1.3282443, 1.35, 0.351145, 1.35, -3.091603
0.1596176, -0.0206455, 1.35675, -0.0090332, 1.35675, -1.0075073, 1.35675, -0.1494141, 1.35675, 1.0763359, 1.35675, 0.519084, 1.35675, -2.870229
0.1604118, -0.0206455, 1.3635, -0.0099487, 1.3635, -1.0084839, 1.3635, -0.1502686, 1.3635, 0.9923664, 1.3635, 0.5267175, 1.3635, -2.8320611
0.1612059, -0.0166171, 1.37025, -0.0088501, 1.37025, -1.0064697, 1.37025, -0.1494141, 1.37025, 1.1450381, 1.37025, 0.5343512, 1.37025, -2.9465649
0.162, -0.0149386, 1.377, -0.0105591, 1.377, -1.0079956, 1.377, -0.1514282, 1.377, 1.1450381, 1.377, 0.519084, 1.377, -3.0610688
0.1627941, -0.0176242, 1.38375, -0.0072632, 1.38375, -1.0061646, 1.38375, -0.1529541, 1.38375, 1.0229008, 1.38375, 0.7328244, 1.38375, -2.8244274
0.1635882, -0.0135958, 1.3905, -0.0084839, 1.3905, -1.0079346, 1.3905, -0.1513672, 1.3905, 1.1374046, 1.3905, 0.8473282, 1.3905, -3.0305343
0.1643824, -0.0102388, 1.39725, -0.0089111, 1.39725, -1.0057983, 1.39725, -0.1508179, 1.39725, 1.1221374, 1.39725, 0.6870229, 1.39725, -2.8167939
0.1651765, -0.0095674, 1.404, -0.0144043, 1.404, -1.0053101, 1.404, -0.1506958, 1.404, 1.2061069, 1.404, 0.6183206, 1.404, -2.9770992
0.1659706, -0.0062104, 1.41075, -0.0133057, 1.41075, -1.005249, 1.41075, -0.1463013, 1.41075, 1.2824427, 1.41075, 0.6793893, 1.41075, -2.9465649
0.1667647, -0.0072175, 1.4175, -0.0093994, 1.4175, -1.0060425, 1.4175, -0.1508179, 1.4175, 1.129771, 1.4175, 0.5114504, 1.4175, -2.9694657
0.1675588, -0.0082246, 1.42425, -0.0072021, 1.42425, -1.0056763, 1.42425, -0.1498413, 1.42425, 0.9923664, 1.42425, 0.5572519, 1.42425, -2.8931298
0.1683529, -0.0112459, 1.431, -0.0068359, 1.431, -1.0073242, 1.431, -0.145752, 1.431, 1.1908396, 1.431, 0.7862595, 1.431, -2.9236641
0.1691471, -0.0135958, 1.43775, -0.0076294, 1.43775, -1.0054932, 1.43775, -0.149292, 1.43775, 1.1832061, 1.43775, 0.8854962, 1.43775, -2.870229
0.1699412, -0.0125887, 1.4445, -0.0093994, 1.4445, -1.0082397, 1.4445, -0.1480713, 1.4445, 1.3206106, 1.4445, 0.9847328, 1.4445, -2.9465649
0.1707353, -0.0115816, 1.45125, -0.0087891, 1.45125, -1.0092773, 1.45125, -0.1489868, 1.45125, 1.2519084, 1.45125, 0.9160305, 1.45125, -2.8549619
0.1715294, -0.0102388, 1.458, -0.0057983, 1.458, -1.0064087, 1.458, -0.1539307, 1.458, 1.1526718, 1.458, 1.0305344, 1.458, -2.7480917
0.1723235, -0.0130922, 1.46475, -0.0048828, 1.46475, -1.0100098, 1.46475, -0.1517334, 1.46475, 1.4580153, 1.46475, 1.0458015, 1.46475, -2.6870229
0.1731176, -0.0199741, 1.4715, -0.0008545, 1.4715, -1.0112915, 1.4715, -0.149292, 1.4715, 1.4274809, 1.4715, 1.2442749, 1.4715, -2.4885497
0.1739118, -0.0182956, 1.47825, -0.00177, 1.47825, -1.0087891, 1.47825, -0.1453857, 1.47825, 1.6870229, 1.47825, 1.5801526, 1.47825, -2.5877862
0.1747059, -0.0229953, 1.485, 0.0007935, 1.485, -1.0053711, 1.485, -0.1431274, 1.485, 1.8473282, 1.485, 1.7175573, 1.485, -2.3740458
0.1755, -0.0250095, 1.49175, -0.0073853, 1.49175, -1.0022583, 1.49175, -0.1444092, 1.49175, 1.6870229, 1.49175, 2.3816793, 1.49175, -2.4045801
0.1762941, -0.024506, 1.4985, -0.0129395, 1.4985, -1.0048218, 1.4985, -0.1525269, 1.4985, 1.8015267, 1.4985, 2.091603, 1.4985, -2.4045801
0.1770882, -0.0209812, 1.50525, -0.0159912, 1.50525, -1.0103149, 1.50525, -0.1470947, 1.50525, 1.5267175, 1.50525, 1.8473282, 1.50525, -2.4732823
0.1778824, -0.0198062, 1.512, -0.0155029, 1.512, -1.0036621, 1.512, -0.1408691, 1.512, 1.8549619, 1.512, 0.8854962, 1.512, -2.5496182
0.1786765, -0.0216526, 1.51875, -0.0061646, 1.51875, -1.0029297, 1.51875, -0.1436768, 1.51875, 1.6564885, 1.51875, 0.8167939, 1.51875, -2.5114503
0.1794706, -0.0209812, 1.5255, -0.0020142, 1.5255, -1.0022583, 1.5255, -0.1447754, 1.5255, 1.480916, 1.5255, 0.2671756, 1.5255, -2.6412213
0.1802647, -0.0142672, 1.53225, -0.0012207, 1.53225, -1.0055542, 1.53225, -0.1455078, 1.53225, 1.5038168, 1.53225, 0.5496183, 1.53225, -2.648855
0.1810588, -0.0109102, 1.539, -0.003418, 1.539, -1.0067139, 1.539, -0.1548462, 1.539, 1.5572519, 1.539, 0.6870229, 1.539, -2.3129771
0.1818529, -0.0114137, 1.54575, -0.0110474, 1.54575, -1.0074463, 1.54575, -0.1558228, 1.54575, 1.4656489, 1.54575, 1.1908396, 1.54575, -2.3664122
0.1826471, -0.0083925, 1.5525, -0.0120239, 1.5525, -1.0060425, 1.5525, -0.1571045, 1.5525, 1.3664122, 1.5525, 1.4122137, 1.5525, -2.3969467
0.1834412, -0.0062104, 1.55925, -0.0125732, 1.55925, -1.0061035, 1.55925, -0.1567993, 1.55925, 1.4427481, 1.55925, 1.5725191, 1.55925, -2.3435113
0.1842353, -0.0099031, 1.566, -0.0118408, 1.566, -1.0067139, 1.566, -0.159729, 1.566, 1.610687, 1.566, 1.5267175, 1.566, -2.2061069
0.1850294, -0.008896, 1.57275, -0.0101318, 1.57275, -1.0026245, 1.57275, -0.1548462, 1.57275, 1.5648855, 1.57275, 1.5954199, 1.57275, -2.3282442
0.1858235, -0.0115816, 1.5795, -0.010437, 1.5795, -1.0024414, 1.5795, -0.1533813, 1.5795, 1.6335878, 1.5795, 1.6259542, 1.5795, -2.2671757
0.1866176, -0.0162814, 1.58625, -0.0078125, 1.58625, -1.0015259, 1.58625, -0.15271, 1.58625, 1.7480916, 1.58625, 1.7251909, 1.58625, -2.259542
0.1874118, -0.0196384, 1.593, -0.0107422, 1.593, -1.0027466, 1.593, -0.1514893, 1.593, 1.7251909, 1.593, 1.6870229, 1.593, -2.2977099
0.1882059, -0.0196384, 1.59975, -0.0062866, 1.59975, -1.0040894, 1.59975, -0.1464844, 1.59975, 1.7862595, 1.59975, 1.740458, 1.59975, -2.2900763
0.189, -0.0179599, 1.6065, -0.010498, 1.6065, -1.0040283, 1.6065, -0.1483765, 1.6065, 1.7099236, 1.6065, 1.3969465, 1.6065, -2.3435113
0.1897941, -0.0203098, 1.61325, -0.0101318, 1.61325, -1.0010986, 1.61325, -0.147583, 1.61325, 1.4961832, 1.61325, 1.0687023, 1.61325, -2.2519083
0.1905882, -0.0219883, 1.62, -0.0092163, 1.62, -1.0037842, 1.62, -0.1488647, 1.62, 1.5801526, 1.62, 1.038168, 1.62, -2.2290077
0.1913824, -0.0243381, 1.62675, -0.008728, 1.62675, -1.0059814, 1.62675, -0.147583, 1.62675, 1.4427481, 1.62675, 0.9694657, 1.62675, -2.3282442
0.1921765, -0.0203098, 1.6335, -0.0097656, 1.6335, -1.008606, 1.6335, -0.1471558, 1.6335, 1.4961832, 1.6335, 1.0534351, 1.6335, -2.2137403
0.1929706, -0.0182956, 1.64025, -0.0108032, 1.64025, -1.0073853, 1.64025, -0.1459351, 1.64025, 1.4656489, 1.64025, 1.0610687, 1.64025, -2.3740458
0.1937647, -0.0169528, 1.647, -0.0134888, 1.647, -1.0040283, 1.647, -0.1431885, 1.647, 1.3435115, 1.647, 0.8931298, 1.647, -2.1908398
0.1945588, -0.0135958, 1.65375, -0.0136719, 1.65375, -1.0023804, 1.65375, -0.1437988, 1.65375, 1.4580153, 1.65375, 0.6717557, 1.65375, -2.1526718
0.1953529, -0.0135958, 1.6605, -0.0131226, 1.6605, -1.0057983, 1.6605, -0.1410522, 1.6605, 1.4274809, 1.6605, 0.5877863, 1.6605, -2.2671757
0.1961471, -0.0147707, 1.66725, -0.0114136, 1.66725, -1.003418, 1.66725, -0.1412964, 1.66725, 1.480916, 1.66725, 0.4274809, 1.66725, -2.2519083
0.1969412, -0.0157778, 1.674, -0.0160522, 1.674, -1.0047607, 1.674, -0.1460571, 1.674, 1.3435115, 1.674, 0.5038168, 1.674, -2.259542
0.1977353, -0.0139315, 1.68075, -0.0163574, 1.68075, -1.0056763, 1.68075, -0.1459961, 1.68075, 1.3358779, 1.68075, 0.610687, 1.68075, -2.3053436
0.1985294, -0.0149386, 1.6875, -0.0133667, 1.6875, -1.0043335, 1.6875, -0.1480713, 1.6875, 1.1984733, 1.6875, 0.6641222, 1.6875, -2.1679389
0.1993235, -0.0125887, 1.69425, -0.008667, 1.69425, -1.0054321, 1.69425, -0.1453857, 1.69425, 1.0458015, 1.69425, 1.1908396, 1.69425, -2.1832061
0.2001176, -0.0115816, 1.701, -0.0124512, 1.701, -1.005188, 1.701, -0.1424561, 1.701, 1.2519084, 1.701, 1.7709924, 1.701, -2.1679389
0.2009118, -0.0102388, 1.70775, -0.0136719, 1.70775, -1.0032959, 1.70775, -0.1452026, 1.70775, 1.1374046, 1.70775, 1.9007634, 1.70775, -2.0839694
0.2017059, -0.0104067, 1.7145, -0.0203857, 1.7145, -1.0074463, 1.7145, -0.1477661, 1.7145, 1.1374046, 1.7145, 1.7633588, 1.7145, -2.0610688
0.2025, -0.0105745, 1.72125, -0.0201416, 1.72125, -1.0009766, 1.72125, -0.1479492, 1.72125, 1.0305344, 1.72125, 1.648855, 1.72125, -2.0992367
0.2032941, -0.012253, 1.728, -0.0167236, 1.728, -1.0060425, 1.728, -0.1473999, 1.728, 0.9541985, 1.728, 1.3358779, 1.728, -2.1755726
0.2040882, -0.0114137, 1.73475, -0.0135498, 1.73475, -1.0078125, 1.73475, -0.144043, 1.73475, 1.1068702, 1.73475, 1.1450381, 1.73475, -1.9923664
0.2048824, -0.0149386, 1.7415, -0.0142822, 1.7415, -1.005127, 1.7415, -0.1448975, 1.7415, 1.2900764, 1.7415, 1, 1.7415, -2.1832061
0.2056765, -0.0172885, 1.74825, -0.015686, 1.74825, -1.0047607, 1.74825, -0.1453247, 1.74825, 1.0229008, 1.74825, 1.0534351, 1.74825, -2.259542
0.2064706, -0.0196384, 1.755, -0.0116577, 1.755, -1.0091553, 1.755, -0.1448975, 1.755, 1.0610687, 1.755, 1.1984733, 1.755, -2.2900763
0.2072647, -0.0226596, 1.76175, -0.010437, 1.76175, -1.0056152, 1.76175, -0.147583, 1.76175, 1.2137405, 1.76175, 1.2977099, 1.76175, -2.1908398
0.2080588, -0.0216526, 1.7685, -0.0100098, 1.7685, -1.0045166, 1.7685, -0.1504517, 1.7685, 1.1068702, 1.7685, 1.4732825, 1.7685, -2.1984732
0.2088529, -0.0196384, 1.77525, -0.0119019, 1.77525, -1.0072021, 1.77525, -0.1540527, 1.77525, 1.1068702, 1.77525, 1.5648855, 1.77525, -2.0305343
0.2096471, -0.0203098, 1.782, -0.0134277, 1.782, -1.0066528, 1.782, -0.1525269, 1.782, 1.129771, 1.782, 1.7862595, 1.782, -2.0839694
0.2104412, -0.0193027, 1.78875, -0.0136108, 1.78875, -1.006958, 1.78875, -0.1522217, 1.78875, 1.259542, 1.78875, 2.1221373, 1.78875, -1.8015267
0.2112353, -0.0193027, 1.7955, -0.0114746, 1.7955, -1.0110474, 1.7955, -0.1495361, 1.7955, 1.1832061, 1.7955, 2.2366412, 1.7955, -1.9465649
0.2120294, -0.0179599, 1.80225, -0.0078735, 1.80225, -1.0140991, 1.80225, -0.1425171, 1.80225, 1.3206106, 1.80225, 2.6564887, 1.80225, -1.908397
0.2128235, -0.0149386, 1.809, -0.0083618, 1.809, -1.0097656, 1.809, -0.1409302, 1.809, 1.7862595, 1.809, 3.0229008, 1.809, -1.7328244
0.2136176, -0.0127565, 1.81575, -0.0147705, 1.81575, -1.0089111, 1.81575, -0.1407471, 1.81575, 1.8244275, 1.81575, 3.3358779, 1.81575, -1.870229
0.2144118, -0.0115816, 1.8225, -0.019104, 1.8225, -1.0106812, 1.8225, -0.1428833, 1.8225, 2, 1.8225, 2.9770992, 1.8225, -1.9389313
0.2152059, -0.0112459, 1.82925, -0.0184937, 1.82925, -1.0084839, 1.82925, -0.142395, 1.82925, 1.9312977, 1.82925, 2.6641221, 1.82925, -1.7328244
0.216, -0.014435, 1.836, -0.0164185, 1.836, -1.003479, 1.836, -0.1364746, 1.836, 1.9541985, 1.836, 2.4503818, 1.836, -1.9770992
0.2167941, -0.0097353, 1.84275, -0.0171509, 1.84275, -1.0027466, 1.84275, -0.1343384, 1.84275, 2.0687022, 1.84275, 2.4274809, 1.84275, -2.0076337
0.2175882, -0.0109102, 1.8495, -0.0279541, 1.8495, -1.0062866, 1.8495, -0.1311646, 1.8495, 2.480916, 1.8495, 2.3740458, 1.8495, -2.0610688
0.2183824, -0.0166171, 1.85625, -0.0324097, 1.85625, -1.0131836, 1.85625, -0.1287842, 1.85625, 3.1755726, 1.85625, 1.9160305, 1.85625, -2.3129771
0.2191765, -0.0159457, 1.863, -0.0338745, 1.863, -1.0219727, 1.863, -0.1227417, 1.863, 4.2671757, 1.863, 1.2061069, 1.863, -2.0763359
0.2199706, -0.0162814, 1.86975, -0.0321045, 1.86975, -1.0344849, 1.86975, -0.1254883, 1.86975, 5.6488547, 1.86975, 0.3740458, 1.86975, -2.1832061
0.2207647, -0.01561, 1.8765, -0.0267334, 1.8765, -1.0305786, 1.8765, -0.1306152, 1.8765, 6.1832061, 1.8765, -0.221374, 1.8765, -2.1526718
0.2215588, -0.0157778, 1.88325, -0.0253296, 1.88325, -1.0150146, 1.88325, -0.1403198, 1.88325, 6.5114503, 1.88325, -1.3282443, 1.88325, -2.2824428
0.2223529, -0.0203098, 1.89, -0.0232544, 1.89, -1.0067749, 1.89, -0.1591797, 1.89, 6.0229006, 1.89, -1.610687, 1.89, -2.4198472
0.2231471, -0.0169528, 1.89675, -0.0178833, 1.89675, -1.0078735, 1.89675, -0.1702271, 1.89675, 5.0916033, 1.89675, -1.7099236, 1.89675, -2.3282442
0.2239412, -0.0171206, 1.9035, -0.0202637, 1.9035, -1.0091553, 1.9035, -0.1704712, 1.9035, 4.961832, 1.9035, -1.6183206, 1.9035, -2.3969467
0.2247353, -0.0166171, 1.91025, -0.012146, 1.91025, -0.9995728, 1.91025, -0.1624146, 1.91025, 4.9312978, 1.91025, -1.3206106, 1.91025, -2.6259542
0.2255294, -0.0149386, 1.917, -0.0102539, 1.917, -0.9967651, 1.917, -0.1584473, 1.917, 4.4427481, 1.917, -1.2442749, 1.917, -2.6183207
0.2263235, -0.0166171, 1.92375, -0.0142822, 1.92375, -0.9967651, 1.92375, -0.1620483, 1.92375, 4.0076337, 1.92375, -1.5419847, 1.92375, -2.7175572
0.2271176, -0.0152743, 1.9305, -0.020874, 1.9305, -0.9967041, 1.9305, -0.1601562, 1.9305, 3.9847329, 1.9305, -1.3740458, 1.9305, -2.5419848
0.2279118, -0.0137636, 1.93725, -0.0247803, 1.93725, -1.000061, 1.93725, -0.1542358, 1.93725, 3.6946564, 1.93725, -1.3740458, 1.93725, -2.5801528
0.2287059, -0.01561, 1.944, -0.0317993, 1.944, -1.0029297, 1.944, -0.1616821, 1.944, 3.3740458, 1.944, -2.1984732, 1.944, -2.870229
0.2295, -0.0196384, 1.95075, -0.0285645, 1.95075, -1.00354, 1.95075, -0.1558228, 1.95075, 3.2824428, 1.95075, -2.091603, 1.95075, -2.9160306
0.2302941, -0.01561, 1.9575, -0.0246582, 1.9575, -1.0067749, 1.9575, -0.1611938, 1.9575, 3.0152671, 1.9575, -2.7633588, 1.9575, -3.0610688
0.2310882, -0.0070497, 1.96425, -0.0170898, 1.96425, -1.0107422, 1.96425, -0.1571655, 1.96425, 3.1603053, 1.96425, -2.8473282, 1.96425, -2.9694657
0.2318824, -0.0095674, 1.971, -0.0064087, 1.971, -1.0091553, 1.971, -0.1607666, 1.971, 3.2748091, 1.971, -2.5954199, 1.971, -2.908397
0.2326765, -0.0135958, 1.97775, 0.0011597, 1.97775, -1.0114136, 1.97775, -0.1565552, 1.97775, 3.4580152, 1.97775, -1.6946565, 1.97775, -2.7862597
0.2334706, -0.0109102, 1.9845, -0.0012817, 1.9845, -1.0099487, 1.9845, -0.1517334, 1.9845, 3.7709923, 1.9845, -0.3358779, 1.9845, -2.7938931
0.2342647, -0.0109102, 1.99125, -0.0117798, 1.99125, -1.0087891, 1.99125, -0.1491089, 1.99125, 4.0916033, 1.99125, 0.5114504, 1.99125, -2.778626
0.2350588, -0.0112459, 1.998, -0.0197144, 1.998, -1.0053711, 1.998, -0.1497192, 1.998, 4.1603055, 1.998, 0.1984733, 1.998, -2.9541984
0.2358529, -0.0119173, 2.00475, -0.0270996, 2.00475, -1.0073242, 2.00475, -0.1433716, 2.00475, 4.1068702, 2.00475, 0.4351145, 2.00475, -2.7175572
0.2366471, -0.0125887, 2.0115, -0.0305176, 2.0115, -1.0100708, 2.0115, -0.140625, 2.0115, 4.5725193, 2.0115, -0.8091603, 2.0115, -3.0229008
0.2374412, -0.0149386, 2.01825, -0.0371094, 2.01825, -1.0077515, 2.01825, -0.1368408, 2.01825, 4.519084, 2.01825, -1.3816794, 2.01825, -3.1221373
0.2382353, -0.0166171, 2.025, -0.0333252, 2.025, -1.0066528, 2.025, -0.1329956, 2.025, 4.6412215, 2.025, -2.4885497, 2.025, -3.0229008
0.2390294, -0.0193027, 2.03175, -0.0238037, 2.03175, -1.0067749, 2.03175, -0.1310425, 2.03175, 4.2671757, 2.03175, -3.1908398, 2.03175, -3.1526718
0.2398235, -0.0203098, 2.0385, -0.0163574, 2.0385, -1.0048828, 2.0385, -0.133606, 2.0385, 4.0687022, 2.0385, -3.1984732, 2.0385, -3.1984732
0.2406176, -0.0182956, 2.04525, -0.0101318, 2.04525, -1.0062256, 2.04525, -0.1273193, 2.04525, 3.8015268, 2.04525, -2.7633588, 2.04525, -3.0076337
0.2414118, -0.0193027, 2.052, -0.0125732, 2.052, -1.0054321, 2.052, -0.1179199, 2.052, 3.7480917, 2.052, -2.1450381, 2.052, -3.1908398
0.2422059, -0.0203098, 2.05875, -0.0124512, 2.05875, -1.0004883, 2.05875, -0.1166382, 2.05875, 3.8931298, 2.05875, -1.7938931, 2.05875, -2.9541984
0.243, -0.0229953, 2.0655, -0.0122681, 2.0655, -0.9956055, 2.0655, -0.1140747, 2.0655, 3.9236641, 2.0655, -1.1832061, 2.0655, -2.7022901
0.2437941, -0.0229953, 2.07225, -0.015686, 2.07225, -0.9942627, 2.07225, -0.1186523, 2.07225, 3.9312978, 2.07225, -1.0152671, 2.07225, -2.8854961
0.2445882, -0.018967, 2.079, -0.0118408, 2.079, -0.993103, 2.079, -0.1264648, 2.079, 3.6259542, 2.079, -1.1221374, 2.079, -2.7938931
0.2453824, -0.0179599, 2.08575, -0.0106201, 2.08575, -1.0041504, 2.08575, -0.1317749, 2.08575, 3.4122138, 2.08575, -1.0305344, 2.08575, -2.5725191
0.2461765, -0.0157778, 2.0925, -0.0007324, 2.0925, -1.006897, 2.0925, -0.1385498, 2.0925, 3.6564887, 2.0925, -0.740458, 2.0925, -2.351145
0.2469706, -0.0139315, 2.09925, 0.0064697, 2.09925, -1.0089722, 2.09925, -0.1491699, 2.09925, 3.6335878, 2.09925, 0.0687023, 2.09925, -2.2442749
0.2477647, -0.0125887, 2.106, 0.0149536, 2.106, -1.0054932, 2.106, -0.1511841, 2.106, 3.5267177, 2.106, 0.6412213, 2.106, -2.1984732
0.2485588, -0.0102388, 2.11275, 0.0184937, 2.11275, -1.0029907, 2.11275, -0.1537476, 2.11275, 3.6259542, 2.11275, 1.9770992, 2.11275, -1.908397
0.2493529, -0.0092317, 2.1195, 0.0122681, 2.1195, -0.9995728, 2.1195, -0.1592407, 2.1195, 3.9770992, 2.1195, 3.0610688, 2.1195, -1.5801526
0.2501471, -0.0149386, 2.12625, 0.0079956, 2.12625, -1.0062256, 2.12625, -0.1638794, 2.12625, 4.1679387, 2.12625, 3.8396947, 2.12625, -1.5801526
0.2509412, -0.0142672, 2.133, 0.0076294, 2.133, -1.0111694, 2.133, -0.1619263, 2.133, 4.6183205, 2.133, 4.7099237, 2.133, -1.351145
0.2517353, -0.0070497, 2.13975, 0.0062866, 2.13975, -1.0176392, 2.13975, -0.1592407, 2.13975, 5.1145039, 2.13975, 5.4351144, 2.13975, -1.2824427
0.2525294, -0.0115816, 2.1465, -0.0012817, 2.1465, -1.0221558, 2.1465, -0.1594849, 2.1465, 5.8702292, 2.1465, 5.961832, 2.1465, -1
0.2533235, -0.0146029, 2.15325, -0.0026245, 2.15325, -1.0185547, 2.15325, -0.1576538, 2.15325, 6.3282442, 2.15325, 6.5114503, 2.15325, -0.8320611
0.2541176, -0.0203098, 2.16, -0.0011597, 2.16, -1.0177612, 2.16, -0.1499634, 2.16, 6.8320613, 2.16, 6.9007635, 2.16, -0.6641222
0.2549118, -0.0206455, 2.16675, -0.007019, 2.16675, -1.0092163, 2.16675, -0.1422729, 2.16675, 7.1145039, 2.16675, 6.9312978, 2.16675, -0.4656489
0.2557059, -0.0203098, 2.1735, -0.0169678, 2.1735, -1.0092163, 2.1735, -0.1366577, 2.1735, 7.5648856, 2.1735, 6.6641221, 2.1735, -0.5954198
0.2565, -0.0240024, 2.18025, -0.0216675, 2.18025, -1.0050659, 2.18025, -0.140625, 2.18025, 7.8702292, 2.18025, 6.2061067, 2.18025, -0.3435115
0.2572941, -0.0256809, 2.187, -0.0202637, 2.187, -1.0025024, 2.187, -0.131897, 2.187, 8.038168, 2.187, 6.0687022, 2.187, -0.2671756
0.2580882, -0.023331, 2.19375, -0.0128784, 2.19375, -1.0092163, 2.19375, -0.1271362, 2.19375, 8.6030531, 2.19375, 6.1984735, 2.19375, -0.0305344
0.2588824, -0.0169528, 2.2005, -0.0126343, 2.2005, -1.0128174, 2.2005, -0.1254272, 2.2005, 8.7022905, 2.2005, 6.8549619, 2.2005, 0.2061069
0.2596765, -0.0149386, 2.20725, -0.0084229, 2.20725, -1.0169678, 2.20725, -0.1287231, 2.20725, 8.8931293, 2.20725, 7.5572519, 2.20725, 0.3129771
0.2604706, -0.0179599, 2.214, -0.0071411, 2.214, -1.0144043, 2.214, -0.1283569, 2.214, 9.1374044, 2.214, 8.1908398, 2.214, 0.4198473
0.2612647, -0.0149386, 2.22075, 0.0001221, 2.22075, -1.0053101, 2.22075, -0.1364746, 2.22075, 9.4961834, 2.22075, 8.6717558, 2.22075, 0.648855
0.2620588, -0.0117494, 2.2275, 0.001709, 2.2275, -1.0041504, 2.2275, -0.1431274, 2.2275, 9.2213745, 2.2275, 9.9923668, 2.2275, 0.8320611
0.2628529, -0.0109102, 2.23425, 0.0012817, 2.23425, -1.0048828, 2.23425, -0.1398315, 2.23425, 9.1755724, 2.23425, 11.0687027, 2.23425, 0.908397
0.2636471, -0.0085603, 2.241, -0.0040894, 2.241, -1.0014038, 2.241, -0.130188, 2.241, 9.3129768, 2.241, 11.9160309, 2.241, 1
0.2644412, -0.0070497, 2.24775, -0.0217896, 2.24775, -1.005249, 2.24775, -0.1210938, 2.24775, 9.6946564, 2.24775, 11.2671757, 2.24775, 0.9847328
0.2652353, -0.0035248, 2.2545, -0.0302124, 2.2545, -0.9988403, 2.2545, -0.1202393, 2.2545, 9.2900763, 2.2545, 10.6641226, 2.2545, 1.1374046
0.2660294, -0.0078889, 2.26125, -0.036499, 2.26125, -1.0029297, 2.26125, -0.1164551, 2.26125, 9.0916033, 2.26125, 10.0305347, 2.26125, 1.1221374
0.2668235, -0.005539, 2.268, -0.0410767, 2.268, -1.0056152, 2.268, -0.097168, 2.268, 8.961832, 2.268, 8.0687027, 2.268, 0.9694657
0.2676176, -0.0062104, 2.27475, -0.0373535, 2.27475, -1.005188, 2.27475, -0.1057129, 2.27475, 9.7251911, 2.27475, 6.5725193, 2.27475, 0.9923664
0.2684118, -0.0052033, 2.2815, -0.0350952, 2.2815, -1.0032349, 2.2815, -0.0960083, 2.2815, 9.1526718, 2.2815, 6.1984735, 2.2815, 1.1145039
0.2692059, -0.0135958, 2.28825, -0.0294189, 2.28825, -1.0029297, 2.28825, -0.0914307, 2.28825, 8.961832, 2.28825, 5.6641221, 2.28825, 1.0152671
0.27, -0.0146029, 2.295, -0.027832, 2.295, -0.9991455, 2.295, -0.0932007, 2.295, 8.9694653, 2.295, 5.480916, 2.295, 0.9007633
0.2707941, -0.0135958, 2.30175, -0.0268555, 2.30175, -0.9966431, 2.30175, -0.0978394, 2.30175, 8.6259546, 2.30175, 5.8396945, 2.30175, 0.9770992
0.2715882, -0.0157778, 2.3085, -0.0253906, 2.3085, -0.9987183, 2.3085, -0.0915527, 2.3085, 8.2977095, 2.3085, 6.2137403, 2.3085, 1.1450381
0.2723824, -0.0199741, 2.31525, -0.0241699, 2.31525, -1.0039673, 2.31525, -0.0747681, 2.31525, 7.7175574, 2.31525, 6.5496182, 2.31525, 1.2519084
0.2731765, -0.018967, 2.322, -0.0358276, 2.322, -1.005188, 2.322, -0.0754395, 2.322, 8.0229006, 2.322, 6.0992365, 2.322, 1.2137405
0.2739706, -0.0172885, 2.32875, -0.0396118, 2.32875, -1.0059204, 2.32875, -0.0802612, 2.32875, 7.4274807, 2.32875, 5.6488547, 2.32875, 0.9923664
0.2747647, -0.0151064, 2.3355, -0.0422974, 2.3355, -1.0020752, 2.3355, -0.0817871, 2.3355, 6.6183205, 2.3355, 4.961832, 2.3355, 0.8625954
0.2755588, -0.0115816, 2.34225, -0.0435791, 2.34225, -1.0004883, 2.34225, -0.0819702, 2.34225, 6.5343513, 2.34225, 5.0610685, 2.34225, 1.0152671
0.2763529, -0.0115816, 2.349, -0.0449829, 2.349, -1.0039062, 2.349, -0.0718994, 2.349, 6.0229006, 2.349, 3.9465649, 2.349, 0.9847328
0.2771471, -0.0137636, 2.35575, -0.0437622, 2.35575, -1.013916, 2.35575, -0.0703125, 2.35575, 5.4961834, 2.35575, 3.8473282, 2.35575, 0.9389313
0.2779412, -0.0162814, 2.3625, -0.0512085, 2.3625, -1.0093384, 2.3625, -0.0750122, 2.3625, 5.3282442, 2.3625, 2.4427481, 2.3625, 0.6946565
0.2787353, -0.0182956, 2.36925, -0.0545654, 2.36925, -1.0081177, 2.36925, -0.0838623, 2.36925, 5.2900763, 2.36925, 1.480916, 2.36925, 0.7633588
0.2795294, -0.0149386, 2.376, -0.0424805, 2.376, -1.0048218, 2.376, -0.0773315, 2.376, 4.4656487, 2.376, -0.0610687, 2.376, 0.4045801
0.2803235, -0.0157778, 2.38275, -0.0395508, 2.38275, -1.0090332, 2.38275, -0.0721436, 2.38275, 4.8091602, 2.38275, -0.0381679, 2.38275, 0.4122137
0.2811176, -0.0162814, 2.3895, -0.0370483, 2.3895, -1.0122681, 2.3895, -0.0811768, 2.3895, 4.9160304, 2.3895, -0.5877863, 2.3895, 0.3969466
0.2819118, -0.0137636, 2.39625, -0.0393677, 2.39625, -1.0114136, 2.39625, -0.0782471, 2.39625, 5.2900763, 2.39625, -0.4351145, 2.39625, 0.4885496
0.2827059, -0.0109102, 2.403, -0.0463257, 2.403, -1.0093384, 2.403, -0.0839233, 2.403, 5.2061067, 2.403, -0.8778626, 2.403, 0.4198473
0.2835, -0.0129244, 2.40975, -0.0506592, 2.40975, -1.0112305, 2.40975, -0.0707397, 2.40975, 5.4961834, 2.40975, -0.4503817, 2.40975, 0.4045801
0.2842941, -0.0112459, 2.4165, -0.0513306, 2.4165, -1.010498, 2.4165, -0.0701904, 2.4165, 5.8778625, 2.4165, -0.351145, 2.4165, 0.4732825
0.2850882, -0.011078, 2.42325, -0.0610962, 2.42325, -1.0079346, 2.42325, -0.0775757, 2.42325, 5.5572519, 2.42325, -0.778626, 2.42325, 0.5419847
0.2858824, -0.0127565, 2.43, -0.0629883, 2.43, -1.0108643, 2.43, -0.0822754, 2.43, 5.2137403, 2.43, -0.8244275, 2.43, 0.6793893
0.2866765, -0.0149386, 2.43675, -0.0577393, 2.43675, -1.0065308, 2.43675, -0.083313, 2.43675, 4.3969464, 2.43675, -1.9694656, 2.43675, 0.5648855
0.2874706, -0.0176242, 2.4435, -0.0493774, 2.4435, -1.0082397, 2.4435, -0.0761719, 2.4435, 3.6259542, 2.4435, -1.8778626, 2.4435, 0.5877863
0.2882647, -0.0193027, 2.45025, -0.0426636, 2.45025, -1.0019531, 2.45025, -0.0858154, 2.45025, 2.8931298, 2.45025, -2.2824428, 2.45025, 0.4732825
0.2890588, -0.0216526, 2.457, -0.0411377, 2.457, -1.0039673, 2.457, -0.0853271, 2.457, 2.0534351, 2.457, -1.740458, 2.457, 0.1984733
0.2898529, -0.024506, 2.46375, -0.039856, 2.46375, -1.0039062, 2.46375, -0.0879517, 2.46375, 1.5419847, 2.46375, -1.8015267, 2.46375, 0.0458015
0.2906471, -0.0243381, 2.4705, -0.0351562, 2.4705, -1.0032959, 2.4705, -0.0882568, 2.4705, 0.778626, 2.4705, -1.7862595, 2.4705, -0.3282443
0.2914412, -0.0209812, 2.47725, -0.0357056, 2.47725, -1.0048828, 2.47725, -0.0844116, 2.47725, 0.4122137, 2.47725, -1.2061069, 2.47725, -0.4503817
0.2922353, -0.0159457, 2.484, -0.0449829, 2.484, -1.00354, 2.484, -0.0883789, 2.484, 0.0381679, 2.484, -1.4274809, 2.484, -0.610687
0.2930294, -0.0179599, 2.49075, -0.0456543, 2.49075, -0.9981689, 2.49075, -0.0943604, 2.49075, -0.3129771, 2.49075, -1.7862595, 2.49075, -0.4351145
0.2938235, -0.0169528, 2.4975, -0.0481567, 2.4975, -0.9973145, 2.4975, -0.0918579, 2.4975, -0.4503817, 2.4975, -1.7480916, 2.4975, -0.5954198
0.2946176, -0.0149386, 2.50425, -0.0485229, 2.50425, -1.0040283, 2.50425, -0.0883789, 2.50425, -0.4274809, 2.50425, -1.6870229, 2.50425, -0.6259542
0.2954118, -0.0193027, 2.511, -0.0546265, 2.511, -1.0018921, 2.511, -0.0949707, 2.511, -0.6412213, 2.511, -2.0152671, 2.511, -0.778626
0.2962059, -0.0194705, 2.51775, -0.059021, 2.51775, -1.0042114, 2.51775, -0.0949707, 2.51775, -1.091603, 2.51775, -2.1755726, 2.51775, -0.908397
0.297, -0.0166171, 2.5245, -0.0592651, 2.5245, -1.0084839, 2.5245, -0.0891724, 2.5245, -0.7557252, 2.5245, -2.038168, 2.5245, -0.8320611
0.2977941, -0.0162814, 2.53125, -0.060791, 2.53125, -1.0110474, 2.53125, -0.083374, 2.53125, 0.221374, 2.53125, -2.5267177, 2.53125, -0.7175573
0.2985882, -0.0203098, 2.538, -0.0594482, 2.538, -1.0106812, 2.538, -0.0959473, 2.538, 0.4198473, 2.538, -1.8854961, 2.538, -0.8549618
0.2993824, -0.0157778, 2.54475, -0.0565186, 2.54475, -1.0042114, 2.54475, -0.1053467, 2.54475, 0.2977099, 2.54475, -2.1679389, 2.54475, -0.8320611
0.3001765, -0.012253, 2.5515, -0.0567627, 2.5515, -1.0037842, 2.5515, -0.0969849, 2.5515, 0.1526718, 2.5515, -2.2519083, 2.5515, -0.8396947
0.3009706, -0.0169528, 2.55825, -0.046936, 2.55825, -1.0075073, 2.55825, -0.1057129, 2.55825, -0.3358779, 2.55825, -1.8244275, 2.55825, -1.0229008
0.3017647, -0.0139315, 2.565, -0.038208, 2.565, -1.008606, 2.565, -0.1052246, 2.565, -0.7099237, 2.565, -1.610687, 2.565, -1.0687023
0.3025588, -0.0129244, 2.57175, -0.0373535, 2.57175, -1.0048828, 2.57175, -0.1029663, 2.57175, -0.8931298, 2.57175, -1.0610687, 2.57175, -1.0610687
0.3033529, -0.0139315, 2.5785, -0.0422363, 2.5785, -1.0040894, 2.5785, -0.1134033, 2.5785, -0.8625954, 2.5785, -0.5801527, 2.5785, -1.3053435
0.3041471, -0.0179599, 2.58525, -0.0439453, 2.58525, -1.0039062, 2.58525, -0.1140137, 2.58525, -1.1450381, 2.58525, -0.9770992, 2.58525, -1.4122137
0.3049412, -0.0203098, 2.592, -0.0457764, 2.592, -1.0020142, 2.592, -0.1152344, 2.592, -1.610687, 2.592, -1.2442749, 2.592, -1.5572519
0.3057353, -0.0199741, 2.59875, -0.0437012, 2.59875, -1.0072021, 2.59875, -0.1089478, 2.59875, -1.7938931, 2.59875, -1.3358779, 2.59875, -1.7557251
0.3065294, -0.0203098, 2.6055, -0.0499878, 2.6055, -1.0090942, 2.6055, -0.1071777, 2.6055, -1.5801526, 2.6055, -1.4198474, 2.6055, -1.8549619
0.3073235, -0.0216526, 2.61225, -0.0493774, 2.61225, -1.0097046, 2.61225, -0.1184082, 2.61225, -1.2290076, 2.61225, -1.0152671, 2.61225, -1.8549619
0.3081176, -0.0204776, 2.619, -0.0510254, 2.619, -1.008667, 2.619, -0.118042, 2.619, -0.9923664, 2.619, -1.3206106, 2.619, -2
0.3089118, -0.0223239, 2.62575, -0.0472412, 2.62575, -1.0115356, 2.62575, -0.1079712, 2.62575, -1.0229008, 2.62575, -0.4503817, 2.62575, -2.0458016
0.3097059, -0.0169528, 2.6325, -0.052002, 2.6325, -1.0128784, 2.6325, -0.109314, 2.6325, -0.778626, 2.6325, -0.0839695, 2.6325, -2
0.3105, -0.0166171, 2.63925, -0.0549316, 2.63925, -1.015686, 2.63925, -0.1069336, 2.63925, -0.3282443, 2.63925, -0.2824427, 2.63925, -1.9236641
0.3112941, -0.0176242, 2.646, -0.0531616, 2.646, -1.0126343, 2.646, -0.1121826, 2.646, -0.1984733, 2.646, 0.1068702, 2.646, -2.038168
0.3120882, -0.0117494, 2.65275, -0.0526733, 2.65275, -1.0150757, 2.65275, -0.1123657, 2.65275, -0.3435115, 2.65275, 0.259542, 2.65275, -2.2290077
0.3128824, -0.0095674, 2.6595, -0.0491333, 2.6595, -1.0140991, 2.6595, -0.1105347, 2.6595, -0.0916031, 2.6595, 0.0610687, 2.6595, -2.2900763
0.3136765, -0.0085603, 2.66625, -0.0391846, 2.66625, -1.0074463, 2.66625, -0.1168213, 2.66625, 0.0687023, 2.66625, 0.3587786, 2.66625, -2.4045801
0.3144706, -0.0065461, 2.673, -0.0378418, 2.673, -1.006958, 2.673, -0.1205444, 2.673, -0.3816794, 2.673, 0.6717557, 2.673, -2.5343511
0.3152647, -0.0099031, 2.67975, -0.0353394, 2.67975, -1.006958, 2.67975, -0.1184692, 2.67975, -0.1908397, 2.67975, 1.0458015, 2.67975, -2.4274809
0.3160588, -0.0147707, 2.6865, -0.0297241, 2.6865, -1.0031738, 2.6865, -0.1185913, 2.6865, -0.2977099, 2.6865, 1.6793894, 2.6865, -2.6030533
0.3168529, -0.0125887, 2.69325, -0.0343018, 2.69325, -1.0012207, 2.69325, -0.1164551, 2.69325, -0.6183206, 2.69325, 2.9236641, 2.69325, -2.389313
0.3176471, -0.0125887, 2.7, -0.0428467, 2.7, -1.0009766, 2.7, -0.1092529, 2.7, -0.6412213, 2.7, 3.389313, 2.7, -2.5114503
0.3184412, -0.0179599, 2.70675, -0.0526123, 2.70675, -0.9978027, 2.70675, -0.0994873, 2.70675, -0.3664122, 2.70675, 3.2290077, 2.70675, -2.7328243
0.3192353, -0.0209812, 2.7135, -0.0612183, 2.7135, -0.9977417, 2.7135, -0.0957031, 2.7135, -0.2671756, 2.7135, 2.7022901, 2.7135, -2.8091602
0.3200294, -0.0216526, 2.72025, -0.065979, 2.72025, -1.001709, 2.72025, -0.0927734, 2.72025, -0.5419847, 2.72025, 2.2748091, 2.72025, -3
0.3208235, -0.0182956, 2.727, -0.0640869, 2.727, -0.9987183, 2.727, -0.0893555, 2.727, -0.4427481, 2.727, 1.7557251, 2.727, -2.8091602
0.3216176, -0.0142672, 2.73375, -0.0652466, 2.73375, -0.9934082, 2.73375, -0.0950928, 2.73375, -0.5267175, 2.73375, 0.8473282, 2.73375, -2.9389312
0.3224118, -0.0199741, 2.7405, -0.0647583, 2.7405, -0.9967041, 2.7405, -0.0978394, 2.7405, -0.9847328, 2.7405, 0.8320611, 2.7405, -2.9923663
0.3232059, -0.0199741, 2.74725, -0.0524902, 2.74725, -0.9985352, 2.74725, -0.098938, 2.74725, -1.3664122, 2.74725, 0.5419847, 2.74725, -3.2519083
0.324, -0.0181277, 2.754, -0.0530396, 2.754, -0.9993896, 2.754, -0.0994873, 2.754, -1.6641221, 2.754, 0.870229, 2.754, -3.2977099
0.3247941, -0.0186313, 2.76075, -0.0498047, 2.76075, -0.998291, 2.76075, -0.104248, 2.76075, -1.8015267, 2.76075, 1.1221374, 2.76075, -3.4045801
0.3255882, -0.021149, 2.7675, -0.0497437, 2.7675, -0.9989014, 2.7675, -0.1091919, 2.7675, -2.1068702, 2.7675, 1.1832061, 2.7675, -3.480916
0.3263824, -0.0193027, 2.77425, -0.0478516, 2.77425, -0.9972534, 2.77425, -0.1089478, 2.77425, -2.4122138, 2.77425, 1.4580153, 2.77425, -3.3664122
0.3271765, -0.0162814, 2.781, -0.0465698, 2.781, -1.0026245, 2.781, -0.1134644, 2.781, -2.6717558, 2.781, 1.6030535, 2.781, -3.4503818
0.3279706, -0.0179599, 2.78775, -0.0480957, 2.78775, -1.0045776, 2.78775, -0.1080322, 2.78775, -2.740458, 2.78775, 1.6793894, 2.78775, -3.4045801
0.3287647, -0.0196384, 2.7945, -0.0488892, 2.7945, -1.0007935, 2.7945, -0.1009521, 2.7945, -2.6335878, 2.7945, 1.6030535, 2.7945, -3.480916
0.3295588, -0.01561, 2.80125, -0.0536499, 2.80125, -1.0025024, 2.80125, -0.0996704, 2.80125, -3.0229008, 2.80125, 1.1908396, 2.80125, -3.4503818
0.3303529, -0.012253, 2.808, -0.0565186, 2.808, -1.0085449, 2.808, -0.1011963, 2.808, -3.0534351, 2.808, 0.9770992, 2.808, -3.6030533
0.3311471, -0.0109102, 2.81475, -0.055481, 2.81475, -1.0117798, 2.81475, -0.1013794, 2.81475, -3.1526718, 2.81475, 0.3740458, 2.81475, -3.5572519
0.3319412, -0.0095674, 2.8215, -0.0537109, 2.8215, -1.0117798, 2.8215, -0.0969849, 2.8215, -3.1068702, 2.8215, 0.0076336, 2.8215, -3.9160306
0.3327353, -0.0092317, 2.82825, -0.0524292, 2.82825, -1.0119629, 2.82825, -0.1022339, 2.82825, -3.1450381, 2.82825, -0.6564885, 2.82825, -3.8320611
0.3335294, -0.0109102, 2.835, -0.046814, 2.835, -1.0110474, 2.835, -0.1065063, 2.835, -3.3282442, 2.835, -0.6793893, 2.835, -3.8778627
0.3343235, -0.0099031, 2.84175, -0.046875, 2.84175, -1.0127563, 2.84175, -0.1039429, 2.84175, -3.1450381, 2.84175, -0.3358779, 2.84175, -4.0229006
0.3351176, -0.0102388, 2.8485, -0.0487061, 2.8485, -1.0080566, 2.8485, -0.1021729, 2.8485, -3.6412213, 2.8485, 0.3358779, 2.8485, -3.9389312
0.3359118, -0.0142672, 2.85525, -0.062561, 2.85525, -1.0056763, 2.85525, -0.1057739, 2.85525, -3.5725191, 2.85525, 0.3053435, 2.85525, -3.8396947
0.3367059, -0.0169528, 2.862, -0.0656128, 2.862, -1.0067139, 2.862, -0.1075439, 2.862, -3.4885497, 2.862, -0.3587786, 2.862, -3.9694657
0.3375, -0.0162814, 2.86875, -0.067627, 2.86875, -1.0074463, 2.86875, -0.1049194, 2.86875, -3.7557251, 2.86875, -1.2519084, 2.86875, -4.3435116
0.3382941, -0.0193027, 2.8755, -0.0605469, 2.8755, -1.010437, 2.8755, -0.1074219, 2.8755, -3.5419848, 2.8755, -1.6259542, 2.8755, -4.3206105
0.3390882, -0.0199741, 2.88225, -0.0535889, 2.88225, -1.0055542, 2.88225, -0.1177368, 2.88225, -3.4961832, 2.88225, -1.7480916, 2.88225, -4.2671757
0.3398824, -0.0204776, 2.889, -0.0482178, 2.889, -1.0043945, 2.889, -0.1171265, 2.889, -3.9770992, 2.889, -1.9236641, 2.889, -4.4732823
0.3406765, -0.0179599, 2.89575, -0.0511475, 2.89575, -1.0030518, 2.89575, -0.116333, 2.89575, -3.9160306, 2.89575, -1.6946565, 2.89575, -4.5725193
0.3414706, -0.0209812, 2.9025, -0.0484009, 2.9025, -1.0074463, 2.9025, -0.116394, 2.9025, -3.9312978, 2.9025, -1.7099236, 2.9025, -4.6106873
0.3422647, -0.0236667, 2.90925, -0.050415, 2.90925, -1.0068359, 2.90925, -0.1169434, 2.90925, -3.9541984, 2.90925, -1.4580153, 2.90925, -4.6030536
0.3430588, -0.018967, 2.916, -0.0508423, 2.916, -1.0033569, 2.916, -0.1147461, 2.916, -4.1908398, 2.916, -1.5343511, 2.916, -4.5343513
0.3438529, -0.0172885, 2.92275, -0.050354, 2.92275, -1.0015869, 2.92275, -0.1095581, 2.92275, -4.0229006, 2.92275, -1.610687, 2.92275, -4.519084
0.3446471, -0.0164492, 2.9295, -0.0509033, 2.9295, -1.0030518, 2.9295, -0.1134033, 2.9295, -4.0152674, 2.9295, -1.8167939, 2.9295, -4.5801525
0.3454412, -0.0152743, 2.93625, -0.0489502, 2.93625, -1.0009766, 2.93625, -0.116394, 2.93625, -4.1068702, 2.93625, -2.0687022, 2.93625, -4.5877862
0.3462353, -0.012253, 2.943, -0.0489502, 2.943, -1.0027466, 2.943, -0.1230469, 2.943, -4.1984735, 2.943, -2.2442749, 2.943, -4.7251906
0.3470294, -0.0102388, 2.94975, -0.0458374, 2.94975, -0.9993896, 2.94975, -0.1191406, 2.94975, -4.2671757, 2.94975, -2.4122138, 2.94975, -4.6564884
0.3478235, -0.0075532, 2.9565, -0.0465088, 2.9565, -1.0025024, 2.9565, -0.1258545, 2.9565, -4.1984735, 2.9565, -2.1145039, 2.9565, -4.6870227
0.3486176, -0.005539, 2.96325, -0.0459595, 2.96325, -1.0085449, 2.96325, -0.1271362, 2.96325, -4.2290077, 2.96325, -2.2519083, 2.96325, -4.4656487
0.3494118, -0.0048676, 2.97, -0.0445557, 2.97, -1.0097656, 2.97, -0.1320801, 2.97, -3.9541984, 2.97, -2.7175572, 2.97, -4.5419846
0.3502059, -0.0031891, 2.97675, -0.0361938, 2.97675, -1.0099487, 2.97675, -0.1324463, 2.97675, -3.8854961, 2.97675, -2.7938931, 2.97675, -4.778626
0.351, -0.0082246, 2.9835, -0.0302734, 2.9835, -1.0093994, 2.9835, -0.1282349, 2.9835, -3.7862597, 2.9835, -2.0229008, 2.9835, -4.5496182
0.3517941, -0.0109102, 2.99025, -0.0391235, 2.99025, -1.0095215, 2.99025, -0.1306152, 2.99025, -3.5801528, 2.99025, -1.8167939, 2.99025, -4.4045801
0.3525882, -0.008896, 2.997, -0.0386963, 2.997, -1.0058594, 2.997, -0.1364136, 2.997, -3.5267177, 2.997, -2.3129771, 2.997, -4.6412215
0.3533824, -0.012253, 3.00375, -0.0367432, 3.00375, -1.0080566, 3.00375, -0.135498, 3.00375, -3.5648854, 3.00375, -2.3664122, 3.00375, -4.480916
0.3541765, -0.0182956, 3.0105, -0.0327148, 3.0105, -1.0091553, 3.0105, -0.1253662, 3.0105, -3.3435113, 3.0105, -2.2671757, 3.0105, -4.4961834
0.3549706, -0.0179599, 3.01725, -0.0365601, 3.01725, -1.005249, 3.01725, -0.1255493, 3.01725, -3.1603053, 3.01725, -2.1068702, 3.01725, -4.4351144
0.3557647, -0.0179599, 3.024, -0.0429077, 3.024, -1.0054321, 3.024, -0.1311646, 3.024, -3.221374, 3.024, -2.3587787, 3.024, -4.3206105
0.3565588, -0.0166171, 3.03075, -0.0431519, 3.03075, -1.0043945, 3.03075, -0.1350708, 3.03075, -3.0610688, 3.03075, -2.7022901, 3.03075, -4.5343513
0.3573529, -0.021149, 3.0375, -0.0408325, 3.0375, -1.0028687, 3.0375, -0.137207, 3.0375, -3.0534351, 3.0375, -2.7022901, 3.0375, -4.4274807
0.3581471, -0.0263523, 3.04425, -0.0464478, 3.04425, -1.0026245, 3.04425, -0.1343384, 3.04425, -3.1679389, 3.04425, -2.3282442, 3.04425, -4.5496182
0.3589412, -0.0236667, 3.051, -0.043396, 3.051, -1.003479, 3.051, -0.1353149, 3.051, -2.961832, 3.051, -2.4045801, 3.051, -4.4656487
0.3597353, -0.0229953, 3.05775, -0.0485229, 3.05775, -1.0083008, 3.05775, -0.138855, 3.05775, -2.6717558, 3.05775, -2.519084, 3.05775, -4.6106873
0.3605294, -0.0196384, 3.0645, -0.0500488, 3.0645, -1.008606, 3.0645, -0.1428223, 3.0645, -2.389313, 3.0645, -2.351145, 3.0645, -4.6106873
0.3613235, -0.0159457, 3.07125, -0.0488892, 3.07125, -1.0084839, 3.07125, -0.140564, 3.07125, -2.2977099, 3.07125, -2.5038168, 3.07125, -4.519084
0.3621176, -0.0176242, 3.078, -0.0427246, 3.078, -1.0059204, 3.078, -0.140564, 3.078, -2.2977099, 3.078, -2.2671757, 3.078, -4.5038166
0.3629118, -0.0182956, 3.08475, -0.0413818, 3.08475, -1.0064697, 3.08475, -0.1427612, 3.08475, -2.2442749, 3.08475, -2.2519083, 3.08475, -4.5877862
0.3637059, -0.0134279, 3.0915, -0.0402222, 3.0915, -1.0007324, 3.0915, -0.1361694, 3.0915, -2.1450381, 3.0915, -1.8625954, 3.0915, -4.6488547
0.3645, -0.008896, 3.09825, -0.0453491, 3.09825, -1.0012207, 3.09825, -0.1411133, 3.09825, -2.3435113, 3.09825, -1.7938931, 3.09825, -4.6564884
0.3652941, -0.012253, 3.105, -0.0457764, 3.105, -1.0001831, 3.105, -0.1378174, 3.105, -2.2519083, 3.105, -2.3129771, 3.105, -4.519084
0.3660882, -0.0104067, 3.11175, -0.0465698, 3.11175, -1.0026855, 3.11175, -0.1381836, 3.11175, -2.038168, 3.11175, -2.4580152, 3.11175, -4.778626
0.3668824, -0.0115816, 3.1185, -0.0411987, 3.1185, -1.0060425, 3.1185, -0.135498, 3.1185, -1.8625954, 3.1185, -2.8091602, 3.1185, -4.7557254
0.3676765, -0.0082246, 3.12525, -0.0336914, 3.12525, -1.0117188, 3.12525, -0.135498, 3.12525, -1.7328244, 3.12525, -2.7557251, 3.12525, -4.7938933
0.3684706, -0.0092317, 3.132, -0.0336304, 3.132, -1.0130005, 3.132, -0.1398926, 3.132, -1.5572519, 3.132, -2.3740458, 3.132, -4.7251906
0.3692647, -0.012253, 3.13875, -0.0430908, 3.13875, -1.006958, 3.13875, -0.1433105, 3.13875, -1.5954199, 3.13875, -2.1984732, 3.13875, -4.961832
0.3700588, -0.0140993, 3.1455, -0.0422974, 3.1455, -1.0075073, 3.1455, -0.140625, 3.1455, -1.6793894, 3.1455, -2.1221373, 3.1455, -4.8931298
0.3708529, -0.0125887, 3.15225, -0.0411377, 3.15225, -1.0059814, 3.15225, -0.1340332, 3.15225, -1.610687, 3.15225, -2.1068702, 3.15225, -5.1068702
0.3716471, -0.0129244, 3.159, -0.0359497, 3.159, -1.0050049, 3.159, -0.1330566, 3.159, -1.5114504, 3.159, -2.0152671, 3.159, -4.9083967
0.3724412, -0.0162814, 3.16575, -0.0407715, 3.16575, -1.0042725, 3.16575, -0.1347046, 3.16575, -1.7709924, 3.16575, -1.8778626, 3.16575, -4.8854961
0.3732353, -0.0172885, 3.1725, -0.0450439, 3.1725, -1.0040894, 3.1725, -0.135437, 3.1725, -1.8549619, 3.1725, -1.6870229, 3.1725, -5.0992365
0.3740294, -0.01561, 3.17925, -0.0466919, 3.17925, -1.005127, 3.17925, -0.1340332, 3.17925, -1.8473282, 3.17925, -1.4351145, 3.17925, -5.0687022
0.3748235, -0.0172885, 3.186, -0.0429077, 3.186, -1.0044556, 3.186, -0.128418, 3.186, -1.9923664, 3.186, -0.8931298, 3.186, -5.0610685
0.3756176, -0.0206455, 3.19275, -0.0438843, 3.19275, -1.0024414, 3.19275, -0.1290283, 3.19275, -1.8244275, 3.19275, -0.9923664, 3.19275, -4.9770994
0.3764118, -0.0162814, 3.1995, -0.0440063, 3.1995, -1.0029907, 3.1995, -0.1323242, 3.1995, -1.9312977, 3.1995, -1.1603054, 3.1995, -4.8625956
0.3772059, -0.0135958, 3.20625, -0.0410156, 3.20625, -1.0083008, 3.20625, -0.1309204, 3.20625, -1.8015267, 3.20625, -1.351145, 3.20625, -4.8473282
0.378, -0.0129244, 3.213, -0.0394287, 3.213, -1.0147705, 3.213, -0.1391602, 3.213, -1.5725191, 3.213, -1.5343511, 3.213, -5.0687022
0.3787941, -0.0115816, 3.21975, -0.0317383, 3.21975, -1.0176392, 3.21975, -0.1401978, 3.21975, -1.480916, 3.21975, -1.5801526, 3.21975, -5.1221375
0.3795882, -0.012253, 3.2265, -0.0281372, 3.2265, -1.0167236, 3.2265, -0.1383057, 3.2265, -1.3129771, 3.2265, -1.2977099, 3.2265, -5.0229006
0.3803824, -0.0092317, 3.23325, -0.0286255, 3.23325, -1.0071411, 3.23325, -0.1413574, 3.23325, -1.1679389, 3.23325, -0.8015267, 3.23325, -4.9236641
0.3811765, -0.0092317, 3.24, -0.0368042, 3.24, -1.0075073, 3.24, -0.1419067, 3.24, -1.2137405, 3.24, -0.5038168, 3.24, -5.1603055
0.3819706, -0.0062104, 3.24675, -0.0385742, 3.24675, -1.010376, 3.24675, -0.1399536, 3.24675, -1, 3.24675, -0.3435115, 3.24675, -4.9923663
0.3827647, -0.0072175, 3.2535, -0.0413818, 3.2535, -1.0106201, 3.2535, -0.1436157, 3.2535, -0.6793893, 3.2535, -0.3358779, 3.2535, -5.0839696
0.3835588, -0.0125887, 3.26025, -0.0388794, 3.26025, -1.0048218, 3.26025, -0.1416016, 3.26025, -0.6412213, 3.26025, -0.129771, 3.26025, -4.9847326
0.3843529, -0.0149386, 3.267, -0.0374146, 3.267, -1.0065918, 3.267, -0.1417236, 3.267, -0.4198473, 3.267, -0.1221374, 3.267, -5.0763359
0.3851471, -0.0129244, 3.27375, -0.0400391, 3.27375, -1.0024414, 3.27375, -0.1499023, 3.27375, -0.3740458, 3.27375, -0.1526718, 3.27375, -5.0763359
0.3859412, -0.012253, 3.2805, -0.0391846, 3.2805, -1.012207, 3.2805, -0.1500854, 3.2805, -0.4503817, 3.2805, 0.1984733, 3.2805, -5.1832061
0.3867353, -0.0151064, 3.28725, -0.0335083, 3.28725, -1.0128174, 3.28725, -0.1498413, 3.28725, -0.0687023, 3.28725, 0.4427481, 3.28725, -4.961832
0.3875294, -0.0203098, 3.294, -0.026062, 3.294, -1.0147095, 3.294, -0.1563721, 3.294, 0.1068702, 3.294, 0.9160305, 3.294, -4.8854961
0.3883235, -0.0236667, 3.30075, -0.0222168, 3.30075, -1.0144043, 3.30075, -0.1554565, 3.30075, 0.2442748, 3.30075, 1.4351145, 3.30075, -5.0076337
0.3891176, -0.0256809, 3.3075, -0.015564, 3.3075, -1.0120239, 3.3075, -0.1533813, 3.3075, 0.0916031, 3.3075, 2.129771, 3.3075, -4.7251906
0.3899118, -0.026688, 3.31425, -0.0166016, 3.31425, -1.0101929, 3.31425, -0.1515503, 3.31425, 0.2061069, 3.31425, 2.519084, 3.31425, -4.7022901
0.3907059, -0.0287022, 3.321, -0.0184326, 3.321, -1.0139771, 3.321, -0.1511841, 3.321, 0.4885496, 3.321, 3.0229008, 3.321, -4.7633586
0.3915, -0.0276951, 3.32775, -0.0177002, 3.32775, -1.0093994, 3.32775, -0.1548462, 3.32775, 0.648855, 3.32775, 3.5725191, 3.32775, -4.8549619
0.3922941, -0.0263523, 3.3345, -0.0203247, 3.3345, -1.0027466, 3.3345, -0.1533813, 3.3345, 0.8015267, 3.3345, 3.778626, 3.3345, -4.9083967
0.3930882, -0.0203098, 3.34125, -0.0273438, 3.34125, -0.9956665, 3.34125, -0.1516113, 3.34125, 0.4885496, 3.34125, 4.0534353, 3.34125, -4.9007635
0.3938824, -0.0186313, 3.348, -0.0351562, 3.348, -0.996582, 3.348, -0.1428223, 3.348, 0.5267175, 3.348, 4.3206105, 3.348, -4.9236641
0.3946765, -0.018967, 3.35475, -0.0397949, 3.35475, -1.0013428, 3.35475, -0.1313477, 3.35475, 0.5496183, 3.35475, 4.0229006, 3.35475, -4.9465647
0.3954706, -0.0186313, 3.3615, -0.0435181, 3.3615, -1.0006104, 3.3615, -0.1304932, 3.3615, 1.1755725, 3.3615, 3.8015268, 3.3615, -5.0839696
0.3962647, -0.0135958, 3.36825, -0.0448608, 3.36825, -0.9980469, 3.36825, -0.1309814, 3.36825, 1.1603054, 3.36825, 3.7175572, 3.36825, -4.9007635
0.3970588, -0.0139315, 3.375, -0.0586548, 3.375, -1.0010986, 3.375, -0.1182251, 3.375, 1.1755725, 3.375, 3.2442749, 3.375, -4.8854961
0.3978529, -0.0132601, 3.38175, -0.0594482, 3.38175, -1.0023193, 3.38175, -0.1260986, 3.38175, 2.0458016, 3.38175, 2.7099237, 3.38175, -4.6946564
0.3986471, -0.0105745, 3.3885, -0.0560303, 3.3885, -1.0102539, 3.3885, -0.1294556, 3.3885, 1.5114504, 3.3885, 1.9847329, 3.3885, -4.8854961
0.3994412, -0.0092317, 3.39525, -0.0485229, 3.39525, -1.0120239, 3.39525, -0.1282349, 3.39525, 1.961832, 3.39525, 1.1221374, 3.39525, -4.778626
0.4002353, -0.005539, 3.402, -0.0395508, 3.402, -1.0082397, 3.402, -0.1315918, 3.402, 1.6259542, 3.402, 0.4427481, 3.402, -4.778626
0.4010294, -0.0095674, 3.40875, -0.0308838, 3.40875, -1.0039062, 3.40875, -0.1343994, 3.40875, 1.3282443, 3.40875, 1.0458015, 3.40875, -4.9312978
0.4018235, -0.0127565, 3.4155, -0.0285645, 3.4155, -1.0136719, 3.4155, -0.1355591, 3.4155, 1.1374046, 3.4155, 1.0229008, 3.4155, -4.9465647
0.4026176, -0.0149386, 3.42225, -0.0303955, 3.42225, -1.0119629, 3.42225, -0.1343384, 3.42225, 1.091603, 3.42225, 1.0229008, 3.42225, -5.0152674
0.4034118, -0.0137636, 3.429, -0.0343018, 3.429, -1.0080566, 3.429, -0.1358643, 3.429, 1.0305344, 3.429, 1.0152671, 3.429, -4.9541984
0.4042059, -0.0179599, 3.43575, -0.0341797, 3.43575, -1.0074463, 3.43575, -0.1355591, 3.43575, 0.8854962, 3.43575, 0.1908397, 3.43575, -5.0763359
0.405, -0.0223239, 3.4425, -0.0317383, 3.4425, -1.0065918, 3.4425, -0.1409912, 3.4425, 0.7099237, 3.4425, -0.4885496, 3.4425, -5.2366414
0.4057941, -0.0229953, 3.44925, -0.0302124, 3.44925, -1.0026855, 3.44925, -0.1408691, 3.44925, 0.5267175, 3.44925, -0.5954198, 3.44925, -5.2442746
0.4065882, -0.0203098, 3.456, -0.0290527, 3.456, -1.0026245, 3.456, -0.1361084, 3.456, 0.4427481, 3.456, -0.8167939, 3.456, -5.2290077
0.4073824, -0.0152743, 3.46275, -0.0305176, 3.46275, -1.0026855, 3.46275, -0.135498, 3.46275, 0.3206107, 3.46275, -1.0305344, 3.46275, -5.0916033
0.4081765, -0.0172885, 3.4695, -0.0349121, 3.4695, -0.9996338, 3.4695, -0.1372681, 3.4695, 0.129771, 3.4695, -1.0152671, 3.4695, -5.0076337
0.4089706, -0.0208133, 3.47625, -0.0339355, 3.47625, -0.9995117, 3.47625, -0.1375122, 3.47625, 0.1603053, 3.47625, -1.4580153, 3.47625, -5.1068702
0.4097647, -0.018967, 3.483, -0.0345459, 3.483, -0.9989624, 3.483, -0.1328125, 3.483, 0.4045801, 3.483, -1.8473282, 3.483, -5.1297708
0.4105588, -0.0176242, 3.48975, -0.0336914, 3.48975, -0.9987183, 3.48975, -0.1389771, 3.48975, -0.0076336, 3.48975, -2.0305343, 3.48975, -5.0763359
0.4113529, -0.01561, 3.4965, -0.0327759, 3.4965, -1.0053711, 3.4965, -0.1430054, 3.4965, 0.0381679, 3.4965, -2.4274809, 3.4965, -4.9770994
0.4121471, -0.018967, 3.50325, -0.0308228, 3.50325, -1.0085449, 3.50325, -0.1417847, 3.50325, 0.0839695, 3.50325, -2.6412213, 3.50325, -5.0992365
0.4129412, -0.0182956, 3.51, -0.0267944, 3.51, -1.0067749, 3.51, -0.1464844, 3.51, 0.1755725, 3.51, -2.6564887, 3.51, -4.9541984
0.4137353, -0.0162814, 3.51675, -0.0202637, 3.51675, -1.0073242, 3.51675, -0.1473389, 3.51675, 0.1068702, 3.51675, -2.6335878, 3.51675, -4.8625956
0.4145294, -0.0132601, 3.5235, -0.0193481, 3.5235, -1.0073242, 3.5235, -0.1503906, 3.5235, 0.1526718, 3.5235, -2.5267177, 3.5235, -4.7938933
0.4153235, -0.0117494, 3.53025, -0.0185547, 3.53025, -1.0064697, 3.53025, -0.1503296, 3.53025, -0.2519084, 3.53025, -2.3129771, 3.53025, -4.7938933
0.4161176, -0.0109102, 3.537, -0.019104, 3.537, -1.0062256, 3.537, -0.152771, 3.537, -0.0687023, 3.537, -2.1145039, 3.537, -4.8778625
0.4169118, -0.0082246, 3.54375, -0.019104, 3.54375, -1.0062256, 3.54375, -0.1506348, 3.54375, 0.0458015, 3.54375, -1.740458, 3.54375, -4.8320613
0.4177059, -0.0085603, 3.5505, -0.0216064, 3.5505, -1.0084229, 3.5505, -0.1500244, 3.5505, 0.129771, 3.5505, -1.7022901, 3.5505, -4.8167939
0.4185, -0.0114137, 3.55725, -0.020813, 3.55725, -1.0109863, 3.55725, -0.1552124, 3.55725, 0.3282443, 3.55725, -1.7938931, 3.55725, -4.8396945
0.4192941, -0.0135958, 3.564, -0.0212402, 3.564, -1.0090332, 3.564, -0.1588745, 3.564, 0.4656489, 3.564, -1.5038168, 3.564, -4.8549619
0.4200882, -0.0164492, 3.57075, -0.0214844, 3.57075, -1.006958, 3.57075, -0.1589966, 3.57075, 0.5343512, 3.57075, -1.1526718, 3.57075, -4.7938933
0.4208824, -0.0176242, 3.5775, -0.0239868, 3.5775, -1.0096436, 3.5775, -0.1569214, 3.5775, 0.5572519, 3.5775, -0.519084, 3.5775, -4.6946564
0.4216765, -0.0213169, 3.58425, -0.0214844, 3.58425, -1.0094604, 3.58425, -0.1563721, 3.58425, 0.5877863, 3.58425, -0.4198473, 3.58425, -4.4351144
0.4224706, -0.0251774, 3.591, -0.024353, 3.591, -1.0117798, 3.591, -0.1520386, 3.591, 0.6793893, 3.591, -0.3740458, 3.591, -4.4961834
0.4232647, -0.0243381, 3.59775, -0.0261841, 3.59775, -1.0132446, 3.59775, -0.1480713, 3.59775, 0.6641222, 3.59775, -0.4732825, 3.59775, -4.4732823
0.4240588, -0.0253452, 3.6045, -0.0258789, 3.6045, -1.0118408, 3.6045, -0.1427002, 3.6045, 0.7938932, 3.6045, -0.4274809, 3.6045, -4.4961834
0.4248529, -0.0196384, 3.61125, -0.0245972, 3.61125, -1.0112305, 3.61125, -0.1415405, 3.61125, 1.0763359, 3.61125, -0.6183206, 3.61125, -4.480916
0.4256471, -0.0182956, 3.618, -0.0250854, 3.618, -1.0095825, 3.618, -0.1397095, 3.618, 0.8320611, 3.618, -0.8396947, 3.618, -4.7022901
0.4264412, -0.0159457, 3.62475, -0.026062, 3.62475, -1.0092773, 3.62475, -0.1367798, 3.62475, 0.9312977, 3.62475, -1.1832061, 3.62475, -4.5801525
0.4272353, -0.0146029, 3.6315, -0.0280151, 3.6315, -1.0056152, 3.6315, -0.1414185, 3.6315, 1.2061069, 3.6315, -1.2137405, 3.6315, -4.6183205
0.4280294, -0.0125887, 3.63825, -0.0268555, 3.63825, -1.0006104, 3.63825, -0.1470947, 3.63825, 0.9541985, 3.63825, -1.3358779, 3.63825, -4.7099237
0.4288235, -0.0068818, 3.645, -0.0252686, 3.645, -0.996521, 3.645, -0.147522, 3.645, 0.7328244, 3.645, -1.5877863, 3.645, -4.8167939
0.4296176, -0.0068818, 3.65175, -0.0229492, 3.65175, -0.9923706, 3.65175, -0.147644, 3.65175, 0.5648855, 3.65175, -1.2137405, 3.65175, -4.8091602
0.4304118, -0.0099031, 3.6585, -0.022644, 3.6585, -0.9897461, 3.6585, -0.1481323, 3.6585, 0.4198473, 3.6585, -0.6641222, 3.6585, -4.6183205
0.4312059, -0.0082246, 3.66525, -0.0221558, 3.66525, -0.9919434, 3.66525, -0.144165, 3.66525, 0.3053435, 3.66525, -0.3358779, 3.66525, -4.6564884
0.432, -0.0095674, 3.672, -0.0246582, 3.672, -0.9941406, 3.672, -0.1453247, 3.672, 0.3358779, 3.672, -0.1603053, 3.672, -4.6946564
0.4327941, -0.0115816, 3.67875, -0.0228271, 3.67875, -0.9942627, 3.67875, -0.1517334, 3.67875, 0.2061069, 3.67875, 0.0152672, 3.67875, -4.5496182
0.4335882, -0.0085603, 3.6855, -0.0233765, 3.6855, -0.9984131, 3.6855, -0.1464233, 3.6855, -0.2061069, 3.6855, 0.4503817, 3.6855, -4.519084
0.4343824, -0.0078889, 3.69225, -0.0150757, 3.69225, -1.0054321, 3.69225, -0.1318359, 3.69225, -0.3664122, 3.69225, 1.351145, 3.69225, -4.1832061
0.4351765, -0.0115816, 3.699, -0.0153809, 3.699, -1.0135498, 3.699, -0.1209106, 3.699, 0.5572519, 3.699, 3.221374, 3.699, -3.961832
0.4359706, -0.0129244, 3.70575, -0.0165405, 3.70575, -1.0159302, 3.70575, -0.1219482, 3.70575, 0.7175573, 3.70575, 3.259542, 3.70575, -3.9236641
0.4367647, -0.0154421, 3.7125, -0.0280762, 3.7125, -1.0177002, 3.7125, -0.1229858, 3.7125, 1.091603, 3.7125, 2.7862597, 3.7125, -3.9541984
0.4375588, -0.0149386, 3.71925, -0.0341797, 3.71925, -1.0168457, 3.71925, -0.1287231, 3.71925, 1.5114504, 3.71925, 1.5954199, 3.71925, -4.221374
0.4383529, -0.0139315, 3.726, -0.024353, 3.726, -1.0154419, 3.726, -0.1282959, 3.726, 1.4885496, 3.726, 0.1374046, 3.726, -4.1755724
0.4391471, -0.0125887, 3.73275, -0.0195923, 3.73275, -1.019165, 3.73275, -0.1235962, 3.73275, 1.4885496, 3.73275, -0.3969466, 3.73275, -4.3129773
0.4399412, -0.018967, 3.7395, -0.0211792, 3.7395, -1.0212402, 3.7395, -0.1307373, 3.7395, 1.5954199, 3.7395, -0.5648855, 3.7395, -4.3129773
0.4407353, -0.0221561, 3.74625, -0.0239868, 3.74625, -1.022644, 3.74625, -0.1379395, 3.74625, 1.259542, 3.74625, -1.1603054, 3.74625, -4.4198475
0.4415294, -0.0216526, 3.753, -0.0254517, 3.753, -1.0217896, 3.753, -0.1361084, 3.753, 1.0229008, 3.753, -1.3435115, 3.753, -4.4580154
0.4423235, -0.0240024, 3.75975, -0.0229492, 3.75975, -1.0210571, 3.75975, -0.133667, 3.75975, 1.091603, 3.75975, -1.3206106, 3.75975, -4.7099237
0.4431176, -0.0196384, 3.7665, -0.0237427, 3.7665, -1.0179443, 3.7665, -0.1395874, 3.7665, 1.259542, 3.7665, -1.1374046, 3.7665, -4.7099237
0.4439118, -0.0186313, 3.77325, -0.0237427, 3.77325, -1.0109863, 3.77325, -0.1417236, 3.77325, 1.0687023, 3.77325, -0.7557252, 3.77325, -4.7251906
0.4447059, -0.0198062, 3.78, -0.0251465, 3.78, -1.007019, 3.78, -0.1434937, 3.78, 0.9541985, 3.78, 0.1679389, 3.78, -4.6793895
0.4455, -0.0193027, 3.78675, -0.0278931, 3.78675, -1.0029297, 3.78675, -0.1415405, 3.78675, 0.9847328, 3.78675, 0.740458, 3.78675, -4.5572519
0.4462941, -0.0196384, 3.7935, -0.0379639, 3.7935, -1.0012817, 3.7935, -0.1373901, 3.7935, 0.740458, 3.7935, 1.0229008, 3.7935, -4.778626
0.4470882, -0.0203098, 3.80025, -0.0401611, 3.80025, -0.9963379, 3.80025, -0.1361084, 3.80025, 0.7175573, 3.80025, 0.9694657, 3.80025, -4.7557254
0.4478824, -0.0186313, 3.807, -0.0419312, 3.807, -0.9971924, 3.807, -0.1369019, 3.807, 0.5801527, 3.807, 0.1450382, 3.807, -5.0076337
0.4486765, -0.0140993, 3.81375, -0.0386963, 3.81375, -0.9970703, 3.81375, -0.1307983, 3.81375, 0.5419847, 3.81375, -0.6335878, 3.81375, -4.9465647
0.4494706, -0.0135958, 3.8205, -0.0342407, 3.8205, -0.9974976, 3.8205, -0.1340332, 3.8205, 0.610687, 3.8205, -0.9007633, 3.8205, -4.8931298
0.4502647, -0.0139315, 3.82725, -0.0241089, 3.82725, -0.9984131, 3.82725, -0.137085, 3.82725, 0.480916, 3.82725, -1.3816794, 3.82725, -5.0076337
0.4510588, -0.0099031, 3.834, -0.0178833, 3.834, -1.0015259, 3.834, -0.1399536, 3.834, 0.5419847, 3.834, -1.7099236, 3.834, -5.3587785
0.4518529, -0.0085603, 3.84075, -0.0174561, 3.84075, -0.9991455, 3.84075, -0.1391602, 3.84075, 0.4503817, 3.84075, -1.6183206, 3.84075, -5.1297708
0.4526471, -0.0092317, 3.8475, -0.0218506, 3.8475, -1.0012817, 3.8475, -0.1351318, 3.8475, 0.3053435, 3.8475, -1.6412214, 3.8475, -5.0839696
0.4534412, -0.0077211, 3.85425, -0.0218506, 3.85425, -1.0073242, 3.85425, -0.1379395, 3.85425, 0.2900763, 3.85425, -2.2137403, 3.85425, -5.1679387
0.4542353, -0.0082246, 3.861, -0.0251465, 3.861, -1.0078125, 3.861, -0.1374512, 3.861, 0.1984733, 3.861, -2.4427481, 3.861, -5.0916033
0.4550294, -0.0102388, 3.86775, -0.0228271, 3.86775, -1.0065918, 3.86775, -0.1382446, 3.86775, 0, 3.86775, -2.5801528, 3.86775, -5.3129773
0.4558235, -0.01561, 3.8745, -0.022583, 3.8745, -1.0078735, 3.8745, -0.1368408, 3.8745, -0.0152672, 3.8745, -2.8320611, 3.8745, -5.1908398
0.4566176, -0.0206455, 3.88125, -0.024353, 3.88125, -1.0119019, 3.88125, -0.1411133, 3.88125, 0.1908397, 3.88125, -2.8091602, 3.88125, -5.1908398
0.4574118, -0.0238346, 3.888, -0.0186157, 3.888, -1.0146484, 3.888, -0.1416626, 3.888, -0.0305344, 3.888, -2.778626, 3.888, -5.1374044
0.4582059, -0.0203098, 3.89475, -0.0128784, 3.89475, -1.0150757, 3.89475, -0.1397095, 3.89475, -0.0458015, 3.89475, -2.6412213, 3.89475, -5.1068702
0.459, -0.0172885, 3.9015, -0.0122681, 3.9015, -1.0166016, 3.9015, -0.1420898, 3.9015, -0.0076336, 3.9015, -2.1374047, 3.9015, -4.9694657
0.4597941, -0.0176242, 3.90825, -0.0087891, 3.90825, -1.0159912, 3.90825, -0.1432495, 3.90825, -0.1221374, 3.90825, -1.5877863, 3.90825, -4.8778625
0.4605882, -0.0137636, 3.915, -0.0063477, 3.915, -1.0110474, 3.915, -0.1480713, 3.915, -0.0992366, 3.915, -0.908397, 3.915, -4.8396945
0.4613824, -0.0154421, 3.92175, -0.0071411, 3.92175, -1.0090332, 3.92175, -0.1506958, 3.92175, 0.0152672, 3.92175, -0.2824427, 3.92175, -4.7709923
0.4621765, -0.014435, 3.9285, -0.0080566, 3.9285, -1.0092773, 3.9285, -0.1409912, 3.9285, 0.1603053, 3.9285, 0.3435115, 3.9285, -4.6564884
0.4629706, -0.0102388, 3.93525, -0.0110474, 3.93525, -1.0049438, 3.93525, -0.1370239, 3.93525, 0.3435115, 3.93525, 1.0992366, 3.93525, -4.6030536
0.4637647, -0.011078, 3.942, -0.0125122, 3.942, -1.0043945, 3.942, -0.1401367, 3.942, 0.3206107, 3.942, 1.0305344, 3.942, -4.519084
0.4645588, -0.0117494, 3.94875, -0.0181885, 3.94875, -1.0084839, 3.94875, -0.1381836, 3.94875, 0.5572519, 3.94875, 0.8320611, 3.94875, -4.6717558
0.4653529, -0.0082246, 3.9555, -0.0179443, 3.9555, -1.0033569, 3.9555, -0.1367188, 3.9555, 0.5801527, 3.9555, 0.610687, 3.9555, -4.5572519
0.4661471, -0.0102388, 3.96225, -0.0186157, 3.96225, -1.0047607, 3.96225, -0.1351929, 3.96225, 0.6183206, 3.96225, 0.3053435, 3.96225, -4.3587785
0.4669412, -0.0109102, 3.969, -0.020874, 3.969, -1.0072632, 3.969, -0.1352539, 3.969, 0.6412213, 3.969, 0.0610687, 3.969, -4.5267177
0.4677353, -0.0102388, 3.97575, -0.0151367, 3.97575, -1.0096436, 3.97575, -0.1395874, 3.97575, 0.778626, 3.97575, -0.1603053, 3.97575, -4.4122138
0.4685294, -0.0135958, 3.9825, -0.0130005, 3.9825, -1.0018311, 3.9825, -0.1394043, 3.9825, 0.648855, 3.9825, -0.480916, 3.9825, -4.7328243
0.4693235, -0.011078, 3.98925, -0.012085, 3.98925, -1.0026245, 3.98925, -0.1386108, 3.98925, 0.4732825, 3.98925, -0.5267175, 3.98925, -4.5038166
0.4701176, -0.0129244, 3.996, -0.0167847, 3.996, -1.0046387, 3.996, -0.1376953, 3.996, 0.4732825, 3.996, -0.0610687, 3.996, -4.6030536
0.4709118, -0.0208133, 4.00275, -0.0206909, 4.00275, -1.0054932, 4.00275, -0.1399536, 4.00275, 0.5343512, 4.00275, 0.4503817, 4.00275, -4.5877862
0.4717059, -0.0193027, 4.0095, -0.022583, 4.0095, -1.0045166, 4.0095, -0.1399536, 4.0095, 0.4427481, 4.0095, 0.7480916, 4.0095, -4.5114503
0.4725, -0.0196384, 4.01625, -0.0255127, 4.01625, -1.0042725, 4.01625, -0.140625, 4.01625, 0.2519084, 4.01625, 0.6259542, 4.01625, -4.4274807
0.4732941, -0.0176242, 4.023, -0.024231, 4.023, -1.0048828, 4.023, -0.1384277, 4.023, 0.2824427, 4.023, 0.5267175, 4.023, -4.5801525
0.4740882, -0.023331, 4.02975, -0.022644, 4.02975, -1.0062256, 4.02975, -0.1393433, 4.02975, 0.259542, 4.02975, 0.4274809, 4.02975, -4.4961834
0.4748824, -0.0256809, 4.0365, -0.0187988, 4.0365, -1.0084229, 4.0365, -0.1408081, 4.0365, 0.0534351, 4.0365, 0.1984733, 4.0365, -4.5267177
0.4756765, -0.0216526, 4.04325, -0.0170288, 4.04325, -1.0078125, 4.04325, -0.1403198, 4.04325, -0.0305344, 4.04325, 0.3282443, 4.04325, -4.5419846
0.4764706, -0.0209812, 4.05, -0.0183105, 4.05, -1.006897, 4.05, -0.1386108, 4.05, 0.1068702, 4.05, 0.2900763, 4.05, -4.6488547
0.4772647, -0.0198062, 4.05675, -0.0189209, 4.05675, -1.0077515, 4.05675, -0.1413574, 4.05675, -0.1068702, 4.05675, 0.4961832, 4.05675, -4.5648856
0.4780588, -0.0169528, 4.0635, -0.0175781, 4.0635, -1.005127, 4.0635, -0.1395264, 4.0635, -0.1832061, 4.0635, 0.4198473, 4.0635, -4.6793895
0.4788529, -0.0154421, 4.07025, -0.0171509, 4.07025, -1.0047607, 4.07025, -0.1407471, 4.07025, -0.2977099, 4.07025, 0.0610687, 4.07025, -4.6335878
0.4796471, -0.0149386, 4.077, -0.0143433, 4.077, -1.005188, 4.077, -0.1439819, 4.077, -0.3587786, 4.077, 0.0916031, 4.077, -4.6564884
0.4804412, -0.012253, 4.08375, -0.0119629, 4.08375, -1.0059204, 4.08375, -0.140686, 4.08375, -0.351145, 4.08375, 0, 4.08375, -4.6717558
0.4812353, -0.0124208, 4.0905, -0.0085449, 4.0905, -1.0056152, 4.0905, -0.1404419, 4.0905, -0.648855, 4.0905, -0.1755725, 4.0905, -4.5801525
0.4820294, -0.0068818, 4.09725, -0.0115967, 4.09725, -1.0043945, 4.09725, -0.1416016, 4.09725, -0.7862595, 4.09725, 0.1068702, 4.09725, -4.6793895
0.4828235, -0.0109102, 4.104, -0.0148315, 4.104, -1.0010986, 4.104, -0.1402588, 4.104, -0.8015267, 4.104, 0.0305344, 4.104, -4.5572519
0.4836176, -0.012253, 4.11075, -0.0166626, 4.11075, -1.0037842, 4.11075, -0.1420288, 4.11075, -0.9541985, 4.11075, -0.5114504, 4.11075, -4.6335878
0.4844118, -0.0130922, 4.1175, -0.0166626, 4.1175, -1.0070801, 4.1175, -0.1414795, 4.1175, -0.9770992, 4.1175, -0.8167939, 4.1175, -4.8396945
0.4852059, -0.0135958, 4.12425, -0.0150146, 4.12425, -1.0067749, 4.12425, -0.142395, 4.12425, -0.9541985, 4.12425, -1.2061069, 4.12425, -4.6412215
0.486, -0.0099031, 4.131, -0.0134888, 4.131, -1.0049438, 4.131, -0.1427612, 4.131, -1.0229008, 4.131, -1.0152671, 4.131, -4.6564884
0.4867941, -0.0077211, 4.13775, -0.0084839, 4.13775, -1.0045166, 4.13775, -0.1421509, 4.13775, -1.129771, 4.13775, -0.9007633, 4.13775, -4.8167939
0.4875882, -0.0115816, 4.1445, -0.0073853, 4.1445, -1.0045776, 4.1445, -0.1434326, 4.1445, -1.0992366, 4.1445, -0.4427481, 4.1445, -4.519084
0.4883824, -0.0129244, 4.15125, -0.0073242, 4.15125, -1.0072632, 4.15125, -0.1464233, 4.15125, -1.2442749, 4.15125, -0.5267175, 4.15125, -4.5343513
0.4891765, -0.01561, 4.158, -0.0101929, 4.158, -1.0027466, 4.158, -0.1437378, 4.158, -1.3358779, 4.158, -0.1450382, 4.158, -4.5419846
0.4899706, -0.0179599, 4.16475, -0.0127563, 4.16475, -1.0010986, 4.16475, -0.1436768, 4.16475, -1.6564885, 4.16475, -0.0076336, 4.16475, -4.3969464
0.4907647, -0.0203098, 4.1715, -0.0122681, 4.1715, -1.0039062, 4.1715, -0.1420898, 4.1715, -1.5954199, 4.1715, -0.0458015, 4.1715, -4.4122138
0.4915588, -0.0171206, 4.17825, -0.008606, 4.17825, -1.003418, 4.17825, -0.1480713, 4.17825, -1.3053435, 4.17825, -0.0152672, 4.17825, -4.4045801
0.4923529, -0.0176242, 4.185, -0.0073853, 4.185, -1.005127, 4.185, -0.1486206, 4.185, -1.6259542, 4.185, -0.1984733, 4.185, -4.3740458
0.4931471, -0.0203098, 4.19175, -0.008728, 4.19175, -1.0047607, 4.19175, -0.1513062, 4.19175, -1.6259542, 4.19175, 0.0916031, 4.19175, -4.4274807
0.4939412, -0.0166171, 4.1985, -0.0080566, 4.1985, -1.0056763, 4.1985, -0.1538086, 4.1985, -1.4885496, 4.1985, 0.2519084, 4.1985, -4.3435116
0.4947353, -0.0162814, 4.20525, -0.0072021, 4.20525, -1.0076294, 4.20525, -0.1524048, 4.20525, -1.5648855, 4.20525, 0.389313, 4.20525, -4.1603055
0.4955294, -0.0164492, 4.212, -0.0081177, 4.212, -1.0053711, 4.212, -0.1514282, 4.212, -1.4427481, 4.212, 0.4427481, 4.212, -4.1603055
0.4963235, -0.0152743, 4.21875, -0.0048218, 4.21875, -1.0076294, 4.21875, -0.1571655, 4.21875, -1.3816794, 4.21875, 0.4732825, 4.21875, -4.2137403
0.4971176, -0.0142672, 4.2255, -0.0057983, 4.2255, -1.0090942, 4.2255, -0.1560059, 4.2255, -1.1603054, 4.2255, 0.7022901, 4.2255, -4.2519083
0.4979118, -0.0119173, 4.23225, -0.0067749, 4.23225, -1.0094604, 4.23225, -0.1539307, 4.23225, -1.2290076, 4.23225, 0.8778626, 4.23225, -4.2977099
0.4987059, -0.0082246, 4.239, -0.0100708, 4.239, -1.0050049, 4.239, -0.1550903, 4.239, -0.9923664, 4.239, 1.2824427, 4.239, -4.0687022
0.4995, -0.0085603, 4.24575, -0.0081177, 4.24575, -1.0032349, 4.24575, -0.1547852, 4.24575, -1.1145039, 4.24575, 1.5343511, 4.24575, -4.0229006
0.5002941, -0.0065461, 4.2525, -0.0067139, 4.2525, -1.0033569, 4.2525, -0.1585083, 4.2525, -0.961832, 4.2525, 1.4427481, 4.2525, -4.1679387
0.5010882, -0.0072175, 4.25925, -0.0071411, 4.25925, -1.0016479, 4.25925, -0.1610718, 4.25925, -1.0305344, 4.25925, 1.4427481, 4.25925, -4
0.5018824, -0.0087282, 4.266, -0.0056152, 4.266, -1.0020752, 4.266, -0.1589355, 4.266, -0.8244275, 4.266, 1.5267175, 4.266, -4.0229006
0.5026765, -0.0085603, 4.27275, -0.0099487, 4.27275, -1.0054321, 4.27275, -0.1585693, 4.27275, -0.6717557, 4.27275, 1.8396946, 4.27275, -3.9541984
0.5034706, -0.0072175, 4.2795, -0.0106201, 4.2795, -1.006958, 4.2795, -0.1620483, 4.2795, -0.8015267, 4.2795, 1.908397, 4.2795, -3.8854961
0.5042647, -0.0146029, 4.28625, -0.0090942, 4.28625, -1.0055542, 4.28625, -0.1591797, 4.28625, -0.778626, 4.28625, 1.9236641, 4.28625, -3.9465649
0.5050588, -0.0162814, 4.293, -0.010498, 4.293, -1.0031128, 4.293, -0.1594849, 4.293, -0.8015267, 4.293, 1.7480916, 4.293, -3.9694657
0.5058529, -0.0151064, 4.29975, -0.0100098, 4.29975, -1.0046387, 4.29975, -0.1595459, 4.29975, -0.6946565, 4.29975, 1.6564885, 4.29975, -3.8854961
0.5066471, -0.023331, 4.3065, -0.0120239, 4.3065, -1.0057373, 4.3065, -0.1606445, 4.3065, -0.4122137, 4.3065, 1.8091604, 4.3065, -3.9770992
0.5074412, -0.0229953, 4.31325, -0.0100708, 4.31325, -1.0036621, 4.31325, -0.1582642, 4.31325, -0.3053435, 4.31325, 1.5114504, 4.31325, -3.9312978
0.5082353, -0.023331, 4.32, -0.0063477, 4.32, -1.0015259, 4.32, -0.1588745, 4.32, -0.2061069, 4.32, 1.3053435, 4.32, -3.8396947
0.5090294, -0.0238346, 4.32675, -0.0079346, 4.32675, -1.0014648, 4.32675, -0.1591797, 4.32675, -0.2519084, 4.32675, 1.4427481, 4.32675, -3.870229
0.5098235, -0.0209812, 4.3335, -0.008606, 4.3335, -1.0018311, 4.3335, -0.15979, 4.3335, -0.2442748, 4.3335, 1.5267175, 4.3335, -3.8167939
0.5106176, -0.0216526, 4.34025, -0.0073242, 4.34025, -1.0064697, 4.34025, -0.1568604, 4.34025, -0.129771, 4.34025, 1.7022901, 4.34025, -3.9160306
0.5114118, -0.018967, 4.347, -0.0098877, 4.347, -1.0067139, 4.347, -0.1585083, 4.347, 0.0610687, 4.347, 1.4503816, 4.347, -3.8244274
0.5122059, -0.0157778, 4.35375, -0.0062866, 4.35375, -1.0015869, 4.35375, -0.1590576, 4.35375, -0.0305344, 4.35375, 1.2671756, 4.35375, -3.8091602
0.513, -0.0105745, 4.3605, -0.0079346, 4.3605, -1.0020752, 4.3605, -0.1578979, 4.3605, -0.0381679, 4.3605, 1.2824427, 4.3605, -3.8549619
0.5137941, -0.0115816, 4.36725, -0.0068359, 4.36725, -1.0023804, 4.36725, -0.1574097, 4.36725, 0.1374046, 4.36725, 1.4198474, 4.36725, -3.8015268
0.5145882, -0.0104067, 4.374, -0.0100708, 4.374, -1.0032349, 4.374, -0.1550293, 4.374, 0.0458015, 4.374, 1.3358779, 4.374, -3.8015268
0.5153824, -0.0139315, 4.38075, -0.0129395, 4.38075, -1.0072021, 4.38075, -0.1514893, 4.38075, 0.1908397, 4.38075, 1.1679389, 4.38075, -3.9770992
0.5161765, -0.0135958, 4.3875, -0.0131226, 4.3875, -1.0029907, 4.3875, -0.1498413, 4.3875, 0.2061069, 4.3875, 1.1984733, 4.3875, -3.9770992
0.5169706, -0.0139315, 4.39425, -0.0122681, 4.39425, -1.0021362, 4.39425, -0.1509399, 4.39425, 0.1755725, 4.39425, 0.8091603, 4.39425, -3.8396947
0.5177647, -0.0146029, 4.401, -0.006897, 4.401, -1.0065308, 4.401, -0.1508179, 4.401, 0.0916031, 4.401, 1.0458015, 4.401, -3.9465649
0.5185588, -0.0109102, 4.40775, -0.0064697, 4.40775, -1.0053101, 4.40775, -0.1513062, 4.40775, 0.0763359, 4.40775, 0.7862595, 4.40775, -3.7938931
0.5193529, -0.0115816, 4.4145, -0.0045166, 4.4145, -1.0056152, 4.4145, -0.1505737, 4.4145, 0.0916031, 4.4145, 0.8244275, 4.4145, -3.740458
0.5201471, -0.0184634, 4.42125, -0.0067749, 4.42125, -1.0050049, 4.42125, -0.1536255, 4.42125, 0.1908397, 4.42125, 1.0687023, 4.42125, -3.8778627
0.5209412, -0.0240024, 4.428, -0.0057373, 4.428, -1.0063477, 4.428, -0.1577148, 4.428, 0.1450382, 4.428, 1.1145039, 4.428, -3.7633588
0.5217353, -0.0256809, 4.43475, -0.0088501, 4.43475, -1.003418, 4.43475, -0.1552734, 4.43475, 0.0839695, 4.43475, 1.1145039, 4.43475, -3.5954199
0.5225294, -0.0238346, 4.4415, -0.0117188, 4.4415, -1.0046387, 4.4415, -0.1537476, 4.4415, 0.1984733, 4.4415, 1.0992366, 4.4415, -3.6412213
0.5233235, -0.0250095, 4.44825, -0.0078125, 4.44825, -1.0053101, 4.44825, -0.1585693, 4.44825, 0.1450382, 4.44825, 1.0076336, 4.44825, -3.6793892
0.5241176, -0.0263523, 4.455, -0.010498, 4.455, -1.0060425, 4.455, -0.1571045, 4.455, 0.0381679, 4.455, 0.8473282, 4.455, -3.8015268
0.5249118, -0.0290379, 4.46175, -0.0054932, 4.46175, -1.0040894, 4.46175, -0.1601562, 4.46175, 0.1526718, 4.46175, 0.870229, 4.46175, -3.8015268
0.5257059, -0.0253452, 4.4685, -0.0043335, 4.4685, -1.0057373, 4.4685, -0.1600342, 4.4685, 0.2748092, 4.4685, 0.8778626, 4.4685, -3.7557251
0.5265, -0.0223239, 4.47525, -0.0044556, 4.47525, -1.0038452, 4.47525, -0.1641846, 4.47525, 0.129771, 4.47525, 1.0534351, 4.47525, -3.6412213
0.5272941, -0.0172885, 4.482, -0.0037842, 4.482, -1.0045776, 4.482, -0.1630859, 4.482, 0.0687023, 4.482, 1.0229008, 4.482, -3.5267177
0.5280882, -0.0162814, 4.48875, -0.0055542, 4.48875, -1.0025635, 4.48875, -0.1611938, 4.48875, 0.1374046, 4.48875, 1.2671756, 4.48875, -3.6564887
0.5288824, -0.0186313, 4.4955, -0.007019, 4.4955, -1.0003662, 4.4955, -0.161377, 4.4955, 0.1679389, 4.4955, 1.1526718, 4.4955, -3.5572519
0.5296765, -0.0152743, 4.50225, -0.008728, 4.50225, -1.0047607, 4.50225, -0.1602173, 4.50225, 0.2366412, 4.50225, 1.2671756, 4.50225, -3.5877862
0.5304706, -0.0139315, 4.509, -0.0093994, 4.509, -1.0059814, 4.509, -0.1587524, 4.509, 0.259542, 4.509, 1.4045801, 4.509, -3.7099237
0.5312647, -0.0129244, 4.51575, -0.0093384, 4.51575, -1.003479, 4.51575, -0.15979, 4.51575, 0.2824427, 4.51575, 1.3816794, 4.51575, -3.6412213
0.5320588, -0.0083925, 4.5225, -0.0081177, 4.5225, -1.0043945, 4.5225, -0.1589355, 4.5225, 0.2748092, 4.5225, 1.3816794, 4.5225, -3.5038168
0.5328529, -0.008896, 4.52925, -0.0064087, 4.52925, -1.0042725, 4.52925, -0.1609497, 4.52925, 0.3129771, 4.52925, 1.4580153, 4.52925, -3.5343511
0.5336471, -0.0090639, 4.536, -0.0095215, 4.536, -1.007019, 4.536, -0.1568604, 4.536, 0.2519084, 4.536, 1.1984733, 4.536, -3.4427481
0.5344412, -0.0109102, 4.54275, -0.0072632, 4.54275, -1.0097656, 4.54275, -0.1549072, 4.54275, 0.3358779, 4.54275, 1.038168, 4.54275, -3.5038168
0.5352353, -0.0149386, 4.5495, -0.0076294, 4.5495, -1.006897, 4.5495, -0.1575928, 4.5495, 0.2824427, 4.5495, 1.3740458, 4.5495, -3.519084
0.5360294, -0.0166171, 4.55625, -0.0058594, 4.55625, -1.0082397, 4.55625, -0.1564331, 4.55625, 0.2061069, 4.55625, 1.5419847, 4.55625, -3.519084
0.5368235, -0.0176242, 4.563, -0.005249, 4.563, -1.0097656, 4.563, -0.1529541, 4.563, 0.3816794, 4.563, 1.519084, 4.563, -3.6259542
0.5376176, -0.0182956, 4.56975, -0.0064697, 4.56975, -1.0091553, 4.56975, -0.1557007, 4.56975, 0.4274809, 4.56975, 1.6412214, 4.56975, -3.5648854
0.5384118, -0.0236667, 4.5765, -0.0046997, 4.5765, -1.0100708, 4.5765, -0.1552124, 4.5765, 0.648855, 4.5765, 1.9923664, 4.5765, -3.5572519
0.5392059, -0.0253452, 4.58325, -0.0094604, 4.58325, -1.0085449, 4.58325, -0.1572876, 4.58325, 0.8320611, 4.58325, 1.5496184, 4.58325, -3.5801528
0.54, -0.0253452, 4.59, -0.0101318, 4.59, -1.0040894, 4.59, -0.1583252, 4.59, 0.7022901, 4.59, 1.2137405, 4.59, -3.6793892
0.5407941, -0.0253452, 4.59675, -0.008667, 4.59675, -1.0050049, 4.59675, -0.159729, 4.59675, 0.8473282, 4.59675, 1.091603, 4.59675, -3.7022901
0.5415882, -0.0260166, 4.6035, -0.010498, 4.6035, -1.0089111, 4.6035, -0.1598511, 4.6035, 0.8473282, 4.6035, 1.0839695, 4.6035, -3.7328243
0.5423824, -0.0209812, 4.61025, -0.0112915, 4.61025, -1.0099487, 4.61025, -0.1591797, 4.61025, 1.0152671, 4.61025, 0.9847328, 4.61025, -3.5267177
0.5431765, -0.018967, 4.617, -0.0095825, 4.617, -1.0080566, 4.617, -0.1572876, 4.617, 0.908397, 4.617, 1.1221374, 4.617, -3.4503818
0.5439706, -0.0169528, 4.62375, -0.0073853, 4.62375, -1.0039673, 4.62375, -0.1639404, 4.62375, 1.0534351, 4.62375, 0.908397, 4.62375, -3.3740458
0.5447647, -0.0130922, 4.6305, -0.0081177, 4.6305, -1.0039673, 4.6305, -0.1620483, 4.6305, 0.7938932, 4.6305, 1.091603, 4.6305, -3.5725191
0.5455588, -0.008896, 4.63725, -0.0056152, 4.63725, -1.0029907, 4.63725, -0.1630249, 4.63725, 1.0610687, 4.63725, 1.5343511, 4.63725, -3.3816793
0.5463529, -0.0031891, 4.644, -0.0043945, 4.644, -1.0057373, 4.644, -0.1615601, 4.644, 1.2519084, 4.644, 1.5419847, 4.644, -3.4732823
0.5471471, -0.0072175, 4.65075, -0.0061035, 4.65075, -1.0059204, 4.65075, -0.1575317, 4.65075, 1.2900764, 4.65075, 1.7862595, 4.65075, -3.3816793
0.5479412, -0.0065461, 4.6575, -0.0055542, 4.6575, -1.0066528, 4.6575, -0.159729, 4.6575, 1.2519084, 4.6575, 2.0458016, 4.6575, -3.1526718
0.5487353, -0.0068818, 4.66425, -0.0036011, 4.66425, -1.006897, 4.66425, -0.1598511, 4.66425, 1.4351145, 4.66425, 2.129771, 4.66425, -3.259542
0.5495294, -0.0050355, 4.671, -0.0044556, 4.671, -1.0099487, 4.671, -0.1578979, 4.671, 1.3435115, 4.671, 2.1068702, 4.671, -3.2977099
0.5503235, -0.0048676, 4.67775, -0.0064697, 4.67775, -1.0062256, 4.67775, -0.1558228, 4.67775, 1.3206106, 4.67775, 2.0534351, 4.67775, -3.1068702
0.5511176, -0.0035248, 4.6845, -0.0062256, 4.6845, -1.0050049, 4.6845, -0.1573486, 4.6845, 1.4732825, 4.6845, 1.9770992, 4.6845, -3.3664122
0.5519118, -0.0065461, 4.69125, -0.0075684, 4.69125, -1.0055542, 4.69125, -0.1577759, 4.69125, 1.4427481, 4.69125, 1.8473282, 4.69125, -3.389313
0.5527059, -0.0095674, 4.698, -0.0060425, 4.698, -1.0053101, 4.698, -0.1553955, 4.698, 1.6183206, 4.698, 1.5725191, 4.698, -3.2137403
0.5535, -0.012253, 4.70475, -0.0046387, 4.70475, -1.0068359, 4.70475, -0.159729, 4.70475, 1.5419847, 4.70475, 1.2442749, 4.70475, -3.3053436
0.5542941, -0.0151064, 4.7115, -0.0064087, 4.7115, -1.0032349, 4.7115, -0.1578369, 4.7115, 1.5343511, 4.7115, 1.1450381, 4.7115, -3.389313
0.5550882, -0.0186313, 4.71825, -0.006958, 4.71825, -1.0032349, 4.71825, -0.1572266, 4.71825, 1.5267175, 4.71825, 0.9312977, 4.71825, -3.4961832
0.5558824, -0.0219883, 4.725, -0.0078735, 4.725, -1.0048828, 4.725, -0.1577759, 4.725, 1.5725191, 4.725, 1.0076336, 4.725, -3.1526718
0.5566765, -0.0219883, 4.73175, -0.0088501, 4.73175, -1.005127, 4.73175, -0.1600952, 4.73175, 1.7099236, 4.73175, 0.9236641, 4.73175, -3.351145
0.5574706, -0.0203098, 4.7385, -0.0064087, 4.7385, -1.0047607, 4.7385, -0.1587524, 4.7385, 1.8854961, 4.7385, 1.129771, 4.7385, -3.4122138
0.5582647, -0.0172885, 4.74525, -0.0045776, 4.74525, -1.0064697, 4.74525, -0.1616211, 4.74525, 1.8244275, 4.74525, 1.0839695, 4.74525, -3.2900763
0.5590588, -0.0176242, 4.752, -0.0082397, 4.752, -1.0064697, 4.752, -0.1575928, 4.752, 1.7938931, 4.752, 1.1984733, 4.752, -3.1984732
0.5598529, -0.01561, 4.75875, -0.0093384, 4.75875, -1.0045166, 4.75875, -0.1569824, 4.75875, 1.8931298, 4.75875, 1.3740458, 4.75875, -3.1908398
0.5606471, -0.0171206, 4.7655, -0.0067749, 4.7655, -1.0065918, 4.7655, -0.15802, 4.7655, 1.8931298, 4.7655, 1.2824427, 4.7655, -3.1603053
0.5614412, -0.0162814, 4.77225, -0.0066528, 4.77225, -1.0075073, 4.77225, -0.1592407, 4.77225, 1.9770992, 4.77225, 1.221374, 4.77225, -3.221374
0.5622353, -0.0125887, 4.779, -0.0062866, 4.779, -1.006958, 4.779, -0.1578369, 4.779, 1.961832, 4.779, 1.3282443, 4.779, -3.2442749
0.5630294, -0.0092317, 4.78575, -0.0055542, 4.78575, -1.0032349, 4.78575, -0.1575928, 4.78575, 1.8854961, 4.78575, 1.5648855, 4.78575, -3.1755726
0.5638235, -0.005539, 4.7925, -0.0090942, 4.7925, -1.001709, 4.7925, -0.1585693, 4.7925, 2, 4.7925, 1.6183206, 4.7925, -3.0763359
0.5646176, -0.005539, 4.79925, -0.006958, 4.79925, -1.0045776, 4.79925, -0.1590576, 4.79925, 1.9694656, 4.79925, 1.5038168, 4.79925, -3.259542
0.5654118, -0.0048676, 4.806, -0.0058594, 4.806, -1.0057373, 4.806, -0.1592407, 4.806, 2.0687022, 4.806, 1.5572519, 4.806, -3.091603
0.5662059, -0.0075532, 4.81275, -0.0042114, 4.81275, -1.0062256, 4.81275, -0.1611328, 4.81275, 2.0458016, 4.81275, 1.740458, 4.81275, -3.0305343
0.567, -0.0077211, 4.8195, -0.0042725, 4.8195, -1.0058594, 4.8195, -0.1616821, 4.8195, 2.1984732, 4.8195, 1.6259542, 4.8195, -3.091603
0.5677941, -0.0085603, 4.82625, -0.0053711, 4.82625, -1.0032959, 4.82625, -0.15802, 4.82625, 2.1832061, 4.82625, 1.6183206, 4.82625, -3.0305343
0.5685882, -0.0117494, 4.833, -0.0032959, 4.833, -1.0040894, 4.833, -0.1611328, 4.833, 2.1984732, 4.833, 1.5038168, 4.833, -3.0610688
0.5693824, -0.0166171, 4.83975, -0.0036011, 4.83975, -1.0055542, 4.83975, -0.1618652, 4.83975, 2.2977099, 4.83975, 1.3358779, 4.83975, -3.2061069
0.5701765, -0.0132601, 4.8465, -0.0038452, 4.8465, -1.0054321, 4.8465, -0.1604614, 4.8465, 2.3435113, 4.8465, 1.2748091, 4.8465, -3.1755726
0.5709706, -0.0099031, 4.85325, -0.0068359, 4.85325, -1.003479, 4.85325, -0.1585083, 4.85325, 2.3358779, 4.85325, 1.3282443, 4.85325, -3.3053436
0.5717647, -0.0135958, 4.86, -0.0107422, 4.86, -1.0054932, 4.86, -0.15802, 4.86, 2.4045801, 4.86, 1.2290076, 4.86, -3.091603
0.5725588, -0.0181277, 4.86675, -0.0098877, 4.86675, -1.0029907, 4.86675, -0.1616211, 4.86675, 2.6259542, 4.86675, 1.1374046, 4.86675, -3.038168
0.5733529, -0.0169528, 4.8735, -0.0088501, 4.8735, -1.0014038, 4.8735, -0.1593628, 4.8735, 2.610687, 4.8735, 1.1908396, 4.8735, -3.1221373
0.5741471, -0.0209812, 4.88025, -0.0045776, 4.88025, -1.0043945, 4.88025, -0.15802, 4.88025, 2.6717558, 4.88025, 1.2290076, 4.88025, -3.038168
0.5749412, -0.023331, 4.887, -0.0046387, 4.887, -1.0066528, 4.887, -0.1582031, 4.887, 2.5648854, 4.887, 1.5801526, 4.887, -3.1221373
0.5757353, -0.0209812, 4.89375, -0.0046387, 4.89375, -1.0043335, 4.89375, -0.1531982, 4.89375, 2.5725191, 4.89375, 1.6793894, 4.89375, -3.038168
0.5765294, -0.0206455, 4.9005, -0.0022583, 4.9005, -1.0079956, 4.9005, -0.1519165, 4.9005, 2.6335878, 4.9005, 1.7251909, 4.9005, -2.9847329
0.5773235, -0.018967, 4.90725, -0.0055542, 4.90725, -1.0075073, 4.90725, -0.15448, 4.90725, 2.5877862, 4.90725, 1.8473282, 4.90725, -2.9541984
0.5781176, -0.0172885, 4.914, -0.0056152, 4.914, -1.0115356, 4.914, -0.1497803, 4.914, 2.610687, 4.914, 2.1526718, 4.914, -3.0229008
0.5789118, -0.0129244, 4.92075, -0.0091553, 4.92075, -1.007019, 4.92075, -0.1506958, 4.92075, 2.7557251, 4.92075, 2.2824428, 4.92075, -2.9007633
0.5797059, -0.0119173, 4.9275, -0.0080566, 4.9275, -1.0084839, 4.9275, -0.1523438, 4.9275, 2.8549619, 4.9275, 1.9770992, 4.9275, -2.9160306
0.5805, -0.0135958, 4.93425, -0.0106812, 4.93425, -1.0066528, 4.93425, -0.1532593, 4.93425, 2.8931298, 4.93425, 1.5114504, 4.93425, -2.870229
0.5812941, -0.0105745, 4.941, -0.0025024, 4.941, -1.0057983, 4.941, -0.1506958, 4.941, 2.6946564, 4.941, 1.480916, 4.941, -2.9007633
0.5820882, -0.0085603, 4.94775, -0.0039062, 4.94775, -1.0087891, 4.94775, -0.151001, 4.94775, 2.8244274, 4.94775, 1.259542, 4.94775, -2.9160306
0.5828824, -0.0095674, 4.9545, -0.0061035, 4.9545, -1.007019, 4.9545, -0.1478882, 4.9545, 2.9160306, 4.9545, 1.4122137, 4.9545, -3.1374047
0.5836765, -0.0139315, 4.96125, -0.0047607, 4.96125, -1.0043335, 4.96125, -0.1480103, 4.96125, 2.9389312, 4.96125, 1.3053435, 4.96125, -2.8625953
0.5844706, -0.0154421, 4.968, -0.0033569, 4.968, -1.0039673, 4.968, -0.154541, 4.968, 2.7633588, 4.968, 1.038168, 4.968, -2.8931298
0.5852647, -0.0162814, 4.97475, -0.005127, 4.97475, -1.0023193, 4.97475, -0.156311, 4.97475, 2.7709923, 4.97475, 1.1374046, 4.97475, -2.7328243
0.5860588, -0.0176242, 4.9815, -0.0025024, 4.9815, -1.0045776, 4.9815, -0.1506958, 4.9815, 2.8091602, 4.9815, 1.3053435, 4.9815, -2.9465649
0.5868529, -0.0169528, 4.98825, -0.0009766, 4.98825, -1.0043335, 4.98825, -0.1503906, 4.98825, 3.038168, 4.98825, 1.5954199, 4.98825, -2.9007633
0.5876471, -0.0216526, 4.995, -0.0029907, 4.995, -1.0033569, 4.995, -0.1505127, 4.995, 2.9770992, 4.995, 2.1374047, 4.995, -2.7862597
0.5884412, -0.0209812, 5.00175, -0.0044556, 5.00175, -1.0005493, 5.00175, -0.1536865, 5.00175, 2.9541984, 5.00175, 2.1832061, 5.00175, -2.4885497
0.5892353, -0.0246738, 5.0085, 0.0002441, 5.0085, -1.0021973, 5.0085, -0.1494751, 5.0085, 2.8473282, 5.0085, 2.2977099, 5.0085, -2.4732823
0.5900294, -0.0287022, 5.01525, 0.0024414, 5.01525, -1.0042114, 5.01525, -0.1431885, 5.01525, 2.9236641, 5.01525, 3.2290077, 5.01525, -2.4503818
0.5908235, -0.0317235, 5.022, -0.0005493, 5.022, -1.008728, 5.022, -0.142395, 5.022, 3.1374047, 5.022, 4.2366414, 5.022, -2.2061069
0.5916176, -0.0292058, 5.02875, -0.0059204, 5.02875, -1.0118408, 5.02875, -0.1430664, 5.02875, 3.2366412, 5.02875, 3.8931298, 5.02875, -2.480916
0.5924118, -0.0271916, 5.0355, -0.0122681, 5.0355, -1.0099487, 5.0355, -0.1511841, 5.0355, 3.0839694, 5.0355, 3.221374, 5.0355, -2.4045801
0.5932059, -0.018967, 5.04225, -0.0108643, 5.04225, -1.0080566, 5.04225, -0.1500854, 5.04225, 3.0229008, 5.04225, 2.5725191, 5.04225, -2.5954199
0.594, -0.018967, 5.049, -0.0119629, 5.049, -1.010376, 5.049, -0.1443481, 5.049, 3.1068702, 5.049, 2, 5.049, -2.4885497
0.5947941, -0.0184634, 5.05575, -0.0119629, 5.05575, -1.008606, 5.05575, -0.1415405, 5.05575, 2.9770992, 5.05575, 1.7633588, 5.05575, -2.5877862
0.5955882, -0.014435, 5.0625, -0.0107422, 5.0625, -1.0078125, 5.0625, -0.1445923, 5.0625, 3.0229008, 5.0625, 1.648855, 5.0625, -2.351145
0.5963824, -0.0112459, 5.06925, -0.0085449, 5.06925, -1.0089111, 5.06925, -0.1496582, 5.06925, 3.1068702, 5.06925, 1.4656489, 5.06925, -2.5267177
0.5971765, -0.0135958, 5.076, -0.0123901, 5.076, -1.0111694, 5.076, -0.151001, 5.076, 3.038168, 5.076, 1.5572519, 5.076, -2.4503818
0.5979706, -0.008896, 5.08275, -0.0092163, 5.08275, -1.0134277, 5.08275, -0.1487427, 5.08275, 3.0839694, 5.08275, 1.648855, 5.08275, -2.7175572
0.5987647, -0.0062104, 5.0895, -0.0063477, 5.0895, -1.0087891, 5.0895, -0.1430664, 5.0895, 2.9923663, 5.0895, 1.6717557, 5.0895, -2.6259542
0.5995588, -0.0102388, 5.09625, -0.0065308, 5.09625, -1.0031738, 5.09625, -0.1464844, 5.09625, 2.8625953, 5.09625, 1.8091604, 5.09625, -2.7862597
0.6003529, -0.0099031, 5.103, -0.0041504, 5.103, -0.9991455, 5.103, -0.1488647, 5.103, 2.648855, 5.103, 1.9923664, 5.103, -2.8320611
0.6011471, -0.0109102, 5.10975, -0.0082397, 5.10975, -0.9979858, 5.10975, -0.1491699, 5.10975, 2.5114503, 5.10975, 2.1832061, 5.10975, -2.5725191
0.6019412, -0.0115816, 5.1165, -0.0108643, 5.1165, -0.999939, 5.1165, -0.145752, 5.1165, 2.4961832, 5.1165, 2.2442749, 5.1165, -2.610687
0.6027353, -0.0130922, 5.12325, -0.0140991, 5.12325, -0.9987183, 5.12325, -0.1409912, 5.12325, 2.5267177, 5.12325, 2.0229008, 5.12325, -2.6641221
0.6035294, -0.017792, 5.13, -0.0119629, 5.13, -1.0036011, 5.13, -0.1425171, 5.13, 2.4045801, 5.13, 1.9923664, 5.13, -2.4885497
0.6043235, -0.0199741, 5.13675, -0.0110474, 5.13675, -1.008728, 5.13675, -0.1433105, 5.13675, 2.2442749, 5.13675, 2.091603, 5.13675, -2.6412213
0.6051176, -0.0182956, 5.1435, -0.0100708, 5.1435, -1.0146484, 5.1435, -0.1425171, 5.1435, 2.1068702, 5.1435, 2.0763359, 5.1435, -2.4351146
0.6059118, -0.023331, 5.15025, -0.0073242, 5.15025, -1.0142212, 5.15025, -0.1450806, 5.15025, 2.3129771, 5.15025, 2.0305343, 5.15025, -2.3358779
0.6067059, -0.0250095, 5.157, -0.0046997, 5.157, -1.0133057, 5.157, -0.1452026, 5.157, 2.3435113, 5.157, 2.0305343, 5.157, -2.5343511
0.6075, -0.0265202, 5.16375, -0.0049438, 5.16375, -1.0116577, 5.16375, -0.1495972, 5.16375, 2.5114503, 5.16375, 2.1526718, 5.16375, -2.6564887
0.6082941, -0.0199741, 5.1705, -0.0079346, 5.1705, -1.0042725, 5.1705, -0.1503296, 5.1705, 2.4503818, 5.1705, 2.091603, 5.1705, -2.6717558
0.6090882, -0.0219883, 5.17725, -0.0106201, 5.17725, -1.0057983, 5.17725, -0.1488037, 5.17725, 2.5572519, 5.17725, 2.0687022, 5.17725, -2.8167939
0.6098824, -0.0236667, 5.184, -0.0115356, 5.184, -1.0056763, 5.184, -0.1450195, 5.184, 2.4732823, 5.184, 2.0305343, 5.184, -2.5877862
0.6106765, -0.0196384, 5.19075, -0.0118408, 5.19075, -1.0010986, 5.19075, -0.1409302, 5.19075, 2.6259542, 5.19075, 1.9770992, 5.19075, -2.648855
0.6114706, -0.0179599, 5.1975, -0.0182495, 5.1975, -1.0029297, 5.1975, -0.1450195, 5.1975, 2.610687, 5.1975, 1.6717557, 5.1975, -2.9694657
0.6122647, -0.0146029, 5.20425, -0.0219116, 5.20425, -1.0028687, 5.20425, -0.1477661, 5.20425, 2.3969467, 5.20425, 1.2748091, 5.20425, -2.9770992
0.6130588, -0.0072175, 5.211, -0.0203247, 5.211, -1.0062866, 5.211, -0.145813, 5.211, 2.3358779, 5.211, 1.038168, 5.211, -2.7938931
0.6138529, -0.0068818, 5.21775, -0.0182495, 5.21775, -1.0061035, 5.21775, -0.1439819, 5.21775, 2.2519083, 5.21775, 0.870229, 5.21775, -3.0152671
0.6146471, -0.0075532, 5.2245, -0.0095825, 5.2245, -1.003418, 5.2245, -0.1448975, 5.2245, 2.5343511, 5.2245, 0.870229, 5.2245, -2.908397
0.6154412, -0.0045319, 5.23125, -0.0077515, 5.23125, -1.0015869, 5.23125, -0.1472168, 5.23125, 2.2366412, 5.23125, 1.1068702, 5.23125, -3.0229008
0.6162353, -0.0063783, 5.238, -0.0032959, 5.238, -1.0088501, 5.238, -0.147644, 5.238, 2.3969467, 5.238, 1.6946565, 5.238, -3.0229008
0.6170294, -0.0095674, 5.24475, -0.0078735, 5.24475, -1.0075073, 5.24475, -0.1503906, 5.24475, 2.351145, 5.24475, 2.1526718, 5.24475, -3.038168
0.6178235, -0.012253, 5.2515, -0.0101318, 5.2515, -1.0064087, 5.2515, -0.1513672, 5.2515, 2.5572519, 5.2515, 2.2748091, 5.2515, -3.0839694
0.6186176, -0.0149386, 5.25825, -0.0097656, 5.25825, -1.0040894, 5.25825, -0.147522, 5.25825, 2.1908398, 5.25825, 2.3664122, 5.25825, -3.0763359
0.6194118, -0.0135958, 5.265, -0.0115967, 5.265, -1.0047607, 5.265, -0.1463013, 5.265, 2.3969467, 5.265, 2.1603053, 5.265, -3.0534351
0.6202059, -0.0139315, 5.27175, -0.0148315, 5.27175, -1.0063477, 5.27175, -0.1444092, 5.27175, 2.3129771, 5.27175, 1.8091604, 5.27175, -3.1221373
0.621, -0.0172885, 5.2785, -0.0181274, 5.2785, -1.0076904, 5.2785, -0.1398926, 5.2785, 2.4503818, 5.2785, 1.0687023, 5.2785, -3.2366412
0.6217941, -0.0229953, 5.28525, -0.0163574, 5.28525, -1.0057373, 5.28525, -0.1411133, 5.28525, 2.5038168, 5.28525, 0.4961832, 5.28525, -3.1908398
0.6225882, -0.0223239, 5.292, -0.0150146, 5.292, -1.0070801, 5.292, -0.1425781, 5.292, 2.3358779, 5.292, 0.1450382, 5.292, -3.1832061
0.6233824, -0.0198062, 5.29875, -0.0090332, 5.29875, -1.0053711, 5.29875, -0.1444702, 5.29875, 2.1984732, 5.29875, -0.0152672, 5.29875, -3.3358779
0.6241765, -0.0218204, 5.3055, -0.008606, 5.3055, -1.0045776, 5.3055, -0.1478882, 5.3055, 2.2442749, 5.3055, -0.0305344, 5.3055, -3.2137403
0.6249706, -0.0213169, 5.31225, -0.0048828, 5.31225, -1.010498, 5.31225, -0.1452637, 5.31225, 2.2671757, 5.31225, 0.1526718, 5.31225, -3.4045801
0.6257647, -0.018967, 5.319, -0.003418, 5.319, -1.0106812, 5.319, -0.1463623, 5.319, 2.2061069, 5.319, 0.6793893, 5.319, -3.389313
0.6265588, -0.0208133, 5.32575, -0.008606, 5.32575, -1.010498, 5.32575, -0.149231, 5.32575, 2.3435113, 5.32575, 1, 5.32575, -3.4580152
0.6273529, -0.0193027, 5.3325, -0.0089722, 5.3325, -1.0055542, 5.3325, -0.1477051, 5.3325, 2.3664122, 5.3325, 1.4274809, 5.3325, -3.5419848
0.6281471, -0.0135958, 5.33925, -0.0115356, 5.33925, -1.0057373, 5.33925, -0.1459351, 5.33925, 2.3206108, 5.33925, 1.870229, 5.33925, -3.4656489
0.6289412, -0.0157778, 5.346, -0.0147095, 5.346, -1.0087891, 5.346, -0.1452637, 5.346, 2.3282442, 5.346, 1.7480916, 5.346, -3.4503818
0.6297353, -0.0157778, 5.35275, -0.0155029, 5.35275, -1.0081787, 5.35275, -0.1426392, 5.35275, 2.3969467, 5.35275, 1.5267175, 5.35275, -3.5343511
0.6305294, -0.0135958, 5.3595, -0.0161133, 5.3595, -1.0087891, 5.3595, -0.1445923, 5.3595, 2.3358779, 5.3595, 1.4198474, 5.3595, -3.5572519
0.6313235, -0.0092317, 5.36625, -0.0130005, 5.36625, -1.0078735, 5.36625, -0.1448975, 5.36625, 2.5801528, 5.36625, 1.1603054, 5.36625, -3.5801528
0.6321176, -0.0085603, 5.373, -0.0129395, 5.373, -1.0109863, 5.373, -0.1418457, 5.373, 2.519084, 5.373, 0.9770992, 5.373, -3.6183207
0.6329118, -0.0085603, 5.37975, -0.0117798, 5.37975, -1.0111694, 5.37975, -0.140686, 5.37975, 2.4961832, 5.37975, 0.7557252, 5.37975, -3.519084
0.6337059, -0.008896, 5.3865, -0.0085449, 5.3865, -1.0090942, 5.3865, -0.1414185, 5.3865, 2.7099237, 5.3865, 0.8320611, 5.3865, -3.7862597
0.6345, -0.0092317, 5.39325, -0.0064697, 5.39325, -1.0079956, 5.39325, -0.1426392, 5.39325, 2.5038168, 5.39325, 0.961832, 5.39325, -3.6641221
0.6352941, -0.0075532, 5.4, -0.0115967, 5.4, -1.0090942, 5.4, -0.140564, 5.4, 2.610687, 5.4, 1.1984733, 5.4, -3.6259542
0.6360882, -0.0050355, 5.40675, -0.0095215, 5.40675, -1.0079956, 5.40675, -0.1416016, 5.40675, 2.5419848, 5.40675, 1.480916, 5.40675, -3.6793892
0.6368824, -0.0073854, 5.4135, -0.0079956, 5.4135, -1.0084839, 5.4135, -0.1425171, 5.4135, 2.6564887, 5.4135, 1.5801526, 5.4135, -3.6564887
0.6376765, -0.0092317, 5.42025, -0.0127563, 5.42025, -1.008606, 5.42025, -0.1411133, 5.42025, 2.7022901, 5.42025, 1.5267175, 5.42025, -3.8244274
0.6384706, -0.0152743, 5.427, -0.012146, 5.427, -1.0061035, 5.427, -0.1412964, 5.427, 2.6259542, 5.427, 1.519084, 5.427, -3.4885497
0.6392647, -0.0196384, 5.43375, -0.0078125, 5.43375, -1.0049438, 5.43375, -0.1427612, 5.43375, 2.6564887, 5.43375, 1.5801526, 5.43375, -3.7557251
0.6400588, -0.0223239, 5.4405, -0.005188, 5.4405, -1.0058594, 5.4405, -0.1455688, 5.4405, 2.6717558, 5.4405, 1.5877863, 5.4405, -3.7709923
0.6408529, -0.0203098, 5.44725, -0.0071411, 5.44725, -1.006958, 5.44725, -0.1439819, 5.44725, 2.5648854, 5.44725, 1.6412214, 5.44725, -3.740458
0.6416471, -0.0219883, 5.454, -0.0075684, 5.454, -1.0079956, 5.454, -0.1398315, 5.454, 2.740458, 5.454, 1.7099236, 5.454, -3.7022901
0.6424412, -0.0213169, 5.46075, -0.006958, 5.46075, -1.0098267, 5.46075, -0.1400146, 5.46075, 2.8167939, 5.46075, 1.6412214, 5.46075, -3.6030533
0.6432353, -0.0209812, 5.4675, -0.0078735, 5.4675, -1.0095215, 5.4675, -0.1398315, 5.4675, 2.7938931, 5.4675, 1.6335878, 5.4675, -3.6183207
0.6440294, -0.0193027, 5.47425, -0.0059814, 5.47425, -1.0072021, 5.47425, -0.1386108, 5.47425, 2.7709923, 5.47425, 1.5725191, 5.47425, -3.7557251
0.6448235, -0.01561, 5.481, -0.008667, 5.481, -1.0056763, 5.481, -0.1375122, 5.481, 2.7251909, 5.481, 1.5572519, 5.481, -3.6564887
0.6456176, -0.0132601, 5.48775, -0.0075684, 5.48775, -1.0043945, 5.48775, -0.142334, 5.48775, 2.8244274, 5.48775, 1.5572519, 5.48775, -3.7022901
0.6464118, -0.0125887, 5.4945, -0.0072021, 5.4945, -1.0026245, 5.4945, -0.1416016, 5.4945, 2.9465649, 5.4945, 1.3587786, 5.4945, -3.5038168
0.6472059, -0.0092317, 5.50125, -0.0048828, 5.50125, -1.0048828, 5.50125, -0.1415405, 5.50125, 2.961832, 5.50125, 1.3053435, 5.50125, -3.6641221
0.648, -0.0119173, 5.508, -0.0021973, 5.508, -1.0079346, 5.508, -0.1417847, 5.508, 2.8778627, 5.508, 1.4274809, 5.508, -3.6870229
0.6487941, -0.0140993, 5.51475, -0.0049438, 5.51475, -1.0036621, 5.51475, -0.1417236, 5.51475, 2.870229, 5.51475, 1.7175573, 5.51475, -3.7022901
0.6495882, -0.0078889, 5.5215, -0.0075073, 5.5215, -1.0057373, 5.5215, -0.140564, 5.5215, 2.7099237, 5.5215, 1.7938931, 5.5215, -3.6259542
0.6503824, -0.0068818, 5.52825, -0.0081177, 5.52825, -1.0028687, 5.52825, -0.1352539, 5.52825, 2.8854961, 5.52825, 1.6641221, 5.52825, -3.7557251
0.6511765, -0.0115816, 5.535, -0.0093994, 5.535, -1.0038452, 5.535, -0.1300659, 5.535, 2.6717558, 5.535, 1.6335878, 5.535, -3.7099237
0.6519706, -0.0152743, 5.54175, -0.0124512, 5.54175, -1.0043335, 5.54175, -0.1287231, 5.54175, 2.5954199, 5.54175, 1.3740458, 5.54175, -3.7099237
0.6527647, -0.0146029, 5.5485, -0.0130615, 5.5485, -1.0036621, 5.5485, -0.1271973, 5.5485, 2.5954199, 5.5485, 0.908397, 5.5485, -3.7633588
0.6535588, -0.0169528, 5.55525, -0.0098267, 5.55525, -1.0011597, 5.55525, -0.1259155, 5.55525, 2.5419848, 5.55525, 0.5801527, 5.55525, -3.7633588
0.6543529, -0.0186313, 5.562, -0.0100098, 5.562, -1.0026245, 5.562, -0.1256104, 5.562, 2.4045801, 5.562, 0.3740458, 5.562, -3.6946564
0.6551471, -0.0216526, 5.56875, -0.0083618, 5.56875, -1.0054932, 5.56875, -0.1245117, 5.56875, 2.1603053, 5.56875, 0.2824427, 5.56875, -3.6717558
0.6559412, -0.0209812, 5.5755, -0.0083618, 5.5755, -1.0039062, 5.5755, -0.1246338, 5.5755, 1.8931298, 5.5755, 0.1450382, 5.5755, -3.5038168
0.6567353, -0.023331, 5.58225, -0.0036011, 5.58225, -1.0075073, 5.58225, -0.125061, 5.58225, 1.9007634, 5.58225, 0.2977099, 5.58225, -3.6870229
0.6575294, -0.0246738, 5.589, -0.0022583, 5.589, -1.0064697, 5.589, -0.1262207, 5.589, 1.6946565, 5.589, 0.2519084, 5.589, -3.740458
0.6583235, -0.0234989, 5.59575, -0.0064087, 5.59575, -1.0041504, 5.59575, -0.1276855, 5.59575, 1.5572519, 5.59575, 0.3129771, 5.59575, -3.7480917
0.6591176, -0.0193027, 5.6025, -0.0042725, 5.6025, -1.005188, 5.6025, -0.1275024, 5.6025, 1.610687, 5.6025, 0.5496183, 5.6025, -3.6641221
0.6599118, -0.0209812, 5.60925, -0.0049438, 5.60925, -1.0026855, 5.60925, -0.1289673, 5.60925, 1.5801526, 5.60925, 0.6641222, 5.60925, -3.5496182
0.6607059, -0.0229953, 5.616, -0.0068359, 5.616, -1.0026245, 5.616, -0.1303711, 5.616, 1.4427481, 5.616, 0.5954198, 5.616, -3.7938931
0.6615, -0.0213169, 5.62275, -0.0073242, 5.62275, -1.005188, 5.62275, -0.1348267, 5.62275, 1.3282443, 5.62275, 0.4351145, 5.62275, -3.7022901
0.6622941, -0.018967, 5.6295, -0.0071411, 5.6295, -1.0061035, 5.6295, -0.1338501, 5.6295, 1.2748091, 5.6295, 0.519084, 5.6295, -3.4732823
0.6630882, -0.0162814, 5.63625, -0.0080566, 5.63625, -1.0076294, 5.63625, -0.1311646, 5.63625, 1.3282443, 5.63625, 0.4885496, 5.63625, -3.4274809
0.6638824, -0.0182956, 5.643, -0.0083618, 5.643, -1.0048828, 5.643, -0.1349487, 5.643, 1.1603054, 5.643, 0.4732825, 5.643, -3.6793892
0.6646765, -0.0149386, 5.64975, -0.0080566, 5.64975, -1.0022583, 5.64975, -0.1331787, 5.64975, 1.1908396, 5.64975, 0.4351145, 5.64975, -3.5572519
0.6654706, -0.0095674, 5.6565, -0.0083618, 5.6565, -1.0029297, 5.6565, -0.1339722, 5.6565, 1.0305344, 5.6565, 0.480916, 5.6565, -3.8244274
0.6662647, -0.0115816, 5.66325, -0.0100098, 5.66325, -1.0010376, 5.66325, -0.1262817, 5.66325, 0.9847328, 5.66325, 0.4656489, 5.66325, -3.778626
0.6670588, -0.0125887, 5.67, -0.0097046, 5.67, -1.0040894, 5.67, -0.1287231, 5.67, 0.8244275, 5.67, -0.1145038, 5.67, -3.8549619
0.6678529, -0.012253, 5.67675, -0.0091553, 5.67675, -1.0047607, 5.67675, -0.130249, 5.67675, 0.778626, 5.67675, -0.2137405, 5.67675, -3.7480917
0.6686471, -0.0137636, 5.6835, -0.0088501, 5.6835, -1.0028076, 5.6835, -0.1323242, 5.6835, 0.6717557, 5.6835, -0.1145038, 5.6835, -3.7709923
0.6694412, -0.0162814, 5.69025, -0.0073242, 5.69025, -1.0033569, 5.69025, -0.1323242, 5.69025, 0.5725191, 5.69025, -0.0610687, 5.69025, -3.740458
0.6702353, -0.0171206, 5.697, -0.0090942, 5.697, -1.0072632, 5.697, -0.1309204, 5.697, 0.6030535, 5.697, -0.3816794, 5.697, -3.7557251
0.6710294, -0.0209812, 5.70375, -0.0076294, 5.70375, -1.0063477, 5.70375, -0.1367188, 5.70375, 0.6717557, 5.70375, -0.3740458, 5.70375, -3.8244274
0.6718235, -0.0216526, 5.7105, -0.0062866, 5.7105, -1.0093384, 5.7105, -0.1365356, 5.7105, 0.740458, 5.7105, -0.4274809, 5.7105, -3.7862597
0.6726176, -0.0169528, 5.71725, -0.0023193, 5.71725, -1.0084839, 5.71725, -0.133728, 5.71725, 0.778626, 5.71725, -0.2748092, 5.71725, -3.778626
0.6734118, -0.0179599, 5.724, -0.0026245, 5.724, -1.0102539, 5.724, -0.1357422, 5.724, 1.1068702, 5.724, -0.1221374, 5.724, -3.8854961
0.6742059, -0.0182956, 5.73075, -0.0015869, 5.73075, -1.0101318, 5.73075, -0.1412354, 5.73075, 1.3435115, 5.73075, 0.0839695, 5.73075, -3.961832
