Application:, Trigno Discover (1.7.0)
Date/Time:, 2026/9/9 上午 11:28:00
Collection Length (seconds):, 40.2435
Avanti Sensor 11 (69574)
sensor mode: 50
EMG 1 Time Series (s), EMG 1 (mV), ACC X Time Series (s), ACC X (G), ACC Y Time Series (s), ACC Y (G), ACC Z Time Series (s), ACC Z (G), GYRO X Time Series (s), GYRO X (deg/s), GYRO Y Time Series (s), GYRO Y (deg/s), GYRO Z Time Series (s), GYRO Z (deg/s)
, 1259.2593 Hz, , 148.1481 Hz, , 148.1481 Hz, , 148.1481 Hz, , 148.1481 Hz, , 148.1481 Hz, , 148.1481 Hz
0, -0.0005035, 0, 0.0811157, 0, -1.0010986, 0, -0.1854858, 0, 1.2977099, 0, -0.0610687, 0, -4.3969464
0.0007941, -0.0036927, 0.00675, 0.0827026, 0.00675, -0.9958496, 0.00675, -0.1914062, 0.00675, 1.2900764, 0.00675, 0.1755725, 0.00675, -4.3893127
0.0015882, -0.0085603, 0.0135, 0.0797119, 0.0135, -0.9946289, 0.0135, -0.1925049, 0.0135, 0.8320611, 0.0135, 0.4122137, 0.0135, -4.2442746
0.0023824, -0.0151064, 0.02025, 0.0767822, 0.02025, -0.9981079, 0.02025, -0.184021, 0.02025, 0.4503817, 0.02025, 1.091603, 0.02025, -4.0534353
0.0031765, -0.0151064, 0.027, 0.0783691, 0.027, -0.9989014, 0.027, -0.1882935, 0.027, 0.5419847, 0.027, 1.0534351, 0.027, -3.9923663
0.0039706, -0.0182956, 0.03375, 0.0786133, 0.03375, -0.9977417, 0.03375, -0.1947632, 0.03375, 0.7480916, 0.03375, 0.961832, 0.03375, -4.0152674
0.0047647, -0.0216526, 0.0405, 0.0786133, 0.0405, -0.9981079, 0.0405, -0.1879883, 0.0405, 0.9770992, 0.0405, 1.1755725, 0.0405, -3.908397
0.0055588, -0.0226596, 0.04725, 0.0775146, 0.04725, -0.9989624, 0.04725, -0.1807861, 0.04725, 1.1221374, 0.04725, 1.1145039, 0.04725, -4.0076337
0.0063529, -0.023331, 0.054, 0.0749512, 0.054, -1.0019531, 0.054, -0.1832886, 0.054, 1.259542, 0.054, 0.870229, 0.054, -4.0152674
0.0071471, -0.0263523, 0.06075, 0.0752563, 0.06075, -1.0033569, 0.06075, -0.1893311, 0.06075, 1.5038168, 0.06075, 1.1145039, 0.06075, -4.0992365
0.0079412, -0.0283665, 0.0675, 0.0761108, 0.0675, -0.999939, 0.0675, -0.1868896, 0.0675, 1.4274809, 0.0675, 1.129771, 0.0675, -4.1221375
0.0087353, -0.0280308, 0.07425, 0.0778198, 0.07425, -1.0024414, 0.07425, -0.1850586, 0.07425, 1.480916, 0.07425, 0.9236641, 0.07425, -4.2671757
0.0095294, -0.0159457, 0.081, 0.0817261, 0.081, -0.999939, 0.081, -0.1802368, 0.081, 1.4351145, 0.081, 0.6564885, 0.081, -4.1145039
0.0103235, -0.012253, 0.08775, 0.081665, 0.08775, -1.0014648, 0.08775, -0.1827393, 0.08775, 1.4580153, 0.08775, 0.6946565, 0.08775, -4.0687022
0.0111176, 0.0035248, 0.0945, 0.0823975, 0.0945, -0.9993896, 0.0945, -0.1801147, 0.0945, 1.4580153, 0.0945, 0.7862595, 0.0945, -4.4274807
0.0119118, 0.0186313, 0.10125, 0.0825195, 0.10125, -1.0010986, 0.10125, -0.1794434, 0.10125, 1.4656489, 0.10125, 0.7480916, 0.10125, -4.3969464
0.0127059, 0.0010071, 0.108, 0.0857544, 0.108, -1.0032349, 0.108, -0.1815796, 0.108, 1.4427481, 0.108, 1.1374046, 0.108, -4.4351144
0.0135, -0.0186313, 0.11475, 0.0852051, 0.11475, -1.0026245, 0.11475, -0.1854248, 0.11475, 1.3969465, 0.11475, 1.1221374, 0.11475, -4.5496182
0.0142941, -0.0236667, 0.1215, 0.0835571, 0.1215, -1.0004272, 0.1215, -0.1843262, 0.1215, 1.1984733, 0.1215, 1.0534351, 0.1215, -4.4198475
0.0150882, -0.0270237, 0.12825, 0.0842896, 0.12825, -1.0005493, 0.12825, -0.1868286, 0.12825, 1.0992366, 0.12825, 1.0076336, 0.12825, -4.4274807
0.0158824, -0.0213169, 0.135, 0.083313, 0.135, -0.9993896, 0.135, -0.1883545, 0.135, 1.1068702, 0.135, 0.9770992, 0.135, -4.2977099
0.0166765, -0.0132601, 0.14175, 0.0802002, 0.14175, -0.9979248, 0.14175, -0.1796875, 0.14175, 0.870229, 0.14175, 1.129771, 0.14175, -4.2824426
0.0174706, -0.0151064, 0.1485, 0.0765991, 0.1485, -0.9939575, 0.1485, -0.1810303, 0.1485, 0.4656489, 0.1485, 1.4045801, 0.1485, -4.3129773
0.0182647, -0.0261845, 0.15525, 0.0789185, 0.15525, -0.9943237, 0.15525, -0.1858521, 0.15525, 0.2977099, 0.15525, 1.1068702, 0.15525, -4.3435116
0.0190588, -0.0374304, 0.162, 0.0778809, 0.162, -0.9967651, 0.162, -0.1894531, 0.162, 0.3587786, 0.162, 0.7099237, 0.162, -4.2442746
0.0198529, -0.0386053, 0.16875, 0.0819092, 0.16875, -0.9996948, 0.16875, -0.1801758, 0.16875, 0.4351145, 0.16875, 0.8931298, 0.16875, -4.1450381
0.0206471, -0.030045, 0.1755, 0.0810547, 0.1755, -1.0009155, 0.1755, -0.1784058, 0.1755, 0.6030535, 0.1755, 0.740458, 0.1755, -3.961832
0.0214412, -0.0198062, 0.18225, 0.0810547, 0.18225, -1.0015259, 0.18225, -0.1802368, 0.18225, 0.5038168, 0.18225, 0.4198473, 0.18225, -3.9694657
0.0222353, -0.012253, 0.189, 0.0774536, 0.189, -1.0012817, 0.189, -0.180481, 0.189, 0.6335878, 0.189, 0.5267175, 0.189, -4.1145039
0.0230294, -0.0025177, 0.19575, 0.0826416, 0.19575, -1.0029297, 0.19575, -0.1785278, 0.19575, 0.6183206, 0.19575, 0.610687, 0.19575, -4.0687022
0.0238235, 0.0001678, 0.2025, 0.0841675, 0.2025, -1.00354, 0.2025, -0.1795654, 0.2025, 0.7709923, 0.2025, 0.4885496, 0.2025, -4.0229006
0.0246176, -0.0068818, 0.20925, 0.0869141, 0.20925, -1.00354, 0.20925, -0.1791992, 0.20925, 0.7251908, 0.20925, 0.4656489, 0.20925, -4.1297708
0.0254118, -0.0115816, 0.216, 0.0822144, 0.216, -1.0042725, 0.216, -0.1810303, 0.216, 0.9770992, 0.216, 0.5954198, 0.216, -4.0076337
0.0262059, -0.0117494, 0.22275, 0.0830078, 0.22275, -1.00177, 0.22275, -0.180481, 0.22275, 1.3740458, 0.22275, 0.7251908, 0.22275, -4.0610685
0.027, -0.0115816, 0.2295, 0.0847168, 0.2295, -1.0016479, 0.2295, -0.1806641, 0.2295, 1.2366412, 0.2295, 0.778626, 0.2295, -4.1068702
0.0277941, -0.0132601, 0.23625, 0.0811768, 0.23625, -1.0020752, 0.23625, -0.1799316, 0.23625, 1.4732825, 0.23625, 0.740458, 0.23625, -4.2290077
0.0285882, -0.014435, 0.243, 0.0836182, 0.243, -1.0022583, 0.243, -0.1786499, 0.243, 1.3053435, 0.243, 0.5419847, 0.243, -4.2442746
0.0293824, -0.0179599, 0.24975, 0.0828857, 0.24975, -1.0015869, 0.24975, -0.1833496, 0.24975, 1.2824427, 0.24975, 0.2519084, 0.24975, -4.2671757
0.0301765, -0.0176242, 0.2565, 0.0823364, 0.2565, -0.9995117, 0.2565, -0.1860352, 0.2565, 1.0458015, 0.2565, 0, 0.2565, -4.2900763
0.0309706, -0.0149386, 0.26325, 0.083374, 0.26325, -1.0014038, 0.26325, -0.1838379, 0.26325, 0.8549618, 0.26325, -0.0839695, 0.26325, -4.4122138
0.0317647, -0.0070497, 0.27, 0.0828857, 0.27, -0.9984131, 0.27, -0.1811523, 0.27, 0.8320611, 0.27, -0.3053435, 0.27, -4.4198475
0.0325588, -0.0130922, 0.27675, 0.083374, 0.27675, -0.9973755, 0.27675, -0.1837769, 0.27675, 0.7022901, 0.27675, -0.2977099, 0.27675, -4.3816795
0.0333529, -0.0203098, 0.2835, 0.0807495, 0.2835, -0.9992676, 0.2835, -0.1766357, 0.2835, 0.4961832, 0.2835, -0.2748092, 0.2835, -4.4580154
0.0341471, -0.0109102, 0.29025, 0.0806274, 0.29025, -1.0006714, 0.29025, -0.1773682, 0.29025, 0.8167939, 0.29025, 0.3053435, 0.29025, -4.3740458
0.0349412, -0.0035248, 0.297, 0.0853271, 0.297, -0.9957275, 0.297, -0.1812744, 0.297, -0.0610687, 0.297, 0.4503817, 0.297, -4.5496182
0.0357353, 0.0048676, 0.30375, 0.0834961, 0.30375, -0.994812, 0.30375, -0.184021, 0.30375, -0.2442748, 0.30375, 0.2900763, 0.30375, -4.5725193
0.0365294, 0.0045319, 0.3105, 0.0825806, 0.3105, -0.9975586, 0.3105, -0.1918335, 0.3105, -0.3358779, 0.3105, 0.1908397, 0.3105, -4.3969464
0.0373235, -0.0048676, 0.31725, 0.0841064, 0.31725, -0.9978638, 0.31725, -0.1899414, 0.31725, -0.2137405, 0.31725, 0.0610687, 0.31725, -4.4427481
0.0381176, -0.0117494, 0.324, 0.0844727, 0.324, -0.9989624, 0.324, -0.1834106, 0.324, 0.0152672, 0.324, 0.0458015, 0.324, -4.2442746
0.0389118, -0.0193027, 0.33075, 0.086792, 0.33075, -1.0050049, 0.33075, -0.1864624, 0.33075, 0.2671756, 0.33075, -0.1374046, 0.33075, -4.4122138
0.0397059, -0.0256809, 0.3375, 0.0847168, 0.3375, -1.0010986, 0.3375, -0.1867065, 0.3375, 0.7022901, 0.3375, -0.221374, 0.3375, -4.259542
0.0405, -0.0298772, 0.34425, 0.0882568, 0.34425, -0.9993286, 0.34425, -0.1889648, 0.34425, 0.9923664, 0.34425, 0.0610687, 0.34425, -4.1221375
0.0412941, -0.0297093, 0.351, 0.0889282, 0.351, -1.0003052, 0.351, -0.1896973, 0.351, 1, 0.351, 0.1603053, 0.351, -4.0839696
0.0420882, -0.0273594, 0.35775, 0.0856323, 0.35775, -1.0039673, 0.35775, -0.1911621, 0.35775, 1.091603, 0.35775, -0.0381679, 0.35775, -4.1526718
0.0428824, -0.0162814, 0.3645, 0.0870972, 0.3645, -1.0003052, 0.3645, -0.1884766, 0.3645, 1.3129771, 0.3645, 0, 0.3645, -4.1374044
0.0436765, -0.0025177, 0.37125, 0.0864258, 0.37125, -1.0005493, 0.37125, -0.1856079, 0.37125, 1.4274809, 0.37125, 0.0305344, 0.37125, -3.9465649
0.0444706, -0.0018463, 0.378, 0.0905151, 0.378, -0.9985962, 0.378, -0.1902466, 0.378, 1.2671756, 0.378, 0.0916031, 0.378, -3.9541984
0.0452647, -0.0058747, 0.38475, 0.0882568, 0.38475, -1.0015259, 0.38475, -0.1826172, 0.38475, 1.2671756, 0.38475, 0.1374046, 0.38475, -4.0992365
0.0460588, -0.0062104, 0.3915, 0.090271, 0.3915, -1.0023193, 0.3915, -0.1877441, 0.3915, 1.5648855, 0.3915, 0.221374, 0.3915, -3.9847329
0.0468529, -0.0035248, 0.39825, 0.0872803, 0.39825, -1.0026855, 0.39825, -0.1902466, 0.39825, 1.7328244, 0.39825, 0.0687023, 0.39825, -3.9465649
0.0476471, -0.0062104, 0.405, 0.0881958, 0.405, -0.9991455, 0.405, -0.1931152, 0.405, 1.6641221, 0.405, 0.2442748, 0.405, -4.0534353
0.0484412, -0.0119173, 0.41175, 0.0897217, 0.41175, -0.9936523, 0.41175, -0.1907349, 0.41175, 1.3816794, 0.41175, 0.7099237, 0.41175, -3.8320611
0.0492353, -0.0132601, 0.4185, 0.0899658, 0.4185, -0.9960938, 0.4185, -0.1889038, 0.4185, 1.3740458, 0.4185, 0.8854962, 0.4185, -3.9007633
0.0500294, -0.0135958, 0.42525, 0.0917358, 0.42525, -0.9984741, 0.42525, -0.18573, 0.42525, 1.5877863, 0.42525, 1.091603, 0.42525, -3.7175572
0.0508235, -0.0184634, 0.432, 0.0904541, 0.432, -0.9987793, 0.432, -0.1895142, 0.432, 1.7328244, 0.432, 0.8396947, 0.432, -3.610687
0.0516176, -0.0206455, 0.43875, 0.088562, 0.43875, -0.9981689, 0.43875, -0.1880493, 0.43875, 1.5954199, 0.43875, 0.740458, 0.43875, -3.778626
0.0524118, -0.0238346, 0.4455, 0.090332, 0.4455, -0.999939, 0.4455, -0.18573, 0.4455, 1.6030535, 0.4455, 0.7557252, 0.4455, -3.480916
0.0532059, -0.0236667, 0.45225, 0.0888672, 0.45225, -0.9978027, 0.45225, -0.1799316, 0.45225, 1.519084, 0.45225, 0.8167939, 0.45225, -3.7633588
0.054, -0.024506, 0.459, 0.085022, 0.459, -0.9981079, 0.459, -0.180603, 0.459, 1.6946565, 0.459, 0.9160305, 0.459, -3.5419848
0.0547941, -0.0246738, 0.46575, 0.0893555, 0.46575, -1.0003662, 0.46575, -0.1861572, 0.46575, 1.4732825, 0.46575, 0.4961832, 0.46575, -3.7557251
0.0555882, -0.0240024, 0.4725, 0.0889893, 0.4725, -0.9989014, 0.4725, -0.1820068, 0.4725, 1.8167939, 0.4725, 0.3358779, 0.4725, -3.7709923
0.0563824, -0.0224918, 0.47925, 0.0875854, 0.47925, -0.9996338, 0.47925, -0.1835938, 0.47925, 1.8931298, 0.47925, 0.4656489, 0.47925, -3.7175572
0.0571765, -0.0157778, 0.486, 0.0870972, 0.486, -1.0020752, 0.486, -0.1802979, 0.486, 1.778626, 0.486, 0.5038168, 0.486, -3.6030533
0.0579706, -0.0164492, 0.49275, 0.0842896, 0.49275, -0.9990234, 0.49275, -0.1707153, 0.49275, 2.0152671, 0.49275, 1.0458015, 0.49275, -3.5496182
0.0587647, -0.0193027, 0.4995, 0.0898438, 0.4995, -0.994812, 0.4995, -0.187439, 0.4995, 1.648855, 0.4995, 0.9847328, 0.4995, -3.389313
0.0595588, -0.0191348, 0.50625, 0.0859375, 0.50625, -0.9976807, 0.50625, -0.1873779, 0.50625, 1.6335878, 0.50625, 0.6641222, 0.50625, -3.519084
0.0603529, -0.0125887, 0.513, 0.0878296, 0.513, -0.9970703, 0.513, -0.1832275, 0.513, 1.5725191, 0.513, 0.7328244, 0.513, -3.4503818
0.0611471, -0.0112459, 0.51975, 0.0893555, 0.51975, -1.0002441, 0.51975, -0.1831055, 0.51975, 1.6946565, 0.51975, 0.9923664, 0.51975, -3.3664122
0.0619412, -0.0077211, 0.5265, 0.0874023, 0.5265, -0.9989014, 0.5265, -0.1780396, 0.5265, 1.480916, 0.5265, 1.0992366, 0.5265, -3.5267177
0.0627353, -0.0058747, 0.53325, 0.0900269, 0.53325, -0.9990845, 0.53325, -0.1776733, 0.53325, 1.5038168, 0.53325, 1.4198474, 0.53325, -3.4351146
0.0635294, -0.0031891, 0.54, 0.0911255, 0.54, -0.9994507, 0.54, -0.1763916, 0.54, 1.4961832, 0.54, 1.8015267, 0.54, -3.1526718
0.0643235, -0.0030213, 0.54675, 0.0863647, 0.54675, -0.9991455, 0.54675, -0.1777954, 0.54675, 1.5725191, 0.54675, 1.870229, 0.54675, -3.2824428
0.0651176, 0.0025177, 0.5535, 0.0874634, 0.5535, -0.9988403, 0.5535, -0.1826172, 0.5535, 1.7099236, 0.5535, 1.3435115, 0.5535, -3.1832061
0.0659118, 0.0045319, 0.56025, 0.0877075, 0.56025, -0.9963379, 0.56025, -0.1869507, 0.56025, 1.4961832, 0.56025, 1.259542, 0.56025, -3.0534351
0.0667059, -0.0025177, 0.567, 0.0906982, 0.567, -1.0018921, 0.567, -0.1873169, 0.567, 1.2900764, 0.567, 1.2519084, 0.567, -3.1450381
0.0675, -0.0046998, 0.57375, 0.0924683, 0.57375, -0.9981689, 0.57375, -0.1842041, 0.57375, 1.5114504, 0.57375, 1.2061069, 0.57375, -3.1068702
0.0682941, -0.0109102, 0.5805, 0.0886841, 0.5805, -0.9985962, 0.5805, -0.1821899, 0.5805, 1.6183206, 0.5805, 1.4274809, 0.5805, -3.1374047
0.0690882, -0.0149386, 0.58725, 0.0891724, 0.58725, -0.9981689, 0.58725, -0.1844482, 0.58725, 1.610687, 0.58725, 1.1145039, 0.58725, -3.1374047
0.0698824, -0.0139315, 0.594, 0.0888672, 0.594, -1.0012207, 0.594, -0.1867676, 0.594, 1.7099236, 0.594, 1.0305344, 0.594, -2.9923663
0.0706765, -0.0149386, 0.60075, 0.0870361, 0.60075, -1.0032349, 0.60075, -0.1871338, 0.60075, 1.6946565, 0.60075, 0.7175573, 0.60075, -3.2977099
0.0714706, -0.0162814, 0.6075, 0.0888062, 0.6075, -1.0015869, 0.6075, -0.1859131, 0.6075, 1.6641221, 0.6075, 0.5877863, 0.6075, -3.1526718
0.0722647, -0.0198062, 0.61425, 0.0897217, 0.61425, -0.9974365, 0.61425, -0.185791, 0.61425, 1.7709924, 0.61425, 0.7099237, 0.61425, -3.1908398
0.0730588, -0.0243381, 0.621, 0.0886841, 0.621, -0.9975586, 0.621, -0.1809082, 0.621, 1.7328244, 0.621, 0.778626, 0.621, -3.3435113
0.0738529, -0.0243381, 0.62775, 0.0881958, 0.62775, -1.0008545, 0.62775, -0.1861572, 0.62775, 1.7175573, 0.62775, 0.4045801, 0.62775, -3.091603
0.0746471, -0.0263523, 0.6345, 0.0875854, 0.6345, -0.9995117, 0.6345, -0.1838989, 0.6345, 1.8015267, 0.6345, 0.5343512, 0.6345, -2.9923663
0.0754412, -0.0240024, 0.64125, 0.0879517, 0.64125, -1.0004272, 0.64125, -0.1847534, 0.64125, 1.8931298, 0.64125, 0.4732825, 0.64125, -3.2137403
0.0762353, -0.0162814, 0.648, 0.0877686, 0.648, -0.9990234, 0.648, -0.1834717, 0.648, 1.6870229, 0.648, 0.351145, 0.648, -3.3053436
0.0770294, -0.0135958, 0.65475, 0.0869751, 0.65475, -0.9978638, 0.65475, -0.1797485, 0.65475, 1.6183206, 0.65475, 0.4198473, 0.65475, -3.1908398
0.0778235, -0.0172885, 0.6615, 0.0892944, 0.6615, -0.9978638, 0.6615, -0.1850586, 0.6615, 1.7099236, 0.6615, 0.2671756, 0.6615, -3.1603053
0.0786176, -0.0157778, 0.66825, 0.0872192, 0.66825, -1.0005493, 0.66825, -0.1826782, 0.66825, 1.7938931, 0.66825, 0.2824427, 0.66825, -3.221374
0.0794118, -0.0132601, 0.675, 0.0858154, 0.675, -1.0023193, 0.675, -0.1791382, 0.675, 1.7480916, 0.675, 0.4961832, 0.675, -3.0152671
0.0802059, -0.008896, 0.68175, 0.0874634, 0.68175, -1, 0.68175, -0.1803589, 0.68175, 1.6183206, 0.68175, 0.4580153, 0.68175, -3.1526718
0.081, -0.0057069, 0.6885, 0.0870972, 0.6885, -1.0010986, 0.6885, -0.1860352, 0.6885, 1.6641221, 0.6885, 0.3740458, 0.6885, -3.0534351
0.0817941, -0.0058747, 0.69525, 0.0924072, 0.69525, -1.0009155, 0.69525, -0.1829834, 0.69525, 1.6717557, 0.69525, 0.5038168, 0.69525, -3.0229008
0.0825882, -0.0075532, 0.702, 0.0925903, 0.702, -1.0001221, 0.702, -0.1802979, 0.702, 1.610687, 0.702, 0.5496183, 0.702, -2.8854961
0.0833824, -0.0068818, 0.70875, 0.0890503, 0.70875, -1.0021362, 0.70875, -0.1800537, 0.70875, 1.5496184, 0.70875, 0.4122137, 0.70875, -3.0763359
0.0841765, -0.0112459, 0.7155, 0.086731, 0.7155, -0.9990234, 0.7155, -0.1828003, 0.7155, 1.4427481, 0.7155, 0.5572519, 0.7155, -3.038168
0.0849706, -0.0149386, 0.72225, 0.0864258, 0.72225, -0.9995728, 0.72225, -0.1879272, 0.72225, 1.5343511, 0.72225, 0.519084, 0.72225, -3.221374
0.0857647, -0.0139315, 0.729, 0.0877686, 0.729, -0.9992676, 0.729, -0.180603, 0.729, 1.6030535, 0.729, 0.3282443, 0.729, -3.1221373
0.0865588, -0.0115816, 0.73575, 0.0855713, 0.73575, -0.9993896, 0.73575, -0.1797485, 0.73575, 1.648855, 0.73575, 0.2900763, 0.73575, -3.1755726
0.0873529, -0.0169528, 0.7425, 0.0853271, 0.7425, -1.0015259, 0.7425, -0.1813354, 0.7425, 1.5954199, 0.7425, 0.4198473, 0.7425, -3.091603
0.0881471, -0.0236667, 0.74925, 0.0845947, 0.74925, -0.9988403, 0.74925, -0.1812134, 0.74925, 1.7099236, 0.74925, 0.7557252, 0.74925, -3.0152671
0.0889412, -0.0216526, 0.756, 0.0866699, 0.756, -0.9963379, 0.756, -0.1813965, 0.756, 1.610687, 0.756, 0.9312977, 0.756, -2.8396947
0.0897353, -0.0209812, 0.76275, 0.0872803, 0.76275, -0.9962769, 0.76275, -0.1824951, 0.76275, 1.870229, 0.76275, 1.0610687, 0.76275, -2.9160306
0.0905294, -0.018967, 0.7695, 0.0844727, 0.7695, -0.9959106, 0.7695, -0.1843872, 0.7695, 1.7251909, 0.7695, 1.0839695, 0.7695, -2.8931298
0.0913235, -0.0209812, 0.77625, 0.0870361, 0.77625, -0.9989624, 0.77625, -0.1837158, 0.77625, 1.1984733, 0.77625, 1.6564885, 0.77625, -2.8625953
0.0921176, -0.0209812, 0.783, 0.0884399, 0.783, -1.0024414, 0.783, -0.1780396, 0.783, 0.8549618, 0.783, 2.2519083, 0.783, -2.7938931
0.0929118, -0.0157778, 0.78975, 0.0864258, 0.78975, -0.9984131, 0.78975, -0.1776733, 0.78975, 1.3358779, 0.78975, 2.6946564, 0.78975, -2.908397
0.0937059, -0.0117494, 0.7965, 0.083252, 0.7965, -0.9996338, 0.7965, -0.1807861, 0.7965, 1.2900764, 0.7965, 2.6717558, 0.7965, -2.7862597
0.0945, -0.0099031, 0.80325, 0.0829468, 0.80325, -0.9993286, 0.80325, -0.178833, 0.80325, 1.1221374, 0.80325, 2.2748091, 0.80325, -2.961832
0.0952941, -0.0062104, 0.81, 0.0827637, 0.81, -0.9956665, 0.81, -0.1818848, 0.81, 1.2671756, 0.81, 1.8473282, 0.81, -2.908397
0.0960882, -0.0102388, 0.81675, 0.0824585, 0.81675, -0.9994507, 0.81675, -0.1835327, 0.81675, 1.3587786, 0.81675, 1.4885496, 0.81675, -2.7480917
0.0968824, -0.0135958, 0.8235, 0.0841675, 0.8235, -0.9976807, 0.8235, -0.1781616, 0.8235, 1.2519084, 0.8235, 1.2977099, 0.8235, -2.8778627
0.0976765, -0.0115816, 0.83025, 0.0857544, 0.83025, -0.9963989, 0.83025, -0.1796875, 0.83025, 1.1679389, 0.83025, 1.2061069, 0.83025, -2.7938931
0.0984706, -0.0115816, 0.837, 0.0839233, 0.837, -0.996521, 0.837, -0.1831055, 0.837, 1.259542, 0.837, 0.8549618, 0.837, -2.7862597
0.0992647, -0.0166171, 0.84375, 0.0870361, 0.84375, -1.0006104, 0.84375, -0.1825562, 0.84375, 1.3587786, 0.84375, 0.8320611, 0.84375, -2.8931298
0.1000588, -0.0216526, 0.8505, 0.0853271, 0.8505, -1.001709, 0.8505, -0.1813965, 0.8505, 1.3435115, 0.8505, 0.9694657, 0.8505, -2.8854961
0.1008529, -0.0256809, 0.85725, 0.0863037, 0.85725, -1.0023193, 0.85725, -0.1790161, 0.85725, 1.259542, 0.85725, 0.778626, 0.85725, -2.9923663
0.1016471, -0.0323949, 0.864, 0.0844116, 0.864, -1.0005493, 0.864, -0.1802979, 0.864, 1.3435115, 0.864, 0.7557252, 0.864, -3.038168
0.1024412, -0.0364233, 0.87075, 0.0847778, 0.87075, -0.9976196, 0.87075, -0.1809692, 0.87075, 1.4580153, 0.87075, 0.4656489, 0.87075, -2.961832
0.1032353, -0.0273594, 0.8775, 0.0842285, 0.8775, -1.0031738, 0.8775, -0.1798096, 0.8775, 1.2977099, 0.8775, 0.6870229, 0.8775, -3.0458016
0.1040294, -0.0199741, 0.88425, 0.0812378, 0.88425, -1.0024414, 0.88425, -0.180542, 0.88425, 0.9541985, 0.88425, 0.6870229, 0.88425, -2.870229
0.1048235, -0.0229953, 0.891, 0.0814819, 0.891, -1.0028687, 0.891, -0.178772, 0.891, 1.3129771, 0.891, 0.6793893, 0.891, -2.8244274
0.1056176, -0.0184634, 0.89775, 0.081665, 0.89775, -0.99823, 0.89775, -0.1826782, 0.89775, 1.259542, 0.89775, 0.9465649, 0.89775, -2.778626
0.1064118, -0.0095674, 0.9045, 0.0834961, 0.9045, -1.0013428, 0.9045, -0.1803589, 0.9045, 1.0534351, 0.9045, 1.0839695, 0.9045, -2.778626
0.1072059, -0.0043641, 0.91125, 0.0849609, 0.91125, -1.0023193, 0.91125, -0.178772, 0.91125, 0.9160305, 0.91125, 1.2519084, 0.91125, -2.9770992
0.108, -0.0090639, 0.918, 0.0855103, 0.918, -0.9998169, 0.918, -0.1779785, 0.918, 1.0076336, 0.918, 0.9694657, 0.918, -2.9694657
0.1087941, -0.0085603, 0.92475, 0.0841675, 0.92475, -1.0009155, 0.92475, -0.1734619, 0.92475, 1.0687023, 0.92475, 0.870229, 0.92475, -2.908397
0.1095882, -0.0078889, 0.9315, 0.0866089, 0.9315, -0.9977417, 0.9315, -0.1815796, 0.9315, 1.1679389, 0.9315, 1.0152671, 0.9315, -2.9007633
0.1103824, -0.0058747, 0.93825, 0.0906372, 0.93825, -0.9951782, 0.93825, -0.1826782, 0.93825, 1.1221374, 0.93825, 0.6335878, 0.93825, -2.9236641
0.1111765, -0.0038605, 0.945, 0.0866699, 0.945, -0.9985352, 0.945, -0.1798706, 0.945, 0.8625954, 0.945, 0.740458, 0.945, -3.0534351
0.1119706, -0.0048676, 0.95175, 0.0836792, 0.95175, -0.9987793, 0.95175, -0.1762085, 0.95175, 0.5801527, 0.95175, 0.7099237, 0.95175, -2.9160306
0.1127647, -0.0038605, 0.9585, 0.0819092, 0.9585, -0.9975586, 0.9585, -0.1812134, 0.9585, 0.3664122, 0.9585, 0.6183206, 0.9585, -2.9847329
0.1135588, -0.002182, 0.96525, 0.0836792, 0.96525, -0.9968872, 0.96525, -0.1827393, 0.96525, 0.3664122, 0.96525, 0.5801527, 0.96525, -2.9541984
0.1143529, -0.0010071, 0.972, 0.0876465, 0.972, -0.9973145, 0.972, -0.1853638, 0.972, 0.5725191, 0.972, 0.7099237, 0.972, -2.9160306
0.1151471, -0.008896, 0.97875, 0.0872803, 0.97875, -1.0014648, 0.97875, -0.1811523, 0.97875, 0.5267175, 0.97875, 0.6870229, 0.97875, -2.9847329
0.1159412, -0.0151064, 0.9855, 0.0901489, 0.9855, -1.0011597, 0.9855, -0.1864624, 0.9855, 0.8625954, 0.9855, 0.3664122, 0.9855, -3.0763359
0.1167353, -0.0129244, 0.99225, 0.09021, 0.99225, -0.9996948, 0.99225, -0.189209, 0.99225, 0.9541985, 0.99225, 0.5419847, 0.99225, -2.8549619
0.1175294, -0.0139315, 0.999, 0.0908203, 0.999, -0.9966431, 0.999, -0.19104, 0.999, 1.2900764, 0.999, 0.6259542, 0.999, -2.9694657
0.1183235, -0.0216526, 1.00575, 0.0916138, 1.00575, -0.9976807, 1.00575, -0.1870728, 1.00575, 1.3816794, 1.00575, 1, 1.00575, -2.908397
0.1191176, -0.0203098, 1.0125, 0.0901489, 1.0125, -0.996521, 1.0125, -0.1913452, 1.0125, 1.6412214, 1.0125, 1.1603054, 1.0125, -2.7022901
0.1199118, -0.0137636, 1.01925, 0.0874634, 1.01925, -1.0012817, 1.01925, -0.1920776, 1.01925, 1.5419847, 1.01925, 1.1679389, 1.01925, -2.5725191
0.1207059, -0.0139315, 1.026, 0.086853, 1.026, -1.0023804, 1.026, -0.1906128, 1.026, 1.4274809, 1.026, 1.259542, 1.026, -2.6412213
0.1215, -0.0159457, 1.03275, 0.0912476, 1.03275, -1.0015869, 1.03275, -0.1877441, 1.03275, 2.0152671, 1.03275, 1.1679389, 1.03275, -2.7099237
0.1222941, -0.0216526, 1.0395, 0.086731, 1.0395, -1.0015869, 1.0395, -0.1900635, 1.0395, 2.1450381, 1.0395, 1.3282443, 1.0395, -2.5343511
0.1230882, -0.0182956, 1.04625, 0.0842285, 1.04625, -1.0006714, 1.04625, -0.1890869, 1.04625, 2.0229008, 1.04625, 1.4122137, 1.04625, -2.5801528
0.1238824, -0.018967, 1.053, 0.0882568, 1.053, -1.0018921, 1.053, -0.1875, 1.053, 2.0610688, 1.053, 1.2824427, 1.053, -2.7709923
0.1246765, -0.0203098, 1.05975, 0.0916748, 1.05975, -1.0033569, 1.05975, -0.1884766, 1.05975, 2.129771, 1.05975, 1.221374, 1.05975, -2.5954199
0.1254706, -0.0182956, 1.0665, 0.0925903, 1.0665, -1.0056152, 1.0665, -0.1863403, 1.0665, 2.3053436, 1.0665, 1.4122137, 1.0665, -2.5725191
0.1262647, -0.0161135, 1.07325, 0.0913696, 1.07325, -1.0032349, 1.07325, -0.1856079, 1.07325, 2.4732823, 1.07325, 1.3969465, 1.07325, -2.648855
0.1270588, -0.0140993, 1.08, 0.0883179, 1.08, -1.0018921, 1.08, -0.182312, 1.08, 2.4427481, 1.08, 1.3282443, 1.08, -2.5954199
0.1278529, -0.005539, 1.08675, 0.0819702, 1.08675, -1.0022583, 1.08675, -0.1841431, 1.08675, 2.4427481, 1.08675, 1.2977099, 1.08675, -2.6946564
0.1286471, -0.0001678, 1.0935, 0.0808716, 1.0935, -1.0036011, 1.0935, -0.1811523, 1.0935, 2.4427481, 1.0935, 1.2748091, 1.0935, -2.7557251
0.1294412, -0.005539, 1.10025, 0.081543, 1.10025, -1, 1.10025, -0.1820679, 1.10025, 2.3740458, 1.10025, 0.961832, 1.10025, -2.778626
0.1302353, -0.0065461, 1.107, 0.0786743, 1.107, -0.9995728, 1.107, -0.1766968, 1.107, 2.480916, 1.107, 1, 1.107, -2.6793892
0.1310294, -0.0028534, 1.11375, 0.0806274, 1.11375, -0.9956665, 1.11375, -0.1790161, 1.11375, 2.3969467, 1.11375, 1.2824427, 1.11375, -2.6564887
0.1318235, 0.0011749, 1.1205, 0.0809326, 1.1205, -0.9936523, 1.1205, -0.1786499, 1.1205, 2.4656489, 1.1205, 1.2442749, 1.1205, -2.6030533
0.1326176, 0.0020142, 1.12725, 0.0787964, 1.12725, -0.9943237, 1.12725, -0.178894, 1.12725, 2.4732823, 1.12725, 0.908397, 1.12725, -2.5572519
0.1334118, -0.0130922, 1.134, 0.0855713, 1.134, -0.9949951, 1.134, -0.180481, 1.134, 2.5725191, 1.134, 1.1526718, 1.134, -2.5267177
0.1342059, -0.0224918, 1.14075, 0.090271, 1.14075, -0.9968872, 1.14075, -0.1835327, 1.14075, 2.5267177, 1.14075, 1.2061069, 1.14075, -2.3053436
0.135, -0.0196384, 1.1475, 0.090332, 1.1475, -0.9985352, 1.1475, -0.1832275, 1.1475, 2.610687, 1.1475, 1.5038168, 1.1475, -2.3816793
0.1357941, -0.0129244, 1.15425, 0.0932007, 1.15425, -0.9984741, 1.15425, -0.184021, 1.15425, 2.7557251, 1.15425, 1.6717557, 1.15425, -2.0610688
0.1365882, -0.0065461, 1.161, 0.0957642, 1.161, -0.9989624, 1.161, -0.1837158, 1.161, 2.8244274, 1.161, 2.0992367, 1.161, -1.9312977
0.1373824, -0.0129244, 1.16775, 0.0941162, 1.16775, -0.9985962, 1.16775, -0.1815796, 1.16775, 2.9770992, 1.16775, 2.4656489, 1.16775, -1.9312977
0.1381765, -0.0219883, 1.1745, 0.0940552, 1.1745, -0.9978027, 1.1745, -0.1785278, 1.1745, 3.3053436, 1.1745, 2.6183207, 1.1745, -1.9847329
0.1389706, -0.0297093, 1.18125, 0.0908203, 1.18125, -0.9976807, 1.18125, -0.1820679, 1.18125, 3.1755726, 1.18125, 2.9007633, 1.18125, -1.9923664
0.1397647, -0.0426337, 1.188, 0.0874634, 1.188, -0.9957275, 1.188, -0.1774292, 1.188, 3.1679389, 1.188, 2.9541984, 1.188, -1.8396946
0.1405588, -0.047837, 1.19475, 0.0856323, 1.19475, -0.9955444, 1.19475, -0.1727295, 1.19475, 3.2977099, 1.19475, 3.038168, 1.19475, -1.740458
0.1413529, -0.0446479, 1.2015, 0.0875244, 1.2015, -0.9959106, 1.2015, -0.1688232, 1.2015, 3.5114503, 1.2015, 2.8473282, 1.2015, -1.648855
0.1421471, -0.0374304, 1.20825, 0.0845947, 1.20825, -0.9962158, 1.20825, -0.166748, 1.20825, 3.6183207, 1.20825, 2.519084, 1.20825, -1.6564885
0.1429412, -0.0323949, 1.215, 0.090271, 1.215, -0.994751, 1.215, -0.1706543, 1.215, 3.4961832, 1.215, 2.2137403, 1.215, -1.7099236
0.1437353, -0.0417945, 1.22175, 0.0924683, 1.22175, -0.9922485, 1.22175, -0.1679688, 1.22175, 3.1374047, 1.22175, 2.351145, 1.22175, -1.5114504
0.1445294, -0.0637827, 1.2285, 0.0983887, 1.2285, -0.9863281, 1.2285, -0.1675415, 1.2285, 3.0076337, 1.2285, 2.6259542, 1.2285, -1.351145
0.1453235, -0.0654612, 1.23525, 0.1015625, 1.23525, -0.9851074, 1.23525, -0.1636353, 1.23525, 2.9236641, 1.23525, 3.6717558, 1.23525, -1.2442749
0.1461176, -0.0276951, 1.242, 0.0985718, 1.242, -0.9856567, 1.242, -0.1625366, 1.242, 2.7480917, 1.242, 4.1450381, 1.242, -1.129771
0.1469118, 0.0364233, 1.24875, 0.1022339, 1.24875, -0.9856567, 1.24875, -0.1707153, 1.24875, 2.5038168, 1.24875, 4.7938933, 1.24875, -1.0839695
0.1477059, 0.0621042, 1.2555, 0.1027832, 1.2555, -0.9871216, 1.2555, -0.1740112, 1.2555, 2.4961832, 1.2555, 5.4351144, 1.2555, -1
0.1485, 0.0481727, 1.26225, 0.0996094, 1.26225, -0.9924927, 1.26225, -0.1745605, 1.26225, 2.2977099, 1.26225, 6.6030536, 1.26225, -0.8320611
0.1492941, 0.0381018, 1.269, 0.0888672, 1.269, -0.9984741, 1.269, -0.1697388, 1.269, 1.908397, 1.269, 7.5267177, 1.269, -0.7557252
0.1500882, 0.0330663, 1.27575, 0.0761719, 1.27575, -1.0024414, 1.27575, -0.1715698, 1.27575, 1.6793894, 1.27575, 8, 1.27575, -0.5572519
0.1508824, 0.0218204, 1.2825, 0.0679932, 1.2825, -1.0056152, 1.2825, -0.1694946, 1.2825, 1.7328244, 1.2825, 7.8549619, 1.2825, -0.7251908
0.1516765, 0.0092317, 1.28925, 0.0620728, 1.28925, -1.0010376, 1.28925, -0.1662598, 1.28925, 1.7022901, 1.28925, 7.5954199, 1.28925, -0.6870229
0.1524706, -0.0057069, 1.296, 0.0601807, 1.296, -1.0003662, 1.296, -0.170105, 1.296, 1.5419847, 1.296, 7.038168, 1.296, -0.7557252
0.1532647, -0.0246738, 1.30275, 0.0608521, 1.30275, -1.0010986, 1.30275, -0.1697998, 1.30275, 1.2748091, 1.30275, 6.3969464, 1.30275, -1.2519084
0.1540588, -0.0360876, 1.3095, 0.060791, 1.3095, -1.0045166, 1.3095, -0.1661987, 1.3095, 1.038168, 1.3095, 5.8244276, 1.3095, -1.038168
0.1548529, -0.0317235, 1.31625, 0.0648804, 1.31625, -1.0031738, 1.31625, -0.1685791, 1.31625, 0.9007633, 1.31625, 5.2290077, 1.31625, -1.389313
0.1556471, -0.0250095, 1.323, 0.0648193, 1.323, -1.0068359, 1.323, -0.1676636, 1.323, 0.610687, 1.323, 4.9923663, 1.323, -1.519084
0.1564412, -0.018967, 1.32975, 0.0687866, 1.32975, -1.0076904, 1.32975, -0.1685791, 1.32975, 0.740458, 1.32975, 4.5419846, 1.32975, -1.5725191
0.1572353, -0.0135958, 1.3365, 0.0685425, 1.3365, -1.010376, 1.3365, -0.1646118, 1.3365, 0.8778626, 1.3365, 4.3053436, 1.3365, -1.6335878
0.1580294, -0.0058747, 1.34325, 0.0709839, 1.34325, -1.0048828, 1.34325, -0.1634521, 1.34325, 0.5572519, 1.34325, 4.2137403, 1.34325, -1.6946565
0.1588235, -0.0036927, 1.35, 0.0652466, 1.35, -1.0081177, 1.35, -0.1653442, 1.35, 0.5801527, 1.35, 3.7557251, 1.35, -1.908397
0.1596176, -0.0065461, 1.35675, 0.0651245, 1.35675, -1.0107422, 1.35675, -0.1651611, 1.35675, 0.5496183, 1.35675, 2.9923663, 1.35675, -1.9312977
0.1604118, -0.0109102, 1.3635, 0.0644531, 1.3635, -1.0133667, 1.3635, -0.1670532, 1.3635, 0.4427481, 1.3635, 2.4503818, 1.3635, -2.2061069
0.1612059, -0.0182956, 1.37025, 0.0603027, 1.37025, -1.0169067, 1.37025, -0.1728516, 1.37025, 0.4122137, 1.37025, 1.9923664, 1.37025, -2.3358779
0.162, -0.0290379, 1.377, 0.0612183, 1.377, -1.0184326, 1.377, -0.1721191, 1.377, 0.4122137, 1.377, 1.3129771, 1.377, -2.6564887
0.1627941, -0.036759, 1.38375, 0.0603638, 1.38375, -1.0169678, 1.38375, -0.1760254, 1.38375, 0.1068702, 1.38375, 0.6183206, 1.38375, -2.5801528
0.1635882, -0.0404517, 1.3905, 0.065979, 1.3905, -1.0189819, 1.3905, -0.1758423, 1.3905, 0.0610687, 1.3905, -0.0076336, 1.3905, -2.9312978
0.1643824, -0.0438087, 1.39725, 0.0715332, 1.39725, -1.0133667, 1.39725, -0.1779175, 1.39725, -0.0076336, 1.39725, -0.4732825, 1.39725, -3.1145039
0.1651765, -0.0412909, 1.404, 0.0769653, 1.404, -1.0077515, 1.404, -0.182251, 1.404, 0.1832061, 1.404, -0.9236641, 1.404, -3.3435113
0.1659706, -0.0416266, 1.41075, 0.0762329, 1.41075, -1.005188, 1.41075, -0.1821899, 1.41075, 0.0916031, 1.41075, -0.7862595, 1.41075, -3.3664122
0.1667647, -0.036759, 1.4175, 0.0796509, 1.4175, -1.0018921, 1.4175, -0.1832275, 1.4175, 0.1603053, 1.4175, -0.5801527, 1.4175, -3.4351146
0.1675588, -0.0303807, 1.42425, 0.0797729, 1.42425, -0.9993896, 1.42425, -0.1850586, 1.42425, 0.351145, 1.42425, -0.389313, 1.42425, -3.3053436
0.1683529, -0.0223239, 1.431, 0.0750732, 1.431, -0.9973755, 1.431, -0.1855469, 1.431, 0.3129771, 1.431, 0.0763359, 1.431, -3.5419848
0.1691471, -0.0184634, 1.43775, 0.0725098, 1.43775, -0.9968262, 1.43775, -0.1837769, 1.43775, 0.3129771, 1.43775, 0.1450382, 1.43775, -3.6183207
0.1699412, -0.018967, 1.4445, 0.0698242, 1.4445, -0.9946899, 1.4445, -0.1807251, 1.4445, 0.4961832, 1.4445, 0.1068702, 1.4445, -3.4503818
0.1707353, -0.0243381, 1.45125, 0.06604, 1.45125, -0.9940186, 1.45125, -0.1860352, 1.45125, 0.7022901, 1.45125, -0.0229008, 1.45125, -3.4885497
0.1715294, -0.0243381, 1.458, 0.0684814, 1.458, -0.9935913, 1.458, -0.1865234, 1.458, 0.6946565, 1.458, -0.2824427, 1.458, -3.5038168
0.1723235, -0.0243381, 1.46475, 0.0715332, 1.46475, -0.99823, 1.46475, -0.1900024, 1.46475, 0.8473282, 1.46475, -0.2061069, 1.46475, -3.5038168
0.1731176, -0.0206455, 1.4715, 0.0759888, 1.4715, -1.0007935, 1.4715, -0.1848145, 1.4715, 1.0763359, 1.4715, -0.1755725, 1.4715, -3.6030533
0.1739118, -0.0203098, 1.47825, 0.081665, 1.47825, -1.0025635, 1.47825, -0.1879883, 1.47825, 1.1755725, 1.47825, 0.1221374, 1.47825, -3.5496182
0.1747059, -0.0151064, 1.485, 0.0866699, 1.485, -1.001709, 1.485, -0.1863403, 1.485, 1.3664122, 1.485, 0.8625954, 1.485, -3.221374
0.1755, -0.0115816, 1.49175, 0.0856934, 1.49175, -0.9970093, 1.49175, -0.1873169, 1.49175, 1.4580153, 1.49175, 1.519084, 1.49175, -3.2900763
0.1762941, -0.0099031, 1.4985, 0.0875854, 1.4985, -0.9985962, 1.4985, -0.1875, 1.4985, 1.5572519, 1.4985, 2.1526718, 1.4985, -3.0687022
0.1770882, -0.0082246, 1.50525, 0.0900269, 1.50525, -1.0016479, 1.50525, -0.1833496, 1.50525, 1.7938931, 1.50525, 2.4427481, 1.50525, -2.8244274
0.1778824, -0.0058747, 1.512, 0.081604, 1.512, -1.0016479, 1.512, -0.1838379, 1.512, 1.9923664, 1.512, 2.5496182, 1.512, -2.7175572
0.1786765, -0.0048676, 1.51875, 0.081665, 1.51875, -1.0023193, 1.51875, -0.180603, 1.51875, 2.1526718, 1.51875, 2.4503818, 1.51875, -2.5114503
0.1794706, -0.0048676, 1.5255, 0.0799561, 1.5255, -1.0095215, 1.5255, -0.1796875, 1.5255, 2.3129771, 1.5255, 2.3587787, 1.5255, -2.648855
0.1802647, -0.0045319, 1.53225, 0.0776367, 1.53225, -1.0088501, 1.53225, -0.1795654, 1.53225, 2.4732823, 1.53225, 2.0610688, 1.53225, -2.7938931
0.1810588, -0.0038605, 1.539, 0.0808716, 1.539, -1.008728, 1.539, -0.1779785, 1.539, 2.610687, 1.539, 1.3435115, 1.539, -2.6717558
0.1818529, -0.0075532, 1.54575, 0.0802002, 1.54575, -1.0074463, 1.54575, -0.1796875, 1.54575, 2.4885497, 1.54575, 0.8854962, 1.54575, -2.7175572
0.1826471, -0.0043641, 1.5525, 0.0823975, 1.5525, -1.0018311, 1.5525, -0.1740112, 1.5525, 2.740458, 1.5525, 0.3587786, 1.5525, -2.7328243
0.1834412, -0.0075532, 1.55925, 0.0837402, 1.55925, -1.0036011, 1.55925, -0.1728516, 1.55925, 2.5496182, 1.55925, 0.1526718, 1.55925, -2.8091602
0.1842353, -0.0124208, 1.566, 0.0840454, 1.566, -1.0048218, 1.566, -0.1741333, 1.566, 2.4503818, 1.566, -0.0916031, 1.566, -2.740458
0.1850294, -0.0104067, 1.57275, 0.0804443, 1.57275, -1.006958, 1.57275, -0.1673584, 1.57275, 2.3816793, 1.57275, -0.389313, 1.57275, -2.9236641
0.1858235, -0.018967, 1.5795, 0.0765991, 1.5795, -1.0048218, 1.5795, -0.1651001, 1.5795, 2.3053436, 1.5795, -1.0229008, 1.5795, -2.9389312
0.1866176, -0.0199741, 1.58625, 0.0720825, 1.58625, -1.0029907, 1.58625, -0.1675415, 1.58625, 2.2519083, 1.58625, -1.4274809, 1.58625, -3.0458016
0.1874118, -0.01561, 1.593, 0.0745239, 1.593, -1.0003662, 1.593, -0.1629028, 1.593, 2.0763359, 1.593, -1.7099236, 1.593, -3.0458016
0.1882059, -0.014435, 1.59975, 0.0720215, 1.59975, -1.0018921, 1.59975, -0.1594849, 1.59975, 1.9694656, 1.59975, -1.9770992, 1.59975, -3.0839694
0.189, -0.0142672, 1.6065, 0.0675659, 1.6065, -0.9989014, 1.6065, -0.1570435, 1.6065, 1.8015267, 1.6065, -2.4580152, 1.6065, -3.2671757
0.1897941, -0.0117494, 1.61325, 0.0664673, 1.61325, -0.9993896, 1.61325, -0.15802, 1.61325, 1.6793894, 1.61325, -2.8854961, 1.61325, -3.5343511
0.1905882, -0.012253, 1.62, 0.0662842, 1.62, -1.0021973, 1.62, -0.1589355, 1.62, 1.4198474, 1.62, -3.2824428, 1.62, -3.5954199
0.1913824, -0.0090639, 1.62675, 0.0700073, 1.62675, -0.9984741, 1.62675, -0.1618042, 1.62675, 1.4122137, 1.62675, -3.648855, 1.62675, -3.5419848
0.1921765, -0.0041962, 1.6335, 0.067749, 1.6335, -0.9974976, 1.6335, -0.1641235, 1.6335, 1.3740458, 1.6335, -3.8854961, 1.6335, -3.6946564
0.1929706, -0.0040284, 1.64025, 0.0687866, 1.64025, -0.9981689, 1.64025, -0.1669922, 1.64025, 1.129771, 1.64025, -3.6641221, 1.64025, -3.5954199
0.1937647, -0.0065461, 1.647, 0.0690308, 1.647, -1.0026855, 1.647, -0.1689453, 1.647, 0.9160305, 1.647, -3.610687, 1.647, -3.7251909
0.1945588, -0.0057069, 1.65375, 0.0714722, 1.65375, -1.0029297, 1.65375, -0.1743774, 1.65375, 0.6946565, 1.65375, -3.480916, 1.65375, -3.8320611
0.1953529, -0.0023499, 1.6605, 0.0722046, 1.6605, -1.0067139, 1.6605, -0.1748047, 1.6605, 0.870229, 1.6605, -3.3587787, 1.6605, -3.740458
0.1961471, -0.0018463, 1.66725, 0.0759277, 1.66725, -1.00177, 1.66725, -0.1752319, 1.66725, 0.9847328, 1.66725, -2.9770992, 1.66725, -3.7633588
0.1969412, 0.0018463, 1.674, 0.0772095, 1.674, -0.9977417, 1.674, -0.1752319, 1.674, 0.7709923, 1.674, -2.4503818, 1.674, -3.8778627
0.1977353, 0.0011749, 1.68075, 0.0773926, 1.68075, -0.9954224, 1.68075, -0.1738281, 1.68075, 0.7251908, 1.68075, -2.3816793, 1.68075, -3.8396947
0.1985294, -0.0031891, 1.6875, 0.0760498, 1.6875, -0.9914551, 1.6875, -0.1713257, 1.6875, 0.8549618, 1.6875, -2.0687022, 1.6875, -3.8625953
0.1993235, -0.0036927, 1.69425, 0.0758667, 1.69425, -0.9822998, 1.69425, -0.1734619, 1.69425, 0.8167939, 1.69425, -1.7557251, 1.69425, -3.8320611
0.2001176, -0.0045319, 1.701, 0.076416, 1.701, -0.9837036, 1.701, -0.1711426, 1.701, 0.4885496, 1.701, -1.4274809, 1.701, -3.7175572
0.2009118, -0.0077211, 1.70775, 0.074707, 1.70775, -0.9882202, 1.70775, -0.1678467, 1.70775, 0.5725191, 1.70775, -1.2137405, 1.70775, -3.7328243
0.2017059, -0.0102388, 1.7145, 0.0760498, 1.7145, -0.9892578, 1.7145, -0.1702271, 1.7145, 0.5343512, 1.7145, -1.3358779, 1.7145, -3.5954199
0.2025, -0.0169528, 1.72125, 0.0753784, 1.72125, -0.9949951, 1.72125, -0.1671143, 1.72125, 0.2519084, 1.72125, -1.4961832, 1.72125, -3.4351146
0.2032941, -0.0216526, 1.728, 0.0788574, 1.728, -0.9962769, 1.728, -0.1715088, 1.728, 0.389313, 1.728, -1.6641221, 1.728, -3.4503818
0.2040882, -0.0226596, 1.73475, 0.0874023, 1.73475, -0.9940186, 1.73475, -0.1697998, 1.73475, 0.5114504, 1.73475, -1.8320611, 1.73475, -3.3053436
0.2048824, -0.0216526, 1.7415, 0.0883789, 1.7415, -0.9943848, 1.7415, -0.1720581, 1.7415, 0.3969466, 1.7415, -1.8778626, 1.7415, -3.2977099
0.2056765, -0.0219883, 1.74825, 0.0913696, 1.74825, -0.9963379, 1.74825, -0.1746216, 1.74825, 0.519084, 1.74825, -1.7633588, 1.74825, -3.2137403
0.2064706, -0.0213169, 1.755, 0.09552, 1.755, -1.0009766, 1.755, -0.1779175, 1.755, 0.4961832, 1.755, -1.8396946, 1.755, -3.2366412
0.2072647, -0.0193027, 1.76175, 0.0999756, 1.76175, -0.9967651, 1.76175, -0.1763916, 1.76175, 0.6793893, 1.76175, -1.5954199, 1.76175, -3.1679389
0.2080588, -0.0219883, 1.7685, 0.1001587, 1.7685, -0.9979248, 1.7685, -0.1776733, 1.7685, 0.7557252, 1.7685, -1.0839695, 1.7685, -3.1526718
0.2088529, -0.0159457, 1.77525, 0.0982056, 1.77525, -0.9938354, 1.77525, -0.1782837, 1.77525, 0.7480916, 1.77525, -0.740458, 1.77525, -3.0687022
0.2096471, -0.0184634, 1.782, 0.0910034, 1.782, -0.9910889, 1.782, -0.180603, 1.782, 0.7099237, 1.782, -0.1679389, 1.782, -2.7938931
0.2104412, -0.0224918, 1.78875, 0.0884399, 1.78875, -0.987915, 1.78875, -0.180542, 1.78875, 0.5572519, 1.78875, 0.5038168, 1.78875, -2.6641221
0.2112353, -0.0176242, 1.7955, 0.0869141, 1.7955, -0.9946289, 1.7955, -0.1812134, 1.7955, 0.4351145, 1.7955, 0.8091603, 1.7955, -2.480916
0.2120294, -0.0129244, 1.80225, 0.0814209, 1.80225, -1.0007935, 1.80225, -0.1803589, 1.80225, 0.4961832, 1.80225, 1.1068702, 1.80225, -2.3282442
0.2128235, -0.0117494, 1.809, 0.0808105, 1.809, -1.0022583, 1.809, -0.1815186, 1.809, 0.3206107, 1.809, 1.4656489, 1.809, -2.4351146
0.2136176, -0.008896, 1.81575, 0.081665, 1.81575, -1.0025635, 1.81575, -0.1824951, 1.81575, 0.4732825, 1.81575, 2.0534351, 1.81575, -2.3053436
0.2144118, -0.0085603, 1.8225, 0.0791016, 1.8225, -1.0043945, 1.8225, -0.187439, 1.8225, 0.6564885, 1.8225, 2.7022901, 1.8225, -2.1450381
0.2152059, -0.008896, 1.82925, 0.0804443, 1.82925, -1.0061646, 1.82925, -0.1866455, 1.82925, 0.7328244, 1.82925, 3.4351146, 1.82925, -1.7328244
0.216, -0.0142672, 1.836, 0.0804443, 1.836, -1.0043335, 1.836, -0.1871338, 1.836, 0.8244275, 1.836, 3.8015268, 1.836, -1.9007634
0.2167941, -0.0125887, 1.84275, 0.0808716, 1.84275, -1.0046387, 1.84275, -0.1842651, 1.84275, 0.9160305, 1.84275, 4.1755724, 1.84275, -1.6946565
0.2175882, -0.012253, 1.8495, 0.0825195, 1.8495, -1.0010376, 1.8495, -0.18396, 1.8495, 1.0076336, 1.8495, 4.2900763, 1.8495, -1.7557251
0.2183824, -0.0129244, 1.85625, 0.0805664, 1.85625, -0.9973755, 1.85625, -0.1815186, 1.85625, 1.1679389, 1.85625, 4.2671757, 1.85625, -1.7633588
0.2191765, -0.0152743, 1.863, 0.0800171, 1.863, -0.9927368, 1.863, -0.1782837, 1.863, 1.2824427, 1.863, 4.3893127, 1.863, -1.870229
0.2199706, -0.0196384, 1.86975, 0.0767822, 1.86975, -0.994812, 1.86975, -0.1763306, 1.86975, 1.4198474, 1.86975, 4.1908398, 1.86975, -2.0152671
0.2207647, -0.0290379, 1.8765, 0.0665894, 1.8765, -0.9990234, 1.8765, -0.1749878, 1.8765, 1.4274809, 1.8765, 3.7251909, 1.8765, -2.0458016
0.2215588, -0.0276951, 1.88325, 0.0596924, 1.88325, -1.0047607, 1.88325, -0.1765137, 1.88325, 1.1374046, 1.88325, 2.9465649, 1.88325, -2.221374
0.2223529, -0.0218204, 1.89, 0.0621338, 1.89, -1.0133667, 1.89, -0.1738892, 1.89, 1.4885496, 1.89, 2.0839694, 1.89, -2.3206108
0.2231471, -0.0193027, 1.89675, 0.0634766, 1.89675, -1.0145874, 1.89675, -0.1751709, 1.89675, 1.610687, 1.89675, 1.3282443, 1.89675, -2.5725191
0.2239412, -0.0184634, 1.9035, 0.0635986, 1.9035, -1.0117798, 1.9035, -0.1727295, 1.9035, 1.4351145, 1.9035, 0.5572519, 1.9035, -2.7328243
0.2247353, -0.0149386, 1.91025, 0.0668335, 1.91025, -1.0076294, 1.91025, -0.1732178, 1.91025, 1.4732825, 1.91025, 0.4351145, 1.91025, -2.6564887
0.2255294, -0.0109102, 1.917, 0.0675049, 1.917, -1.0059814, 1.917, -0.1723022, 1.917, 1.4503816, 1.917, 0.1145038, 1.917, -2.6946564
0.2263235, -0.0082246, 1.92375, 0.0690308, 1.92375, -1.0089722, 1.92375, -0.173645, 1.92375, 1.3282443, 1.92375, -0.0763359, 1.92375, -2.7480917
0.2271176, -0.002182, 1.9305, 0.0704956, 1.9305, -1.0083618, 1.9305, -0.1741943, 1.9305, 1.3587786, 1.9305, -0.2519084, 1.9305, -2.7633588
0.2279118, -0.0062104, 1.93725, 0.0756226, 1.93725, -1.0060425, 1.93725, -0.1734619, 1.93725, 1.4656489, 1.93725, -0.5419847, 1.93725, -2.8244274
0.2287059, -0.0075532, 1.944, 0.0764771, 1.944, -1.0048218, 1.944, -0.170105, 1.944, 1.2977099, 1.944, -0.7862595, 1.944, -2.7099237
0.2295, -0.0139315, 1.95075, 0.0754395, 1.95075, -1.0056763, 1.95075, -0.1682129, 1.95075, 1.2977099, 1.95075, -1.0992366, 1.95075, -2.8320611
0.2302941, -0.0125887, 1.9575, 0.0777588, 1.9575, -1.0015259, 1.9575, -0.1681519, 1.9575, 1.2977099, 1.9575, -1.5877863, 1.9575, -2.9160306
0.2310882, -0.0063783, 1.96425, 0.0773926, 1.96425, -1.0018311, 1.96425, -0.164978, 1.96425, 1.3969465, 1.96425, -2.1450381, 1.96425, -2.8015268
0.2318824, -0.0097353, 1.971, 0.0742188, 1.971, -0.9992065, 1.971, -0.1651001, 1.971, 1.2900764, 1.971, -1.9847329, 1.971, -2.9847329
0.2326765, -0.0172885, 1.97775, 0.0768433, 1.97775, -0.9956055, 1.97775, -0.166748, 1.97775, 1.0992366, 1.97775, -2.908397, 1.97775, -2.8396947
0.2334706, -0.0229953, 1.9845, 0.0761719, 1.9845, -0.9987183, 1.9845, -0.1658936, 1.9845, 0.870229, 1.9845, -3.3587787, 1.9845, -2.6641221
0.2342647, -0.0263523, 1.99125, 0.0794678, 1.99125, -0.9969482, 1.99125, -0.1658325, 1.99125, 0.9694657, 1.99125, -3.1603053, 1.99125, -2.6870229
0.2350588, -0.0320592, 1.998, 0.0802002, 1.998, -0.9996948, 1.998, -0.1700439, 1.998, 0.7099237, 1.998, -3.4732823, 1.998, -2.7862597
0.2358529, -0.0280308, 2.00475, 0.081665, 2.00475, -0.9951782, 2.00475, -0.1686401, 2.00475, 0.6335878, 2.00475, -3.6564887, 2.00475, -2.3816793
0.2366471, -0.0303807, 2.0115, 0.0841675, 2.0115, -0.9981079, 2.0115, -0.1710815, 2.0115, 0.6564885, 2.0115, -3.480916, 2.0115, -2.3816793
0.2374412, -0.0364233, 2.01825, 0.0835571, 2.01825, -1.0007324, 2.01825, -0.1721191, 2.01825, 0.389313, 2.01825, -3.3053436, 2.01825, -2.389313
0.2382353, -0.0263523, 2.025, 0.0876465, 2.025, -1.005188, 2.025, -0.1734009, 2.025, 0.4732825, 2.025, -3.1221373, 2.025, -2.1603053
0.2390294, -0.0115816, 2.03175, 0.0894775, 2.03175, -1.0061646, 2.03175, -0.1781616, 2.03175, 0.4503817, 2.03175, -2.7862597, 2.03175, -1.961832
0.2398235, -0.0028534, 2.0385, 0.0890503, 2.0385, -1.0026245, 2.0385, -0.1820679, 2.0385, 0.259542, 2.0385, -2.3664122, 2.0385, -1.870229
0.2406176, 0.0025177, 2.04525, 0.0880127, 2.04525, -1.007019, 2.04525, -0.1810303, 2.04525, 0.480916, 2.04525, -1.8778626, 2.04525, -1.7938931
0.2414118, -0.0062104, 2.052, 0.0858154, 2.052, -1.0053711, 2.052, -0.18396, 2.052, 0.2977099, 2.052, -1.3358779, 2.052, -1.610687
0.2422059, -0.008896, 2.05875, 0.0840454, 2.05875, -1.0048828, 2.05875, -0.1856689, 2.05875, 0.2900763, 2.05875, -1.0458015, 2.05875, -1.5419847
0.243, -0.0149386, 2.0655, 0.0774536, 2.0655, -1.0037231, 2.0655, -0.1842041, 2.0655, 0.3740458, 2.0655, -0.8854962, 2.0655, -1.5801526
0.2437941, -0.0243381, 2.07225, 0.0728149, 2.07225, -1.0011597, 2.07225, -0.1842041, 2.07225, 0.5343512, 2.07225, -0.5496183, 2.07225, -1.3969465
0.2445882, -0.0219883, 2.079, 0.0701904, 2.079, -1.0022583, 2.079, -0.1847534, 2.079, 0.6641222, 2.079, -0.3587786, 2.079, -1.4885496
0.2453824, -0.0149386, 2.08575, 0.0704346, 2.08575, -1.0037842, 2.08575, -0.1838989, 2.08575, 0.7022901, 2.08575, -0.0458015, 2.08575, -1.3740458
0.2461765, -0.0092317, 2.0925, 0.0721436, 2.0925, -0.9997559, 2.0925, -0.1850586, 2.0925, 0.7251908, 2.0925, 0.2366412, 2.0925, -1.2748091
0.2469706, -0.0048676, 2.09925, 0.0731812, 2.09925, -1.0014648, 2.09925, -0.1864014, 2.09925, 0.870229, 2.09925, 0.5572519, 2.09925, -1.351145
0.2477647, -0.0030213, 2.106, 0.0697632, 2.106, -1.0015259, 2.106, -0.1891479, 2.106, 1.2137405, 2.106, 1.1832061, 2.106, -1.351145
0.2485588, -0.0085603, 2.11275, 0.0725708, 2.11275, -0.9990845, 2.11275, -0.1888428, 2.11275, 1.1526718, 2.11275, 1.6335878, 2.11275, -1.2824427
0.2493529, -0.0075532, 2.1195, 0.0690918, 2.1195, -0.9990234, 2.1195, -0.1851807, 2.1195, 1.1450381, 2.1195, 2.2137403, 2.1195, -1.2824427
0.2501471, -0.0062104, 2.12625, 0.0678101, 2.12625, -1.0013428, 2.12625, -0.1878052, 2.12625, 1.3129771, 2.12625, 2.610687, 2.12625, -1.2824427
0.2509412, -0.008896, 2.133, 0.0622559, 2.133, -0.9998169, 2.133, -0.1826172, 2.133, 1.6259542, 2.133, 2.7480917, 2.133, -1.3435115
0.2517353, -0.0102388, 2.13975, 0.0605469, 2.13975, -0.9995728, 2.13975, -0.1796875, 2.13975, 1.7938931, 2.13975, 2.5343511, 2.13975, -1.5725191
0.2525294, -0.0109102, 2.1465, 0.062561, 2.1465, -1.0009766, 2.1465, -0.1810913, 2.1465, 1.7557251, 2.1465, 2.5343511, 2.1465, -1.6183206
0.2533235, -0.0102388, 2.15325, 0.0608521, 2.15325, -0.9998169, 2.15325, -0.1798096, 2.15325, 1.8549619, 2.15325, 2.351145, 2.15325, -1.7022901
0.2541176, -0.0115816, 2.16, 0.0640869, 2.16, -0.9993286, 2.16, -0.1807861, 2.16, 1.9160305, 2.16, 2.1450381, 2.16, -1.8549619
0.2549118, -0.0095674, 2.16675, 0.0606689, 2.16675, -0.9963989, 2.16675, -0.1815186, 2.16675, 1.6870229, 2.16675, 2.0458016, 2.16675, -1.9465649
0.2557059, -0.011078, 2.1735, 0.0621338, 2.1735, -0.998291, 2.1735, -0.1742554, 2.1735, 1.7251909, 2.1735, 1.8244275, 2.1735, -1.961832
0.2565, -0.0149386, 2.18025, 0.0614624, 2.18025, -1.001709, 2.18025, -0.1754761, 2.18025, 1.7633588, 2.18025, 1.6564885, 2.18025, -2.091603
0.2572941, -0.0216526, 2.187, 0.0651245, 2.187, -1.0018921, 2.187, -0.1757812, 2.187, 1.908397, 2.187, 1.5419847, 2.187, -2.1908398
0.2580882, -0.0223239, 2.19375, 0.0626221, 2.19375, -0.9987183, 2.19375, -0.1782227, 2.19375, 1.9007634, 2.19375, 1.5954199, 2.19375, -2.1068702
0.2588824, -0.021149, 2.2005, 0.0666504, 2.2005, -1.0025024, 2.2005, -0.1726074, 2.2005, 1.8625954, 2.2005, 1.3816794, 2.2005, -2.129771
0.2596765, -0.0164492, 2.20725, 0.0618896, 2.20725, -1.0031738, 2.20725, -0.1738892, 2.20725, 1.8244275, 2.20725, 1.6641221, 2.20725, -2.3740458
0.2604706, -0.01561, 2.214, 0.06604, 2.214, -1.0004272, 2.214, -0.1731567, 2.214, 1.6335878, 2.214, 1.4961832, 2.214, -2.2519083
0.2612647, -0.0139315, 2.22075, 0.0655518, 2.22075, -0.9983521, 2.22075, -0.1722412, 2.22075, 1.5496184, 2.22075, 1.259542, 2.22075, -2.4274809
0.2620588, -0.0073854, 2.2275, 0.0645142, 2.2275, -1.0014648, 2.2275, -0.1685791, 2.2275, 1.6183206, 2.2275, 1.221374, 2.2275, -2.4427481
0.2628529, -0.0065461, 2.23425, 0.0670166, 2.23425, -1.0040283, 2.23425, -0.1700439, 2.23425, 1.389313, 2.23425, 0.9312977, 2.23425, -2.4198472
0.2636471, -0.0105745, 2.241, 0.0665894, 2.241, -1.0020752, 2.241, -0.1729736, 2.241, 1.519084, 2.241, 0.6564885, 2.241, -2.4656489
0.2644412, -0.0135958, 2.24775, 0.0662842, 2.24775, -0.9998779, 2.24775, -0.171936, 2.24775, 1.2366412, 2.24775, 0.4198473, 2.24775, -2.5648854
0.2652353, -0.0104067, 2.2545, 0.071167, 2.2545, -0.9997559, 2.2545, -0.1699219, 2.2545, 1.2977099, 2.2545, 0.3358779, 2.2545, -2.6183207
0.2660294, -0.0072175, 2.26125, 0.0724487, 2.26125, -0.9989014, 2.26125, -0.1697388, 2.26125, 1.2519084, 2.26125, 0.1984733, 2.26125, -2.6335878
0.2668235, -0.008896, 2.268, 0.0728149, 2.268, -0.9974365, 2.268, -0.1688232, 2.268, 1.2442749, 2.268, 0.259542, 2.268, -2.6717558
0.2676176, -0.0090639, 2.27475, 0.0691528, 2.27475, -0.9976807, 2.27475, -0.1694336, 2.27475, 1.1832061, 2.27475, 0.3206107, 2.27475, -2.4961832
0.2684118, -0.0135958, 2.2815, 0.0713501, 2.2815, -1.0026245, 2.2815, -0.1727905, 2.2815, 0.908397, 2.2815, 0.0076336, 2.2815, -2.5801528
0.2692059, -0.0149386, 2.28825, 0.0687866, 2.28825, -1.0043945, 2.28825, -0.1764526, 2.28825, 0.9160305, 2.28825, -0.1603053, 2.28825, -2.6183207
0.27, -0.0179599, 2.295, 0.0675659, 2.295, -1.0032959, 2.295, -0.1796875, 2.295, 0.908397, 2.295, -0.0381679, 2.295, -2.6259542
0.2707941, -0.0209812, 2.30175, 0.0673828, 2.30175, -1.0018921, 2.30175, -0.1818848, 2.30175, 0.9770992, 2.30175, -0.0992366, 2.30175, -2.5725191
0.2715882, -0.0229953, 2.3085, 0.0702515, 2.3085, -1.0039673, 2.3085, -0.1800537, 2.3085, 1.091603, 2.3085, -0.0916031, 2.3085, -2.610687
0.2723824, -0.0226596, 2.31525, 0.0708008, 2.31525, -1.0026855, 2.31525, -0.1814575, 2.31525, 1.1450381, 2.31525, -0.0916031, 2.31525, -2.3206108
0.2731765, -0.0203098, 2.322, 0.0716553, 2.322, -1.0021362, 2.322, -0.1816406, 2.322, 1.0458015, 2.322, 0.0610687, 2.322, -2.519084
0.2739706, -0.0182956, 2.32875, 0.0697021, 2.32875, -1.0025635, 2.32875, -0.1814575, 2.32875, 1.3740458, 2.32875, 0.221374, 2.32875, -2.2442749
0.2747647, -0.0041962, 2.3355, 0.0723267, 2.3355, -1.0007324, 2.3355, -0.1820679, 2.3355, 1.0076336, 2.3355, 0.1755725, 2.3355, -2.2519083
0.2755588, 0.0204776, 2.34225, 0.074585, 2.34225, -1.0007324, 2.34225, -0.1813965, 2.34225, 1.3053435, 2.34225, 0.4122137, 2.34225, -2.2900763
0.2763529, 0.0152743, 2.349, 0.0725708, 2.349, -1.0009766, 2.349, -0.1796875, 2.349, 1.5496184, 2.349, 0.2824427, 2.349, -2.0534351
0.2771471, -0.0025177, 2.35575, 0.0740967, 2.35575, -0.9980469, 2.35575, -0.18396, 2.35575, 1.5648855, 2.35575, 0.4503817, 2.35575, -2.1908398
0.2779412, -0.0152743, 2.3625, 0.0691528, 2.3625, -0.99823, 2.3625, -0.1775513, 2.3625, 1.5801526, 2.3625, 0.3816794, 2.3625, -2.038168
0.2787353, -0.0216526, 2.36925, 0.0651245, 2.36925, -1.0010986, 2.36925, -0.1768799, 2.36925, 1.7633588, 2.36925, 0.1068702, 2.36925, -2.0610688
0.2795294, -0.0146029, 2.376, 0.0643311, 2.376, -1.0043335, 2.376, -0.1773071, 2.376, 1.8244275, 2.376, -0.129771, 2.376, -2.0992367
0.2803235, -0.0062104, 2.38275, 0.0643921, 2.38275, -1.00177, 2.38275, -0.1792603, 2.38275, 1.8320611, 2.38275, -0.3816794, 2.38275, -2.0458016
0.2811176, -0.0082246, 2.3895, 0.0643921, 2.3895, -1.0036621, 2.3895, -0.1795654, 2.3895, 1.7251909, 2.3895, -0.6030535, 2.3895, -2.1374047
0.2819118, -0.0256809, 2.39625, 0.0601807, 2.39625, -1.0084229, 2.39625, -0.1755981, 2.39625, 1.6870229, 2.39625, -0.8244275, 2.39625, -1.961832
0.2827059, -0.0417945, 2.403, 0.0644531, 2.403, -1.0044556, 2.403, -0.1768188, 2.403, 1.5877863, 2.403, -1.038168, 2.403, -2.1221373
0.2835, -0.0498512, 2.40975, 0.0720215, 2.40975, -1.0047607, 2.40975, -0.1815796, 2.40975, 1.5114504, 2.40975, -0.9770992, 2.40975, -2.1221373
0.2842941, -0.0538796, 2.4165, 0.0750732, 2.4165, -1.0064697, 2.4165, -0.1759033, 2.4165, 1.8396946, 2.4165, -0.5648855, 2.4165, -2.3358779
0.2850882, -0.0548867, 2.42325, 0.0699463, 2.42325, -1.0043335, 2.42325, -0.1734009, 2.42325, 1.8625954, 2.42325, -0.2290076, 2.42325, -2.1145039
0.2858824, -0.0391089, 2.43, 0.0672607, 2.43, -1.00354, 2.43, -0.1702881, 2.43, 1.7633588, 2.43, -0.3358779, 2.43, -2.2061069
0.2866765, -0.0166171, 2.43675, 0.0625, 2.43675, -1.0020142, 2.43675, -0.1734619, 2.43675, 1.6412214, 2.43675, -0.1068702, 2.43675, -2.3282442
0.2874706, -0.0105745, 2.4435, 0.0582275, 2.4435, -1.0031128, 2.4435, -0.1721802, 2.4435, 1.5038168, 2.4435, -0.5267175, 2.4435, -2.4198472
0.2882647, -0.0115816, 2.45025, 0.0569458, 2.45025, -1.0003052, 2.45025, -0.1704102, 2.45025, 1.4656489, 2.45025, -0.8320611, 2.45025, -2.3206108
0.2890588, -0.0078889, 2.457, 0.0568237, 2.457, -1.0032959, 2.457, -0.168457, 2.457, 1.4274809, 2.457, -1.0992366, 2.457, -2.3816793
0.2898529, -0.0041962, 2.46375, 0.05896, 2.46375, -1.0020142, 2.46375, -0.1671753, 2.46375, 1.4351145, 2.46375, -1.3053435, 2.46375, -2.6259542
0.2906471, -0.0115816, 2.4705, 0.0599976, 2.4705, -1.0004883, 2.4705, -0.1658325, 2.4705, 1.4732825, 2.4705, -1.3435115, 2.4705, -2.5343511
0.2914412, -0.01561, 2.47725, 0.0600586, 2.47725, -1.0001831, 2.47725, -0.1672363, 2.47725, 1.3206106, 2.47725, -1.5114504, 2.47725, -2.4732823
0.2922353, -0.0196384, 2.484, 0.0612183, 2.484, -0.9996948, 2.484, -0.1688232, 2.484, 1.2366412, 2.484, -1.5801526, 2.484, -2.5801528
0.2930294, -0.0268559, 2.49075, 0.0639038, 2.49075, -1.0006104, 2.49075, -0.1673584, 2.49075, 1.1526718, 2.49075, -1.4732825, 2.49075, -2.5954199
0.2938235, -0.0270237, 2.4975, 0.0617676, 2.4975, -0.9990845, 2.4975, -0.171936, 2.4975, 0.8473282, 2.4975, -1.8625954, 2.4975, -2.6564887
0.2946176, -0.0270237, 2.50425, 0.0623779, 2.50425, -0.9987793, 2.50425, -0.1699219, 2.50425, 0.8625954, 2.50425, -1.6946565, 2.50425, -2.8778627
0.2954118, -0.0303807, 2.511, 0.0613403, 2.511, -0.9968872, 2.511, -0.1697388, 2.511, 0.870229, 2.511, -1.778626, 2.511, -2.7099237
0.2962059, -0.0246738, 2.51775, 0.0594482, 2.51775, -0.9995117, 2.51775, -0.1709595, 2.51775, 0.5954198, 2.51775, -1.9694656, 2.51775, -2.7938931
0.297, -0.0169528, 2.5245, 0.0643921, 2.5245, -1.0023804, 2.5245, -0.1724243, 2.5245, 0.6793893, 2.5245, -2.259542, 2.5245, -2.7938931
0.2977941, -0.0112459, 2.53125, 0.0646362, 2.53125, -1.0004272, 2.53125, -0.1755981, 2.53125, 0.8320611, 2.53125, -2.2824428, 2.53125, -2.9770992
0.2985882, -0.0125887, 2.538, 0.0656738, 2.538, -0.9998779, 2.538, -0.178772, 2.538, 0.8931298, 2.538, -2.1832061, 2.538, -2.9236641
0.2993824, -0.008896, 2.54475, 0.0673218, 2.54475, -0.9989014, 2.54475, -0.1772461, 2.54475, 0.8396947, 2.54475, -2.0687022, 2.54475, -3.0763359
0.3001765, -0.002182, 2.5515, 0.0722656, 2.5515, -1.0024414, 2.5515, -0.182312, 2.5515, 1.0534351, 2.5515, -1.6564885, 2.5515, -2.8625953
0.3009706, 0.0011749, 2.55825, 0.0737915, 2.55825, -1.0037231, 2.55825, -0.1826782, 2.55825, 0.8778626, 2.55825, -1.0305344, 2.55825, -2.7862597
0.3017647, -0.0005035, 2.565, 0.0715942, 2.565, -1.0045166, 2.565, -0.1832275, 2.565, 1.0763359, 2.565, -0.4656489, 2.565, -2.8244274
0.3025588, -0.0028534, 2.57175, 0.0673218, 2.57175, -1.0054321, 2.57175, -0.1810303, 2.57175, 1.0610687, 2.57175, -0.0610687, 2.57175, -2.870229
0.3033529, -0.005539, 2.5785, 0.065979, 2.5785, -1.0040894, 2.5785, -0.1821289, 2.5785, 1.351145, 2.5785, 0.1984733, 2.5785, -2.7862597
0.3041471, -0.0072175, 2.58525, 0.0635986, 2.58525, -1.0054321, 2.58525, -0.1806641, 2.58525, 1.610687, 2.58525, 0.2519084, 2.58525, -2.6335878
0.3049412, -0.0132601, 2.592, 0.0609131, 2.592, -1.0030518, 2.592, -0.1832886, 2.592, 1.4580153, 2.592, 0.4045801, 2.592, -2.6335878
0.3057353, -0.01561, 2.59875, 0.0587158, 2.59875, -1.0019531, 2.59875, -0.1842651, 2.59875, 1.4045801, 2.59875, 0.648855, 2.59875, -2.7480917
0.3065294, -0.0092317, 2.6055, 0.0614624, 2.6055, -1.0048828, 2.6055, -0.1815186, 2.6055, 1.4961832, 2.6055, 0.8167939, 2.6055, -2.6335878
0.3073235, -0.0109102, 2.61225, 0.0626831, 2.61225, -1.0031128, 2.61225, -0.1854858, 2.61225, 1.610687, 2.61225, 0.8549618, 2.61225, -2.7175572
0.3081176, -0.01561, 2.619, 0.0678711, 2.619, -1.0018311, 2.619, -0.1802368, 2.619, 1.8167939, 2.619, 0.870229, 2.619, -2.7633588
0.3089118, -0.0179599, 2.62575, 0.0697021, 2.62575, -1.0003052, 2.62575, -0.1786499, 2.62575, 1.9389313, 2.62575, 1.0458015, 2.62575, -2.6412213
0.3097059, -0.0129244, 2.6325, 0.0679321, 2.6325, -0.9968872, 2.6325, -0.1820679, 2.6325, 1.8625954, 2.6325, 1.4427481, 2.6325, -2.6717558
0.3105, -0.0146029, 2.63925, 0.0687256, 2.63925, -1.0023804, 2.63925, -0.1798096, 2.63925, 1.8778626, 2.63925, 1.9541985, 2.63925, -2.6412213
0.3112941, -0.0125887, 2.646, 0.0661011, 2.646, -1.0016479, 2.646, -0.1795654, 2.646, 1.8167939, 2.646, 2.1526718, 2.646, -2.5572519
0.3120882, -0.0085603, 2.65275, 0.0649414, 2.65275, -1.0044556, 2.65275, -0.1738892, 2.65275, 1.9007634, 2.65275, 2.0076337, 2.65275, -2.4961832
0.3128824, -0.0031891, 2.6595, 0.0650024, 2.6595, -1.0015259, 2.6595, -0.1779175, 2.6595, 2.1450381, 2.6595, 1.9770992, 2.6595, -2.5572519
0.3136765, -0.0010071, 2.66625, 0.0650635, 2.66625, -0.9998169, 2.66625, -0.1743774, 2.66625, 2.1374047, 2.66625, 1.9160305, 2.66625, -2.5343511
0.3144706, -0.0020142, 2.673, 0.0667725, 2.673, -1.0036621, 2.673, -0.1741333, 2.673, 2.0534351, 2.673, 1.9465649, 2.673, -2.5114503
0.3152647, -0.0041962, 2.67975, 0.0605469, 2.67975, -1.0067749, 2.67975, -0.173584, 2.67975, 1.9541985, 2.67975, 1.6030535, 2.67975, -2.519084
0.3160588, -0.002182, 2.6865, 0.064209, 2.6865, -1.0043945, 2.6865, -0.1720581, 2.6865, 1.9694656, 2.6865, 1.6183206, 2.6865, -2.6030533
0.3168529, -0.0008392, 2.69325, 0.0661621, 2.69325, -1.0037231, 2.69325, -0.1697388, 2.69325, 1.9770992, 2.69325, 1.610687, 2.69325, -2.7633588
0.3176471, -0.0048676, 2.7, 0.0613403, 2.7, -1.0027466, 2.7, -0.1696777, 2.7, 1.908397, 2.7, 1.4351145, 2.7, -2.7251909
0.3184412, -0.005539, 2.70675, 0.0609741, 2.70675, -0.9988403, 2.70675, -0.1698608, 2.70675, 1.7633588, 2.70675, 1.519084, 2.70675, -2.5877862
0.3192353, -0.0045319, 2.7135, 0.06073, 2.7135, -0.99823, 2.7135, -0.1682739, 2.7135, 1.7175573, 2.7135, 1.5114504, 2.7135, -2.6183207
0.3200294, -0.012253, 2.72025, 0.0603027, 2.72025, -0.9959717, 2.72025, -0.1695557, 2.72025, 1.7862595, 2.72025, 1.4198474, 2.72025, -2.6335878
0.3208235, -0.0135958, 2.727, 0.0611572, 2.727, -0.9983521, 2.727, -0.1671753, 2.727, 1.5496184, 2.727, 1.5496184, 2.727, -2.5877862
0.3216176, -0.0149386, 2.73375, 0.0635986, 2.73375, -1.0025635, 2.73375, -0.170166, 2.73375, 1.5267175, 2.73375, 1.7557251, 2.73375, -2.5572519
0.3224118, -0.0182956, 2.7405, 0.0615234, 2.7405, -0.9998169, 2.7405, -0.1687012, 2.7405, 1.4732825, 2.7405, 1.6030535, 2.7405, -2.4885497
0.3232059, -0.0176242, 2.74725, 0.0605469, 2.74725, -1.0026855, 2.74725, -0.1720581, 2.74725, 1.3358779, 2.74725, 1.7557251, 2.74725, -2.519084
0.324, -0.0169528, 2.754, 0.0604858, 2.754, -1.0028076, 2.754, -0.1743164, 2.754, 1.3435115, 2.754, 1.5343511, 2.754, -2.5572519
0.3247941, -0.0216526, 2.76075, 0.0648193, 2.76075, -1.0040283, 2.76075, -0.1725464, 2.76075, 1.3053435, 2.76075, 1.4427481, 2.76075, -2.519084
0.3255882, -0.0203098, 2.7675, 0.0654297, 2.7675, -1.003479, 2.7675, -0.1732178, 2.7675, 1.2671756, 2.7675, 1.4274809, 2.7675, -2.5648854
0.3263824, -0.0159457, 2.77425, 0.0640259, 2.77425, -1.0014038, 2.77425, -0.1737671, 2.77425, 1.0763359, 2.77425, 1.3969465, 2.77425, -2.6412213
0.3271765, -0.01561, 2.781, 0.064209, 2.781, -1.0001221, 2.781, -0.1730957, 2.781, 1.1526718, 2.781, 1.4045801, 2.781, -2.5572519
0.3279706, -0.0135958, 2.78775, 0.0651855, 2.78775, -1.0032959, 2.78775, -0.1735229, 2.78775, 1.1221374, 2.78775, 1.2977099, 2.78775, -2.5954199
0.3287647, -0.0102388, 2.7945, 0.0628052, 2.7945, -0.9994507, 2.7945, -0.1727905, 2.7945, 1.0458015, 2.7945, 1.129771, 2.7945, -2.6946564
0.3295588, -0.0112459, 2.80125, 0.0615845, 2.80125, -0.9996338, 2.80125, -0.1742554, 2.80125, 1.259542, 2.80125, 1.0687023, 2.80125, -2.7175572
0.3303529, -0.0105745, 2.808, 0.0579834, 2.808, -1.0020142, 2.808, -0.1730957, 2.808, 1.1908396, 2.808, 0.7938932, 2.808, -2.6946564
0.3311471, -0.0135958, 2.81475, 0.0593872, 2.81475, -1.0056763, 2.81475, -0.1719971, 2.81475, 1.2366412, 2.81475, 0.610687, 2.81475, -2.8778627
0.3319412, -0.0149386, 2.8215, 0.0560303, 2.8215, -1.0080566, 2.8215, -0.173584, 2.8215, 1.0763359, 2.8215, 0.480916, 2.8215, -3.0610688
0.3327353, -0.0068818, 2.82825, 0.0597534, 2.82825, -1.0079956, 2.82825, -0.173584, 2.82825, 1.0076336, 2.82825, 0.2290076, 2.82825, -2.8931298
0.3335294, -0.0083925, 2.835, 0.0645752, 2.835, -1.0049438, 2.835, -0.1750488, 2.835, 1.2442749, 2.835, 0.129771, 2.835, -2.6717558
0.3343235, -0.0068818, 2.84175, 0.0647583, 2.84175, -1.0008545, 2.84175, -0.1759033, 2.84175, 1.1603054, 2.84175, 0.4122137, 2.84175, -2.7328243
0.3351176, -0.0102388, 2.8485, 0.0618896, 2.8485, -0.9993896, 2.8485, -0.1744385, 2.8485, 1.0229008, 2.8485, 0.4503817, 2.8485, -2.6412213
0.3359118, -0.011078, 2.85525, 0.0604248, 2.85525, -1.0018311, 2.85525, -0.171936, 2.85525, 0.8625954, 2.85525, 0.5114504, 2.85525, -2.7862597
0.3367059, -0.0109102, 2.862, 0.0637207, 2.862, -1.0046387, 2.862, -0.1694336, 2.862, 0.9389313, 2.862, 0.259542, 2.862, -2.6717558
0.3375, -0.0115816, 2.86875, 0.0635986, 2.86875, -1.0014648, 2.86875, -0.1687012, 2.86875, 0.9389313, 2.86875, 0.0610687, 2.86875, -2.648855
0.3382941, -0.0132601, 2.8755, 0.0582275, 2.8755, -0.9998169, 2.8755, -0.1669922, 2.8755, 0.9465649, 2.8755, 0.1221374, 2.8755, -2.7557251
0.3390882, -0.0164492, 2.88225, 0.0595703, 2.88225, -1.0013428, 2.88225, -0.1677856, 2.88225, 0.7480916, 2.88225, -0.1908397, 2.88225, -2.778626
0.3398824, -0.0218204, 2.889, 0.0588989, 2.889, -0.9993286, 2.889, -0.1663818, 2.889, 0.5114504, 2.889, -0.7633588, 2.889, -2.7251909
0.3406765, -0.0270237, 2.89575, 0.06073, 2.89575, -1.0012207, 2.89575, -0.1641846, 2.89575, 0.4580153, 2.89575, -0.7480916, 2.89575, -2.7633588
0.3414706, -0.0303807, 2.9025, 0.0598755, 2.9025, -1.0020142, 2.9025, -0.1659546, 2.9025, 0.3053435, 2.9025, -0.9847328, 2.9025, -2.7328243
0.3422647, -0.0313878, 2.90925, 0.0605469, 2.90925, -1.0010986, 2.90925, -0.1647949, 2.90925, 0.1145038, 2.90925, -1.0839695, 2.90925, -2.9465649
0.3430588, -0.0310521, 2.916, 0.0588989, 2.916, -1.0041504, 2.916, -0.1713257, 2.916, -0.0152672, 2.916, -0.9236641, 2.916, -2.7938931
0.3438529, -0.0276951, 2.92275, 0.0599365, 2.92275, -1.0031128, 2.92275, -0.1708984, 2.92275, -0.0305344, 2.92275, -0.961832, 2.92275, -2.8854961
0.3446471, -0.026688, 2.9295, 0.0597534, 2.9295, -1.0026245, 2.9295, -0.1671753, 2.9295, -0.0839695, 2.9295, -0.9389313, 2.9295, -2.7557251
0.3454412, -0.0258488, 2.93625, 0.0595703, 2.93625, -1.0028687, 2.93625, -0.1690674, 2.93625, -0.129771, 2.93625, -0.6641222, 2.93625, -2.6641221
0.3462353, -0.0186313, 2.943, 0.0633545, 2.943, -1.0010376, 2.943, -0.1737671, 2.943, -0.3664122, 2.943, -0.8320611, 2.943, -2.7709923
0.3470294, -0.0159457, 2.94975, 0.0618286, 2.94975, -1.0016479, 2.94975, -0.1766357, 2.94975, -0.4427481, 2.94975, -0.5572519, 2.94975, -2.8015268
0.3478235, -0.0146029, 2.9565, 0.0618896, 2.9565, -1.0025024, 2.9565, -0.1777954, 2.9565, -0.4274809, 2.9565, -0.2519084, 2.9565, -2.8396947
0.3486176, -0.0142672, 2.96325, 0.059021, 2.96325, -0.9989014, 2.96325, -0.1738281, 2.96325, -0.5267175, 2.96325, 0.0458015, 2.96325, -2.8396947
0.3494118, -0.01561, 2.97, 0.0579224, 2.97, -1.0037231, 2.97, -0.175293, 2.97, -0.5114504, 2.97, 0.0305344, 2.97, -2.778626
0.3502059, -0.0129244, 2.97675, 0.0571289, 2.97675, -0.9976196, 2.97675, -0.1815796, 2.97675, -0.3435115, 2.97675, -0.1068702, 2.97675, -2.8778627
0.351, -0.0184634, 2.9835, 0.0585327, 2.9835, -1.0006714, 2.9835, -0.1781006, 2.9835, -0.5038168, 2.9835, 0.1221374, 2.9835, -2.961832
0.3517941, -0.0162814, 2.99025, 0.0565796, 2.99025, -1.0006104, 2.99025, -0.1786499, 2.99025, -0.4656489, 2.99025, -0.0076336, 2.99025, -2.9465649
0.3525882, -0.0149386, 2.997, 0.057373, 2.997, -1.0004883, 2.997, -0.1803589, 2.997, -0.4885496, 2.997, -0.259542, 2.997, -3.0687022
0.3533824, -0.0166171, 3.00375, 0.0550537, 3.00375, -1.0004272, 3.00375, -0.1814575, 3.00375, -0.4656489, 3.00375, -0.3587786, 3.00375, -3.0534351
0.3541765, -0.0151064, 3.0105, 0.0571289, 3.0105, -1.0014038, 3.0105, -0.1826782, 3.0105, -0.2977099, 3.0105, -0.259542, 3.0105, -2.9389312
0.3549706, -0.0182956, 3.01725, 0.0609131, 3.01725, -1.0054321, 3.01725, -0.1834717, 3.01725, -0.2290076, 3.01725, -0.1832061, 3.01725, -2.9847329
0.3557647, -0.0213169, 3.024, 0.0579834, 3.024, -1.0001221, 3.024, -0.1831665, 3.024, -0.1068702, 3.024, -0.3664122, 3.024, -2.9694657
0.3565588, -0.0204776, 3.03075, 0.059082, 3.03075, -0.9989624, 3.03075, -0.1848755, 3.03075, -0.0992366, 3.03075, -0.1374046, 3.03075, -3.0229008
0.3573529, -0.024506, 3.0375, 0.0593262, 3.0375, -0.9996338, 3.0375, -0.1827393, 3.0375, -0.1755725, 3.0375, 0.221374, 3.0375, -3.1679389
0.3581471, -0.0209812, 3.04425, 0.0615845, 3.04425, -0.9995728, 3.04425, -0.1810913, 3.04425, 0.0687023, 3.04425, 0.1679389, 3.04425, -2.9236641
0.3589412, -0.0132601, 3.051, 0.0582886, 3.051, -0.9970703, 3.051, -0.1807861, 3.051, 0.2519084, 3.051, 0.221374, 3.051, -2.9770992
0.3597353, -0.0236667, 3.05775, 0.0559692, 3.05775, -1.0015869, 3.05775, -0.1799927, 3.05775, 0.1145038, 3.05775, -0.0229008, 3.05775, -3.1755726
0.3605294, -0.0229953, 3.0645, 0.0557861, 3.0645, -1.0027466, 3.0645, -0.1789551, 3.0645, 0.0763359, 3.0645, -0.2290076, 3.0645, -3.1755726
0.3613235, -0.0169528, 3.07125, 0.0563354, 3.07125, -0.9993896, 3.07125, -0.173645, 3.07125, -0.0381679, 3.07125, -0.519084, 3.07125, -3.3358779
0.3621176, -0.0075532, 3.078, 0.057251, 3.078, -0.999939, 3.078, -0.1738281, 3.078, 0.0916031, 3.078, -0.5496183, 3.078, -3.1755726
0.3629118, 0.0008392, 3.08475, 0.057373, 3.08475, -1.0046997, 3.08475, -0.175415, 3.08475, -0.0610687, 3.08475, -0.9770992, 3.08475, -3.2671757
0.3637059, 0.0010071, 3.0915, 0.0595093, 3.0915, -1.0033569, 3.0915, -0.1742554, 3.0915, -0.0992366, 3.0915, -0.9923664, 3.0915, -3.2137403
0.3645, -0.0025177, 3.09825, 0.0599976, 3.09825, -1.0021973, 3.09825, -0.173645, 3.09825, 0.0458015, 3.09825, -0.9923664, 3.09825, -3.3053436
0.3652941, -0.0048676, 3.105, 0.0631714, 3.105, -1.0028076, 3.105, -0.1782837, 3.105, -0.1374046, 3.105, -0.7022901, 3.105, -3.351145
0.3660882, -0.0166171, 3.11175, 0.0610352, 3.11175, -1.0028687, 3.11175, -0.1793823, 3.11175, -0.2442748, 3.11175, -0.7175573, 3.11175, -3.3206108
0.3668824, -0.0246738, 3.1185, 0.0628052, 3.1185, -1.0026245, 3.1185, -0.1783447, 3.1185, -0.2137405, 3.1185, -0.519084, 3.1185, -3.2671757
0.3676765, -0.0203098, 3.12525, 0.0559082, 3.12525, -1.0031738, 3.12525, -0.1791382, 3.12525, -0.0229008, 3.12525, -0.5648855, 3.12525, -3.3206108
0.3684706, -0.0172885, 3.132, 0.0560303, 3.132, -1.0021973, 3.132, -0.1800537, 3.132, -0.1679389, 3.132, -0.6412213, 3.132, -3.5038168
0.3692647, -0.0125887, 3.13875, 0.0534668, 3.13875, -0.9998169, 3.13875, -0.1796265, 3.13875, -0.221374, 3.13875, -0.5648855, 3.13875, -3.4427481
0.3700588, -0.0070497, 3.1455, 0.0600586, 3.1455, -0.9988403, 3.1455, -0.1836548, 3.1455, -0.0152672, 3.1455, -0.9236641, 3.1455, -3.5038168
0.3708529, -0.002182, 3.15225, 0.0570679, 3.15225, -1.0003052, 3.15225, -0.1817627, 3.15225, -0.0534351, 3.15225, -0.9541985, 3.15225, -3.3664122
0.3716471, -0.0046998, 3.159, 0.060791, 3.159, -1.0026245, 3.159, -0.1862183, 3.159, -0.0458015, 3.159, -1.0152671, 3.159, -3.4351146
0.3724412, -0.0078889, 3.16575, 0.0606689, 3.16575, -1.0024414, 3.16575, -0.1855469, 3.16575, -0.0916031, 3.16575, -0.8320611, 3.16575, -3.4961832
0.3732353, -0.0058747, 3.1725, 0.0605469, 3.1725, -1.0004272, 3.1725, -0.187439, 3.1725, 0.0534351, 3.1725, -0.6564885, 3.1725, -3.5725191
0.3740294, -0.0078889, 3.17925, 0.0582275, 3.17925, -1.0016479, 3.17925, -0.1850586, 3.17925, 0.0763359, 3.17925, -0.7251908, 3.17925, -3.4045801
0.3748235, -0.0132601, 3.186, 0.0579224, 3.186, -1.0019531, 3.186, -0.1834717, 3.186, 0.221374, 3.186, -0.7557252, 3.186, -3.648855
0.3756176, -0.0135958, 3.19275, 0.0587769, 3.19275, -1.0015259, 3.19275, -0.1880493, 3.19275, 0.0458015, 3.19275, -0.8091603, 3.19275, -3.7633588
0.3764118, -0.0062104, 3.1995, 0.0595093, 3.1995, -1.0010986, 3.1995, -0.1885986, 3.1995, 0.0458015, 3.1995, -0.8854962, 3.1995, -3.7251909
0.3772059, -0.0112459, 3.20625, 0.059021, 3.20625, -1.0025635, 3.20625, -0.1865234, 3.20625, 0.1679389, 3.20625, -0.6946565, 3.20625, -3.5954199
0.378, -0.0206455, 3.213, 0.060791, 3.213, -1.0059204, 3.213, -0.1873169, 3.213, 0.3816794, 3.213, -0.6564885, 3.213, -3.7099237
0.3787941, -0.0193027, 3.21975, 0.0614624, 3.21975, -1.0044556, 3.21975, -0.1855469, 3.21975, 0.2671756, 3.21975, -0.6717557, 3.21975, -3.7557251
0.3795882, -0.0199741, 3.2265, 0.0632324, 3.2265, -1.0037231, 3.2265, -0.1835327, 3.2265, 0.6183206, 3.2265, -0.5267175, 3.2265, -3.8091602
0.3803824, -0.0226596, 3.23325, 0.0646973, 3.23325, -1.0020142, 3.23325, -0.1838379, 3.23325, 0.6717557, 3.23325, -0.4351145, 3.23325, -3.870229
0.3811765, -0.0229953, 3.24, 0.0637817, 3.24, -1.0014038, 3.24, -0.1870728, 3.24, 0.7557252, 3.24, -0.3587786, 3.24, -3.8167939
0.3819706, -0.024506, 3.24675, 0.0633545, 3.24675, -1.0018311, 3.24675, -0.1856689, 3.24675, 0.6030535, 3.24675, -0.1984733, 3.24675, -3.7328243
0.3827647, -0.0223239, 3.2535, 0.0623779, 3.2535, -1.0024414, 3.2535, -0.1865234, 3.2535, 0.7633588, 3.2535, 0.1221374, 3.2535, -3.8320611
0.3835588, -0.0209812, 3.26025, 0.0609131, 3.26025, -1.0028687, 3.26025, -0.1835938, 3.26025, 0.961832, 3.26025, 0.1908397, 3.26025, -3.6641221
0.3843529, -0.0216526, 3.267, 0.0626221, 3.267, -1.0021973, 3.267, -0.1859131, 3.267, 0.6870229, 3.267, 0.2442748, 3.267, -3.6717558
0.3851471, -0.017792, 3.27375, 0.0615845, 3.27375, -1.0037231, 3.27375, -0.1847534, 3.27375, 0.740458, 3.27375, 0.3053435, 3.27375, -3.7251909
0.3859412, -0.0139315, 3.2805, 0.0623779, 3.2805, -1.0055542, 3.2805, -0.1879272, 3.2805, 0.7099237, 3.2805, 0.519084, 3.2805, -3.7251909
0.3867353, -0.0142672, 3.28725, 0.0635376, 3.28725, -1.0070801, 3.28725, -0.184082, 3.28725, 0.8473282, 3.28725, 0.740458, 3.28725, -3.7633588
0.3875294, -0.0162814, 3.294, 0.0644531, 3.294, -1.0020142, 3.294, -0.1872559, 3.294, 0.7938932, 3.294, 1.1526718, 3.294, -3.7022901
0.3883235, -0.0166171, 3.30075, 0.0627441, 3.30075, -1.0015259, 3.30075, -0.1889648, 3.30075, 0.9770992, 3.30075, 1.4198474, 3.30075, -3.6030533
0.3891176, -0.0142672, 3.3075, 0.0631104, 3.3075, -1.0023193, 3.3075, -0.1889038, 3.3075, 0.9389313, 3.3075, 1.8244275, 3.3075, -3.5877862
0.3899118, -0.0114137, 3.31425, 0.0643921, 3.31425, -1.0016479, 3.31425, -0.1912842, 3.31425, 0.9770992, 3.31425, 1.778626, 3.31425, -3.5648854
0.3907059, -0.0093996, 3.321, 0.0612793, 3.321, -1.0007324, 3.321, -0.1895142, 3.321, 1.1068702, 3.321, 1.9847329, 3.321, -3.5114503
0.3915, -0.008896, 3.32775, 0.0645752, 3.32775, -1.001709, 3.32775, -0.187561, 3.32775, 1.1068702, 3.32775, 2.1832061, 3.32775, -3.5877862
0.3922941, -0.0099031, 3.3345, 0.0606689, 3.3345, -0.9992676, 3.3345, -0.1862183, 3.3345, 0.9312977, 3.3345, 2.2366412, 3.3345, -3.4503818
0.3930882, -0.0095674, 3.34125, 0.0602417, 3.34125, -1.0006104, 3.34125, -0.1837158, 3.34125, 1.0305344, 3.34125, 2.2366412, 3.34125, -3.648855
0.3938824, -0.0112459, 3.348, 0.0639648, 3.348, -1.0015869, 3.348, -0.1846924, 3.348, 1.0076336, 3.348, 2.1450381, 3.348, -3.7633588
0.3946765, -0.0065461, 3.35475, 0.0634766, 3.35475, -1.0032959, 3.35475, -0.1834106, 3.35475, 1.129771, 3.35475, 2.2671757, 3.35475, -3.6717558
0.3954706, -0.0065461, 3.3615, 0.0617676, 3.3615, -1.0021973, 3.3615, -0.1821289, 3.3615, 1.259542, 3.3615, 2.259542, 3.3615, -3.6717558
0.3962647, -0.0083925, 3.36825, 0.0651245, 3.36825, -1.00177, 3.36825, -0.1830444, 3.36825, 1.1908396, 3.36825, 2.4961832, 3.36825, -3.6717558
0.3970588, -0.0038605, 3.375, 0.0635376, 3.375, -1.0033569, 3.375, -0.1880493, 3.375, 1.4274809, 3.375, 2.961832, 3.375, -3.610687
0.3978529, -0.0048676, 3.38175, 0.064209, 3.38175, -1.0037842, 3.38175, -0.1898804, 3.38175, 1.4885496, 3.38175, 3.0076337, 3.38175, -3.5725191
0.3986471, -0.0095674, 3.3885, 0.0610962, 3.3885, -1.005188, 3.3885, -0.1887207, 3.3885, 1.3435115, 3.3885, 3.129771, 3.3885, -3.4656489
0.3994412, -0.0125887, 3.39525, 0.0641479, 3.39525, -1.005127, 3.39525, -0.1860352, 3.39525, 1.4503816, 3.39525, 3.4198472, 3.39525, -3.5038168
0.4002353, -0.0095674, 3.402, 0.0634766, 3.402, -1.0040283, 3.402, -0.1882935, 3.402, 1.4961832, 3.402, 3.5877862, 3.402, -3.5725191
0.4010294, -0.0095674, 3.40875, 0.0637817, 3.40875, -1.00177, 3.40875, -0.187439, 3.40875, 1.5877863, 3.40875, 3.8854961, 3.40875, -3.4503818
0.4018235, -0.0109102, 3.4155, 0.0612183, 3.4155, -1.0043335, 3.4155, -0.1873169, 3.4155, 1.7328244, 3.4155, 3.7938931, 3.4155, -3.351145
0.4026176, -0.0135958, 3.42225, 0.0621338, 3.42225, -1.0019531, 3.42225, -0.1864014, 3.42225, 1.740458, 3.42225, 3.8396947, 3.42225, -3.4580152
0.4034118, -0.0166171, 3.429, 0.0645142, 3.429, -1.0039673, 3.429, -0.1864014, 3.429, 1.9389313, 3.429, 4.0458016, 3.429, -3.5725191
0.4042059, -0.0226596, 3.43575, 0.0648193, 3.43575, -1.0003662, 3.43575, -0.1853027, 3.43575, 1.9236641, 3.43575, 3.961832, 3.43575, -3.6259542
0.405, -0.0206455, 3.4425, 0.0629883, 3.4425, -0.999939, 3.4425, -0.1851807, 3.4425, 1.9770992, 3.4425, 4.0687022, 3.4425, -3.5877862
0.4057941, -0.018967, 3.44925, 0.0598145, 3.44925, -1.0027466, 3.44925, -0.182373, 3.44925, 1.8854961, 3.44925, 3.8015268, 3.44925, -3.3816793
0.4065882, -0.0193027, 3.456, 0.0615845, 3.456, -1.001709, 3.456, -0.1821899, 3.456, 1.8549619, 3.456, 3.7175572, 3.456, -3.480916
0.4073824, -0.0243381, 3.46275, 0.0615845, 3.46275, -1.0002441, 3.46275, -0.1809692, 3.46275, 2.0305343, 3.46275, 3.4198472, 3.46275, -3.4656489
0.4081765, -0.0219883, 3.4695, 0.0618286, 3.4695, -1.0031738, 3.4695, -0.1790771, 3.4695, 1.8778626, 3.4695, 3.259542, 3.4695, -3.5801528
0.4089706, -0.0182956, 3.47625, 0.0656738, 3.47625, -1.0009155, 3.47625, -0.1785889, 3.47625, 1.9007634, 3.47625, 3.1221373, 3.47625, -3.5725191
0.4097647, -0.0199741, 3.483, 0.0670166, 3.483, -0.9984131, 3.483, -0.1769409, 3.483, 2.0687022, 3.483, 2.9923663, 3.483, -3.5419848
0.4105588, -0.018967, 3.48975, 0.0631714, 3.48975, -0.9976807, 3.48975, -0.175293, 3.48975, 2.0229008, 3.48975, 2.4885497, 3.48975, -3.6870229
0.4113529, -0.0132601, 3.4965, 0.05896, 3.4965, -0.99646, 3.4965, -0.1799927, 3.4965, 2.0229008, 3.4965, 2.1908398, 3.4965, -3.6183207
0.4121471, -0.0162814, 3.50325, 0.0560303, 3.50325, -0.996582, 3.50325, -0.1820679, 3.50325, 1.9236641, 3.50325, 1.870229, 3.50325, -3.5877862
0.4129412, -0.0327306, 3.51, 0.0568237, 3.51, -0.9976196, 3.51, -0.1799927, 3.51, 2.0992367, 3.51, 1.5572519, 3.51, -3.7099237
0.4137353, -0.036759, 3.51675, 0.0601807, 3.51675, -0.9983521, 3.51675, -0.1820068, 3.51675, 2.1145039, 3.51675, 1.2748091, 3.51675, -3.648855
0.4145294, -0.0411231, 3.5235, 0.0613403, 3.5235, -1.0032959, 3.5235, -0.180481, 3.5235, 2.1832061, 3.5235, 1.091603, 3.5235, -3.6946564
0.4153235, -0.0283665, 3.53025, 0.0614014, 3.53025, -1.0070801, 3.53025, -0.1795044, 3.53025, 2.259542, 3.53025, 0.9541985, 3.53025, -3.8167939
0.4161176, 0.0016785, 3.537, 0.0648804, 3.537, -1.0040283, 3.537, -0.1828003, 3.537, 2.221374, 3.537, 0.8167939, 3.537, -3.7480917
0.4169118, 0.0229953, 3.54375, 0.0617676, 3.54375, -1.0046997, 3.54375, -0.182312, 3.54375, 2.2061069, 3.54375, 0.778626, 3.54375, -3.778626
0.4177059, 0.0313878, 3.5505, 0.062561, 3.5505, -1.0059204, 3.5505, -0.1820068, 3.5505, 2.3816793, 3.5505, 0.908397, 3.5505, -3.5725191
0.4185, 0.0411231, 3.55725, 0.0605469, 3.55725, -1.005127, 3.55725, -0.1776733, 3.55725, 2.3053436, 3.55725, 0.8473282, 3.55725, -3.8091602
0.4192941, 0.0407874, 3.564, 0.0617065, 3.564, -1.0039062, 3.564, -0.175415, 3.564, 2.2366412, 3.564, 0.610687, 3.564, -3.7938931
0.4200882, 0.0092317, 3.57075, 0.0587158, 3.57075, -1.003418, 3.57075, -0.1774902, 3.57075, 2.2366412, 3.57075, 0.3053435, 3.57075, -3.6335878
0.4208824, -0.0243381, 3.5775, 0.0603027, 3.5775, -1.0026245, 3.5775, -0.1777344, 3.5775, 2.0076337, 3.5775, 0.0152672, 3.5775, -3.870229
0.4216765, -0.0397803, 3.58425, 0.062561, 3.58425, -1.0026245, 3.58425, -0.1761475, 3.58425, 2.0076337, 3.58425, -0.2290076, 3.58425, -3.908397
0.4224706, -0.043473, 3.591, 0.0631714, 3.591, -0.9998779, 3.591, -0.1745605, 3.591, 1.8931298, 3.591, -0.3358779, 3.591, -3.9541984
0.4232647, -0.0424659, 3.59775, 0.0681152, 3.59775, -0.9973145, 3.59775, -0.1779785, 3.59775, 1.7862595, 3.59775, -0.6259542, 3.59775, -3.8473282
0.4240588, -0.0303807, 3.6045, 0.0663452, 3.6045, -0.9968262, 3.6045, -0.1784668, 3.6045, 1.7862595, 3.6045, -0.7022901, 3.6045, -3.7557251
0.4248529, -0.0166171, 3.61125, 0.0649414, 3.61125, -0.9979858, 3.61125, -0.175354, 3.61125, 1.8320611, 3.61125, -0.610687, 3.61125, -3.8396947
0.4256471, -0.0142672, 3.618, 0.0665894, 3.618, -0.9978027, 3.618, -0.1780396, 3.618, 1.8244275, 3.618, -0.5572519, 3.618, -3.6870229
0.4264412, -0.018967, 3.62475, 0.067749, 3.62475, -1.0004883, 3.62475, -0.1813354, 3.62475, 1.6335878, 3.62475, -0.5114504, 3.62475, -3.7251909
0.4272353, -0.0186313, 3.6315, 0.0699463, 3.6315, -0.9976807, 3.6315, -0.182312, 3.6315, 1.870229, 3.6315, -0.4351145, 3.6315, -3.4885497
0.4280294, -0.0169528, 3.63825, 0.0743408, 3.63825, -0.9983521, 3.63825, -0.1820068, 3.63825, 1.8244275, 3.63825, -0.0229008, 3.63825, -3.3816793
0.4288235, -0.0181277, 3.645, 0.0701294, 3.645, -0.9996948, 3.645, -0.1835327, 3.645, 1.7862595, 3.645, 0.2061069, 3.645, -3.2671757
0.4296176, -0.0209812, 3.65175, 0.0692749, 3.65175, -0.9985962, 3.65175, -0.1812744, 3.65175, 1.8625954, 3.65175, 0.3435115, 3.65175, -3.2290077
0.4304118, -0.0191348, 3.6585, 0.0696411, 3.6585, -0.9979858, 3.6585, -0.1819458, 3.6585, 1.8778626, 3.6585, 0.5572519, 3.6585, -3.1068702
0.4312059, -0.0151064, 3.66525, 0.0690308, 3.66525, -0.9986572, 3.66525, -0.1799316, 3.66525, 2.0152671, 3.66525, 0.6412213, 3.66525, -3.0763359
0.432, -0.0142672, 3.672, 0.0695801, 3.672, -0.9973755, 3.672, -0.1807861, 3.672, 2.1145039, 3.672, 0.6641222, 3.672, -2.9694657
0.4327941, -0.0124208, 3.67875, 0.0698242, 3.67875, -1.0003662, 3.67875, -0.1844482, 3.67875, 2.0076337, 3.67875, 0.6870229, 3.67875, -2.9465649
0.4335882, -0.0119173, 3.6855, 0.0710449, 3.6855, -1.0015259, 3.6855, -0.1885376, 3.6855, 2.1145039, 3.6855, 1.0152671, 3.6855, -2.9694657
0.4343824, -0.0152743, 3.69225, 0.0734863, 3.69225, -1.0048828, 3.69225, -0.1863403, 3.69225, 2.221374, 3.69225, 1.3358779, 3.69225, -2.7709923
0.4351765, -0.011078, 3.699, 0.0707397, 3.699, -1.0096436, 3.699, -0.1868896, 3.699, 2.3740458, 3.699, 1.4122137, 3.699, -2.6641221
0.4359706, -0.0139315, 3.70575, 0.0710449, 3.70575, -1.0139771, 3.70575, -0.1859131, 3.70575, 2.4656489, 3.70575, 1.7633588, 3.70575, -2.7557251
0.4367647, -0.0151064, 3.7125, 0.0722046, 3.7125, -1.0159912, 3.7125, -0.1883545, 3.7125, 2.6870229, 3.7125, 1.870229, 3.7125, -2.7328243
0.4375588, -0.0139315, 3.71925, 0.0726318, 3.71925, -1.0195923, 3.71925, -0.1881714, 3.71925, 2.7862597, 3.71925, 2.0992367, 3.71925, -2.519084
0.4383529, -0.0142672, 3.726, 0.0756226, 3.726, -1.0231934, 3.726, -0.1854858, 3.726, 2.7709923, 3.726, 2.3740458, 3.726, -2.2977099
0.4391471, -0.0125887, 3.73275, 0.0774536, 3.73275, -1.0216675, 3.73275, -0.1859741, 3.73275, 2.9236641, 3.73275, 2.6717558, 3.73275, -2.2137403
0.4399412, -0.0139315, 3.7395, 0.0793457, 3.7395, -1.0152588, 3.7395, -0.1842651, 3.7395, 3.2061069, 3.7395, 2.8778627, 3.7395, -2.221374
0.4407353, -0.0072175, 3.74625, 0.0774536, 3.74625, -1.0122681, 3.74625, -0.1870728, 3.74625, 3.1526718, 3.74625, 3.2900763, 3.74625, -2.2061069
0.4415294, -0.0031891, 3.753, 0.0731812, 3.753, -1.006897, 3.753, -0.180542, 3.753, 3.2366412, 3.753, 3.2519083, 3.753, -2.0534351
0.4423235, -0.0052033, 3.75975, 0.0650024, 3.75975, -1.0039062, 3.75975, -0.1766357, 3.75975, 3.2137403, 3.75975, 3.0229008, 3.75975, -2.0458016
0.4431176, -0.008896, 3.7665, 0.0620117, 3.7665, -0.9953003, 3.7665, -0.1699219, 3.7665, 3.1526718, 3.7665, 2.7709923, 3.7665, -2.1374047
0.4439118, -0.0109102, 3.77325, 0.0580444, 3.77325, -0.9933472, 3.77325, -0.1687012, 3.77325, 3.2977099, 3.77325, 2.5877862, 3.77325, -2.1450381
0.4447059, -0.0109102, 3.78, 0.0524902, 3.78, -0.989502, 3.78, -0.1627197, 3.78, 3.2137403, 3.78, 2.3587787, 3.78, -2.221374
0.4455, -0.0139315, 3.78675, 0.0525513, 3.78675, -0.9886475, 3.78675, -0.1635742, 3.78675, 2.8549619, 3.78675, 1.351145, 3.78675, -2.3969467
0.4462941, -0.0176242, 3.7935, 0.055542, 3.7935, -0.986145, 3.7935, -0.1670532, 3.7935, 2.7328243, 3.7935, 0.6335878, 3.7935, -2.3435113
0.4470882, -0.0203098, 3.80025, 0.052063, 3.80025, -0.9877319, 3.80025, -0.1615601, 3.80025, 2.4045801, 3.80025, 0.5648855, 3.80025, -2.4351146
0.4478824, -0.0231632, 3.807, 0.0511475, 3.807, -0.993042, 3.807, -0.1535034, 3.807, 2.0458016, 3.807, 0.4198473, 3.807, -2.6564887
0.4486765, -0.023331, 3.81375, 0.0529175, 3.81375, -0.993042, 3.81375, -0.1552124, 3.81375, 2.0152671, 3.81375, 0.2061069, 3.81375, -2.4274809
0.4494706, -0.0219883, 3.8205, 0.0517578, 3.8205, -0.9917603, 3.8205, -0.1533813, 3.8205, 1.7480916, 3.8205, 0.1679389, 3.8205, -2.5648854
0.4502647, -0.0250095, 3.82725, 0.0499878, 3.82725, -0.9938965, 3.82725, -0.1572876, 3.82725, 1.6564885, 3.82725, 0.0534351, 3.82725, -2.6259542
0.4510588, -0.0271916, 3.834, 0.0542603, 3.834, -0.9971924, 3.834, -0.1553955, 3.834, 1.3740458, 3.834, -0.2366412, 3.834, -2.6183207
0.4518529, -0.0270237, 3.84075, 0.0587158, 3.84075, -0.99823, 3.84075, -0.1582642, 3.84075, 1.1068702, 3.84075, -0.3053435, 3.84075, -2.6870229
0.4526471, -0.0248417, 3.8475, 0.0628662, 3.8475, -0.9996948, 3.8475, -0.1612549, 3.8475, 0.610687, 3.8475, -0.1984733, 3.8475, -2.7022901
0.4534412, -0.0243381, 3.85425, 0.0583496, 3.85425, -1.0040283, 3.85425, -0.1630249, 3.85425, 0.5267175, 3.85425, -0.0076336, 3.85425, -2.6641221
0.4542353, -0.0194705, 3.861, 0.0592041, 3.861, -1.0049438, 3.861, -0.1650391, 3.861, 0.4885496, 3.861, 0.2900763, 3.861, -2.6641221
0.4550294, -0.0166171, 3.86775, 0.0579834, 3.86775, -1.0037842, 3.86775, -0.1679688, 3.86775, 0.3206107, 3.86775, 0.4503817, 3.86775, -2.6335878
0.4558235, -0.0166171, 3.8745, 0.059021, 3.8745, -1.0054932, 3.8745, -0.1651611, 3.8745, 0.2900763, 3.8745, 0.4580153, 3.8745, -2.7557251
0.4566176, -0.0176242, 3.88125, 0.0596313, 3.88125, -1.0039673, 3.88125, -0.1694336, 3.88125, 0.2824427, 3.88125, 0.5114504, 3.88125, -2.7175572
0.4574118, -0.0172885, 3.888, 0.0575562, 3.888, -1.003418, 3.888, -0.1722412, 3.888, -0.0687023, 3.888, 0.648855, 3.888, -2.7709923
0.4582059, -0.0105745, 3.89475, 0.0559082, 3.89475, -0.9997559, 3.89475, -0.1742554, 3.89475, -0.1221374, 3.89475, 0.5419847, 3.89475, -2.8931298
0.459, -0.0068818, 3.9015, 0.0585938, 3.9015, -1.0013428, 3.9015, -0.1781616, 3.9015, -0.0763359, 3.9015, 0.5267175, 3.9015, -2.8854961
0.4597941, -0.0057069, 3.90825, 0.05896, 3.90825, -0.9993286, 3.90825, -0.1778564, 3.90825, -0.1679389, 3.90825, 0.648855, 3.90825, -3.0534351
0.4605882, -0.0102388, 3.915, 0.0579834, 3.915, -0.9962769, 3.915, -0.177002, 3.915, 0.0229008, 3.915, 0.648855, 3.915, -2.9694657
0.4613824, -0.0082246, 3.92175, 0.0582886, 3.92175, -0.9891968, 3.92175, -0.1836548, 3.92175, 0.1068702, 3.92175, 0.8473282, 3.92175, -3.1221373
0.4621765, -0.0041962, 3.9285, 0.0582275, 3.9285, -0.9892578, 3.9285, -0.1843262, 3.9285, 0.3053435, 3.9285, 0.8854962, 3.9285, -3.1450381
0.4629706, -0.0052033, 3.93525, 0.0581665, 3.93525, -0.9923706, 3.93525, -0.1873779, 3.93525, 0.2748092, 3.93525, 0.9923664, 3.93525, -3.1679389
0.4637647, -0.0085603, 3.942, 0.0612793, 3.942, -0.9937134, 3.942, -0.1854248, 3.942, 0.3969466, 3.942, 0.9694657, 3.942, -3.1908398
0.4645588, -0.0104067, 3.94875, 0.0574951, 3.94875, -0.9979858, 3.94875, -0.1851196, 3.94875, 0.5648855, 3.94875, 0.908397, 3.94875, -3.2748091
0.4653529, -0.0087282, 3.9555, 0.0602417, 3.9555, -0.9985962, 3.9555, -0.1895142, 3.9555, 0.7862595, 3.9555, 0.8854962, 3.9555, -3.1450381
0.4661471, -0.0129244, 3.96225, 0.0631714, 3.96225, -0.9973145, 3.96225, -0.1875, 3.96225, 0.870229, 3.96225, 0.8778626, 3.96225, -3.0152671
0.4669412, -0.018967, 3.969, 0.0629272, 3.969, -0.9989624, 3.969, -0.1879883, 3.969, 1.0992366, 3.969, 0.6641222, 3.969, -3.0992367
0.4677353, -0.0172885, 3.97575, 0.0620728, 3.97575, -0.9984741, 3.97575, -0.1894531, 3.97575, 1.3282443, 3.97575, 0.5267175, 3.97575, -3.1679389
0.4685294, -0.0135958, 3.9825, 0.06427, 3.9825, -0.9942627, 3.9825, -0.1886597, 3.9825, 1.4198474, 3.9825, 0.3969466, 3.9825, -3.1984732
0.4693235, -0.0201419, 3.98925, 0.0682373, 3.98925, -1.0013428, 3.98925, -0.1855469, 3.98925, 1.4122137, 3.98925, 0.4351145, 3.98925, -3.2442749
0.4701176, -0.0240024, 3.996, 0.0640259, 3.996, -1.0080566, 3.996, -0.182312, 3.996, 1.7480916, 3.996, 0.389313, 3.996, -3.1755726
0.4709118, -0.0229953, 4.00275, 0.0621948, 4.00275, -1.0064087, 4.00275, -0.1807861, 4.00275, 2.0152671, 4.00275, 0.3282443, 4.00275, -3.2671757
0.4717059, -0.0209812, 4.0095, 0.0632935, 4.0095, -1.0023804, 4.0095, -0.1801758, 4.0095, 1.9007634, 4.0095, 0.221374, 4.0095, -3.2366412
0.4725, -0.0224918, 4.01625, 0.0629883, 4.01625, -1.0053101, 4.01625, -0.178894, 4.01625, 1.9389313, 4.01625, 0.0076336, 4.01625, -3.2061069
0.4732941, -0.0182956, 4.023, 0.0640869, 4.023, -1.0076904, 4.023, -0.1785889, 4.023, 2.0152671, 4.023, 0.0992366, 4.023, -3.221374
0.4740882, -0.0172885, 4.02975, 0.0626221, 4.02975, -1.0079346, 4.02975, -0.1787109, 4.02975, 1.9770992, 4.02975, 0.3129771, 4.02975, -3.1832061
0.4748824, -0.0323949, 4.0365, 0.0654907, 4.0365, -1.0063477, 4.0365, -0.1821899, 4.0365, 1.8778626, 4.0365, 0.5038168, 4.0365, -3.2748091
0.4756765, -0.0276951, 4.04325, 0.0706177, 4.04325, -1.0079956, 4.04325, -0.1775513, 4.04325, 1.9465649, 4.04325, 0.8854962, 4.04325, -3.3206108
0.4764706, -0.018967, 4.05, 0.0703735, 4.05, -1.0075684, 4.05, -0.1799316, 4.05, 1.961832, 4.05, 1.5114504, 4.05, -3.1221373
0.4772647, -0.0095674, 4.05675, 0.0698853, 4.05675, -1.0059814, 4.05675, -0.1809082, 4.05675, 2.0458016, 4.05675, 2.091603, 4.05675, -3.0610688
0.4780588, 0.0115816, 4.0635, 0.0670166, 4.0635, -1.0090942, 4.0635, -0.1794434, 4.0635, 1.9847329, 4.0635, 2.6717558, 4.0635, -2.8625953
0.4788529, 0.0226596, 4.07025, 0.0645142, 4.07025, -1.0037842, 4.07025, -0.1807251, 4.07025, 2.1450381, 4.07025, 3.0229008, 4.07025, -3.0305343
0.4796471, 0.0248417, 4.077, 0.0627441, 4.077, -1.001709, 4.077, -0.1787109, 4.077, 2.351145, 4.077, 3.2061069, 4.077, -2.8167939
0.4804412, 0.0206455, 4.08375, 0.0608521, 4.08375, -1.0002441, 4.08375, -0.1776733, 4.08375, 2.2519083, 4.08375, 3.129771, 4.08375, -2.8015268
0.4812353, 0.0132601, 4.0905, 0.0592651, 4.0905, -1.0006104, 4.0905, -0.1777954, 4.0905, 2.2977099, 4.0905, 2.8854961, 4.0905, -2.8244274
0.4820294, 0.0065461, 4.09725, 0.059082, 4.09725, -1.0028076, 4.09725, -0.1776733, 4.09725, 2.3435113, 4.09725, 2.648855, 4.09725, -2.8854961
0.4828235, -0.0045319, 4.104, 0.0603638, 4.104, -1.0025635, 4.104, -0.1747437, 4.104, 2.3206108, 4.104, 2.2748091, 4.104, -2.8015268
0.4836176, -0.0149386, 4.11075, 0.0634766, 4.11075, -1.0028076, 4.11075, -0.1775513, 4.11075, 2.4122138, 4.11075, 1.9389313, 4.11075, -2.8625953
0.4844118, -0.0240024, 4.1175, 0.0683594, 4.1175, -1.0018311, 4.1175, -0.1768188, 4.1175, 2.3053436, 4.1175, 1.9923664, 4.1175, -2.8244274
0.4852059, -0.0276951, 4.12425, 0.0693359, 4.12425, -1.003418, 4.12425, -0.1760864, 4.12425, 2.480916, 4.12425, 2.1679389, 4.12425, -2.648855
0.486, -0.0332341, 4.131, 0.0675659, 4.131, -1.0056152, 4.131, -0.1748047, 4.131, 2.4198472, 4.131, 2.648855, 4.131, -2.480916
0.4867941, -0.0397803, 4.13775, 0.0714111, 4.13775, -1.0048828, 4.13775, -0.1724243, 4.13775, 2.351145, 4.13775, 2.961832, 4.13775, -2.610687
0.4875882, -0.0501869, 4.1445, 0.0685425, 4.1445, -1.0027466, 4.1445, -0.1722412, 4.1445, 2.2824428, 4.1445, 3.2900763, 4.1445, -2.3206108
0.4883824, -0.0562295, 4.15125, 0.0685425, 4.15125, -1.003418, 4.15125, -0.1694336, 4.15125, 2.3282442, 4.15125, 3.4198472, 4.15125, -2.2137403
0.4891765, -0.064622, 4.158, 0.0661011, 4.158, -1.0027466, 4.158, -0.1743774, 4.158, 2.1374047, 4.158, 3.4045801, 4.158, -2.1832061
0.4899706, -0.0619364, 4.16475, 0.0648804, 4.16475, -1.0019531, 4.16475, -0.1699829, 4.16475, 2, 4.16475, 3.3053436, 4.16475, -2.1221373
0.4907647, -0.0421302, 4.1715, 0.0652466, 4.1715, -1.0036011, 4.1715, -0.1673584, 4.1715, 2, 4.1715, 3.2290077, 4.1715, -1.9923664
0.4915588, -0.0258488, 4.17825, 0.06604, 4.17825, -1.0030518, 4.17825, -0.168335, 4.17825, 2.0687022, 4.17825, 3.0839694, 4.17825, -1.961832
0.4923529, -0.0135958, 4.185, 0.065979, 4.185, -1.0016479, 4.185, -0.1712646, 4.185, 1.8396946, 4.185, 3.0687022, 4.185, -1.9465649
0.4931471, -0.0099031, 4.19175, 0.0661621, 4.19175, -1.0009766, 4.19175, -0.170105, 4.19175, 1.8549619, 4.19175, 3.1679389, 4.19175, -2.0610688
0.4939412, -0.0085603, 4.1985, 0.064209, 4.1985, -0.9976807, 4.1985, -0.168335, 4.1985, 1.8015267, 4.1985, 3.0839694, 4.1985, -1.961832
0.4947353, -0.0102388, 4.20525, 0.0617676, 4.20525, -1.0024414, 4.20525, -0.1691284, 4.20525, 1.6564885, 4.20525, 3.1145039, 4.20525, -1.8931298
0.4955294, -0.0082246, 4.212, 0.0587158, 4.212, -1.0020752, 4.212, -0.1725464, 4.212, 1.6717557, 4.212, 2.9847329, 4.212, -1.8167939
0.4963235, 0.002182, 4.21875, 0.0576782, 4.21875, -1.0002441, 4.21875, -0.1704712, 4.21875, 1.5572519, 4.21875, 2.8473282, 4.21875, -1.8778626
0.4971176, 0.0052033, 4.2255, 0.0563354, 4.2255, -1.0012207, 4.2255, -0.1665039, 4.2255, 1.5801526, 4.2255, 2.7175572, 4.2255, -1.8625954
0.4979118, 0.0045319, 4.23225, 0.0540771, 4.23225, -1.0029907, 4.23225, -0.1688843, 4.23225, 1.5801526, 4.23225, 2.6564887, 4.23225, -1.7938931
0.4987059, 0.0095674, 4.239, 0.0526123, 4.239, -1.0019531, 4.239, -0.1670532, 4.239, 1.4274809, 4.239, 2.2900763, 4.239, -1.908397
0.4995, 0.0035248, 4.24575, 0.0540771, 4.24575, -1.0049438, 4.24575, -0.1679688, 4.24575, 1.4885496, 4.24575, 2.221374, 4.24575, -1.9923664
0.5002941, -0.002182, 4.2525, 0.0547485, 4.2525, -1.0018311, 4.2525, -0.1659546, 4.2525, 1.4961832, 4.2525, 2.1679389, 4.2525, -1.8396946
0.5010882, 0.0011749, 4.25925, 0.0547485, 4.25925, -1.0056152, 4.25925, -0.1658936, 4.25925, 1.3816794, 4.25925, 1.8244275, 4.25925, -1.8320611
0.5018824, 0.0028534, 4.266, 0.0539551, 4.266, -1.0042725, 4.266, -0.1668701, 4.266, 1.351145, 4.266, 1.480916, 4.266, -1.9694656
0.5026765, 0.0008392, 4.27275, 0.0531616, 4.27275, -1.005127, 4.27275, -0.1687012, 4.27275, 1.2900764, 4.27275, 1.1526718, 4.27275, -2.1450381
0.5034706, -0.0016785, 4.2795, 0.0551147, 4.2795, -1.0012817, 4.2795, -0.1680298, 4.2795, 1.3740458, 4.2795, 0.7175573, 4.2795, -2.0610688
0.5042647, -0.0035248, 4.28625, 0.050354, 4.28625, -1.0027466, 4.28625, -0.171814, 4.28625, 1.2671756, 4.28625, 0.3664122, 4.28625, -2.2900763
0.5050588, -0.0052033, 4.293, 0.052124, 4.293, -1.0038452, 4.293, -0.1708984, 4.293, 1.3587786, 4.293, 0.1221374, 4.293, -2.3740458
0.5058529, -0.005539, 4.29975, 0.0488892, 4.29975, -1.0042725, 4.29975, -0.1758423, 4.29975, 1.259542, 4.29975, 0.0305344, 4.29975, -2.5038168
0.5066471, -0.0072175, 4.3065, 0.0527344, 4.3065, -1.0076294, 4.3065, -0.1745605, 4.3065, 1.2442749, 4.3065, -0.0610687, 4.3065, -2.4503818
0.5074412, -0.0115816, 4.31325, 0.0584717, 4.31325, -1.0042725, 4.31325, -0.1763916, 4.31325, 1.3129771, 4.31325, -0.0458015, 4.31325, -2.4198472
0.5082353, -0.0139315, 4.32, 0.0640259, 4.32, -1.0048218, 4.32, -0.1782837, 4.32, 1.3053435, 4.32, 0.0381679, 4.32, -2.2671757
0.5090294, -0.0135958, 4.32675, 0.0645752, 4.32675, -1.0040894, 4.32675, -0.1813354, 4.32675, 1.4427481, 4.32675, 0.2977099, 4.32675, -2.3129771
0.5098235, -0.0151064, 4.3335, 0.0655518, 4.3335, -1.0024414, 4.3335, -0.1821899, 4.3335, 1.5267175, 4.3335, 0.8244275, 4.3335, -2.2366412
0.5106176, -0.0125887, 4.34025, 0.0679321, 4.34025, -0.9985962, 4.34025, -0.1795044, 4.34025, 1.4503816, 4.34025, 1.2748091, 4.34025, -2.2290077
0.5114118, -0.0135958, 4.347, 0.0620117, 4.347, -1.0015869, 4.347, -0.1757202, 4.347, 1.4732825, 4.347, 1.8854961, 4.347, -2.1908398
0.5122059, -0.010071, 4.35375, 0.0551147, 4.35375, -0.99823, 4.35375, -0.1743774, 4.35375, 1.5419847, 4.35375, 2.0076337, 4.35375, -2.1526718
0.513, -0.0142672, 4.3605, 0.0519409, 4.3605, -0.9996948, 4.3605, -0.1722412, 4.3605, 1.7175573, 4.3605, 2.0076337, 4.3605, -2.091603
0.5137941, -0.0119173, 4.36725, 0.0511475, 4.36725, -1.0004883, 4.36725, -0.1700439, 4.36725, 1.5725191, 4.36725, 1.5343511, 4.36725, -2.2442749
0.5145882, -0.0082246, 4.374, 0.0512695, 4.374, -1.0011597, 4.374, -0.1671143, 4.374, 1.519084, 4.374, 1.1145039, 4.374, -2.389313
0.5153824, -0.0109102, 4.38075, 0.0557861, 4.38075, -1.0022583, 4.38075, -0.1694336, 4.38075, 1.6793894, 4.38075, 0.8854962, 4.38075, -2.3969467
0.5161765, -0.0135958, 4.3875, 0.0591431, 4.3875, -1.0038452, 4.3875, -0.1726685, 4.3875, 1.7175573, 4.3875, 1.1908396, 4.3875, -2.2748091
0.5169706, -0.0146029, 4.39425, 0.0587158, 4.39425, -1.0043335, 4.39425, -0.1747437, 4.39425, 1.6412214, 4.39425, 1.4427481, 4.39425, -2.4122138
0.5177647, -0.0176242, 4.401, 0.0600586, 4.401, -1.0021362, 4.401, -0.1727295, 4.401, 1.4198474, 4.401, 1.6870229, 4.401, -2.3740458
0.5185588, -0.0199741, 4.40775, 0.057251, 4.40775, -1.006897, 4.40775, -0.1724243, 4.40775, 1.5419847, 4.40775, 1.9847329, 4.40775, -2.4961832
0.5193529, -0.0193027, 4.4145, 0.0545654, 4.4145, -1.0032959, 4.4145, -0.1702881, 4.4145, 1.389313, 4.4145, 2.0610688, 4.4145, -2.4122138
0.5201471, -0.0223239, 4.42125, 0.0539551, 4.42125, -1.001709, 4.42125, -0.1717529, 4.42125, 1.4427481, 4.42125, 2.259542, 4.42125, -2.519084
0.5209412, -0.0280308, 4.428, 0.0509033, 4.428, -1.0027466, 4.428, -0.1713867, 4.428, 1.3816794, 4.428, 2.1374047, 4.428, -2.3435113
0.5217353, -0.0265202, 4.43475, 0.0477905, 4.43475, -1.0058594, 4.43475, -0.1661987, 4.43475, 1.2519084, 4.43475, 1.8091604, 4.43475, -2.6183207
0.5225294, -0.0216526, 4.4415, 0.0464478, 4.4415, -1.0065918, 4.4415, -0.1669922, 4.4415, 1.1755725, 4.4415, 1.6335878, 4.4415, -2.5267177
0.5233235, -0.0253452, 4.44825, 0.0501709, 4.44825, -1.0021362, 4.44825, -0.1644897, 4.44825, 1.2137405, 4.44825, 1.2671756, 4.44825, -2.4503818
0.5241176, -0.023331, 4.455, 0.0543823, 4.455, -0.9985962, 4.455, -0.1693726, 4.455, 1.1145039, 4.455, 1.2748091, 4.455, -2.6335878
0.5249118, -0.0209812, 4.46175, 0.0560913, 4.46175, -1.0018921, 4.46175, -0.1690674, 4.46175, 1.1603054, 4.46175, 1.1908396, 4.46175, -2.7557251
0.5257059, -0.0162814, 4.4685, 0.0557861, 4.4685, -0.9994507, 4.4685, -0.1726685, 4.4685, 1.1221374, 4.4685, 1.519084, 4.4685, -2.610687
0.5265, -0.0115816, 4.47525, 0.0553589, 4.47525, -1.003479, 4.47525, -0.1723633, 4.47525, 1.221374, 4.47525, 1.8549619, 4.47525, -2.5954199
0.5272941, -0.0140993, 4.482, 0.0530396, 4.482, -1.0038452, 4.482, -0.1724243, 4.482, 1.0458015, 4.482, 2.2900763, 4.482, -2.6793892
0.5280882, -0.0115816, 4.48875, 0.0541992, 4.48875, -1.0075684, 4.48875, -0.1727905, 4.48875, 1.1221374, 4.48875, 2.1526718, 4.48875, -2.7099237
0.5288824, -0.0075532, 4.4955, 0.0546265, 4.4955, -1.0073242, 4.4955, -0.1781006, 4.4955, 1.3053435, 4.4955, 2.4198472, 4.4955, -2.5877862
0.5296765, -0.0063783, 4.50225, 0.0596924, 4.50225, -1.0045776, 4.50225, -0.1751709, 4.50225, 1.4732825, 4.50225, 2.6717558, 4.50225, -2.7709923
0.5304706, -0.0119173, 4.509, 0.0575562, 4.509, -1.0023193, 4.509, -0.1774292, 4.509, 1.5877863, 4.509, 2.8931298, 4.509, -2.5343511
0.5312647, -0.0166171, 4.51575, 0.0557861, 4.51575, -1.0050049, 4.51575, -0.1751099, 4.51575, 1.4961832, 4.51575, 3.091603, 4.51575, -2.5267177
0.5320588, -0.0164492, 4.5225, 0.0557251, 4.5225, -1.005249, 4.5225, -0.1744995, 4.5225, 1.4885496, 4.5225, 3.0152671, 4.5225, -2.6870229
0.5328529, -0.0135958, 4.52925, 0.0541382, 4.52925, -1.0091553, 4.52925, -0.1685181, 4.52925, 1.5725191, 4.52925, 2.8931298, 4.52925, -2.7862597
0.5336471, -0.0075532, 4.536, 0.0546265, 4.536, -1.007019, 4.536, -0.1717529, 4.536, 1.6717557, 4.536, 2.5267177, 4.536, -2.8473282
0.5344412, -0.0083925, 4.54275, 0.053894, 4.54275, -1.0039673, 4.54275, -0.1704102, 4.54275, 1.8167939, 4.54275, 2.2137403, 4.54275, -2.7633588
0.5352353, -0.0142672, 4.5495, 0.0560913, 4.5495, -1.0027466, 4.5495, -0.1697998, 4.5495, 1.7480916, 4.5495, 1.8167939, 4.5495, -2.908397
0.5360294, -0.0171206, 4.55625, 0.0548706, 4.55625, -1.0020142, 4.55625, -0.1692505, 4.55625, 1.8473282, 4.55625, 1.8396946, 4.55625, -2.8396947
0.5368235, -0.0164492, 4.563, 0.0556641, 4.563, -1.005188, 4.563, -0.1680908, 4.563, 1.8625954, 4.563, 1.610687, 4.563, -2.6564887
0.5376176, -0.0209812, 4.56975, 0.0559082, 4.56975, -1.0027466, 4.56975, -0.1676025, 4.56975, 1.9770992, 4.56975, 1.4122137, 4.56975, -2.7175572
0.5384118, -0.0270237, 4.5765, 0.0562134, 4.5765, -1.0029297, 4.5765, -0.1714478, 4.5765, 1.8320611, 4.5765, 1.3053435, 4.5765, -2.6183207
0.5392059, -0.0273594, 4.58325, 0.0559692, 4.58325, -1.0037231, 4.58325, -0.1676025, 4.58325, 1.8015267, 4.58325, 1.0992366, 4.58325, -2.8091602
0.54, -0.0318914, 4.59, 0.0569458, 4.59, -1.0049438, 4.59, -0.1708374, 4.59, 1.6946565, 4.59, 1.1679389, 4.59, -2.8320611
0.5407941, -0.0240024, 4.59675, 0.0560913, 4.59675, -1.0042725, 4.59675, -0.1716309, 4.59675, 1.7099236, 4.59675, 1.3358779, 4.59675, -2.8091602
0.5415882, -0.0035248, 4.6035, 0.0533447, 4.6035, -1.0025024, 4.6035, -0.1690063, 4.6035, 1.7557251, 4.6035, 1.4274809, 4.6035, -2.8244274
0.5423824, -0.0135958, 4.61025, 0.0541382, 4.61025, -1.003418, 4.61025, -0.1713867, 4.61025, 1.7022901, 4.61025, 1.3664122, 4.61025, -2.7328243
0.5431765, -0.0287022, 4.617, 0.0552368, 4.617, -1.00177, 4.617, -0.1743164, 4.617, 1.7175573, 4.617, 1.3587786, 4.617, -2.740458
0.5439706, -0.0330663, 4.62375, 0.0567017, 4.62375, -1.00177, 4.62375, -0.1691284, 4.62375, 1.5877863, 4.62375, 1.4274809, 4.62375, -2.870229
0.5447647, -0.027863, 4.6305, 0.0553589, 4.6305, -1.0036011, 4.6305, -0.1682739, 4.6305, 1.5877863, 4.6305, 1.2900764, 4.6305, -2.8244274
0.5455588, -0.0182956, 4.63725, 0.0563965, 4.63725, -1.0046387, 4.63725, -0.1711426, 4.63725, 1.4045801, 4.63725, 1.3053435, 4.63725, -2.9465649
0.5463529, -0.0001678, 4.644, 0.0563965, 4.644, -1.0046387, 4.644, -0.1721802, 4.644, 1.3435115, 4.644, 1.3282443, 4.644, -2.8778627
0.5471471, 0.0065461, 4.65075, 0.0529175, 4.65075, -1.0067139, 4.65075, -0.1722412, 4.65075, 1.3816794, 4.65075, 1.4503816, 4.65075, -2.9465649
0.5479412, -0.005539, 4.6575, 0.0534058, 4.6575, -1.0071411, 4.6575, -0.1730957, 4.6575, 1.5954199, 4.6575, 1.5267175, 4.6575, -2.9007633
0.5487353, -0.0166171, 4.66425, 0.0517578, 4.66425, -1.0056152, 4.66425, -0.1668701, 4.66425, 1.480916, 4.66425, 1.5496184, 4.66425, -2.8854961
0.5495294, -0.0162814, 4.671, 0.0505371, 4.671, -1.0053711, 4.671, -0.1697998, 4.671, 1.2290076, 4.671, 1.3969465, 4.671, -3.0763359
0.5503235, -0.0149386, 4.67775, 0.0521851, 4.67775, -1.0029297, 4.67775, -0.1724243, 4.67775, 1.3740458, 4.67775, 1.5496184, 4.67775, -3.1450381
0.5511176, -0.0142672, 4.6845, 0.0523682, 4.6845, -1.0043335, 4.6845, -0.1705933, 4.6845, 1.5343511, 4.6845, 1.6641221, 4.6845, -3.2671757
0.5519118, -0.0139315, 4.69125, 0.0508423, 4.69125, -1.0040283, 4.69125, -0.1699219, 4.69125, 1.6335878, 4.69125, 1.9236641, 4.69125, -3.2061069
0.5527059, -0.0099031, 4.698, 0.0517578, 4.698, -1.0059204, 4.698, -0.170105, 4.698, 1.6335878, 4.698, 1.9160305, 4.698, -3.2748091
0.5535, -0.0078889, 4.70475, 0.0488892, 4.70475, -1.0032349, 4.70475, -0.1694336, 4.70475, 1.6030535, 4.70475, 2.0687022, 4.70475, -3.2442749
0.5542941, -0.0104067, 4.7115, 0.0489502, 4.7115, -1.0043335, 4.7115, -0.1722412, 4.7115, 1.6412214, 4.7115, 2.091603, 4.7115, -3.2061069
0.5550882, -0.0115816, 4.71825, 0.0466309, 4.71825, -1.0026855, 4.71825, -0.1743774, 4.71825, 1.6412214, 4.71825, 1.9694656, 4.71825, -3.2442749
0.5558824, -0.0142672, 4.725, 0.0446777, 4.725, -1.0049438, 4.725, -0.1691284, 4.725, 1.6564885, 4.725, 2.0534351, 4.725, -3.4732823
0.5566765, -0.0112459, 4.73175, 0.0462036, 4.73175, -1.003418, 4.73175, -0.1685181, 4.73175, 1.7862595, 4.73175, 1.6946565, 4.73175, -3.6259542
0.5574706, -0.0115816, 4.7385, 0.0436401, 4.7385, -0.9992065, 4.7385, -0.1706543, 4.7385, 1.7557251, 4.7385, 1.4198474, 4.7385, -3.7709923
0.5582647, -0.0115816, 4.74525, 0.0444336, 4.74525, -0.9990845, 4.74525, -0.1714478, 4.74525, 1.6335878, 4.74525, 1.2061069, 4.74525, -3.8244274
0.5590588, -0.0099031, 4.752, 0.0441284, 4.752, -0.999939, 4.752, -0.1721191, 4.752, 1.6335878, 4.752, 0.8778626, 4.752, -3.7862597
0.5598529, -0.0082246, 4.75875, 0.0465698, 4.75875, -1.0016479, 4.75875, -0.1737061, 4.75875, 1.8778626, 4.75875, 0.7328244, 4.75875, -4.0687022
0.5606471, -0.0063783, 4.7655, 0.0443726, 4.7655, -1.00177, 4.7655, -0.1727905, 4.7655, 1.7175573, 4.7655, 0.5954198, 4.7655, -4.0076337
0.5614412, -0.0078889, 4.77225, 0.0501709, 4.77225, -1.0022583, 4.77225, -0.1727295, 4.77225, 1.7862595, 4.77225, 0.4198473, 4.77225, -4.0839696
0.5622353, -0.0068818, 4.779, 0.0508423, 4.779, -1.0021362, 4.779, -0.1740112, 4.779, 1.7099236, 4.779, 0.3740458, 4.779, -4.1450381
0.5630294, -0.0062104, 4.78575, 0.0526733, 4.78575, -1.0025024, 4.78575, -0.1715088, 4.78575, 1.6564885, 4.78575, 0.5801527, 4.78575, -4.2290077
0.5638235, -0.0090639, 4.7925, 0.0559692, 4.7925, -1.0010376, 4.7925, -0.168457, 4.7925, 1.6717557, 4.7925, 0.6641222, 4.7925, -4.1526718
0.5646176, -0.0095674, 4.79925, 0.0562134, 4.79925, -1.0004272, 4.79925, -0.1716919, 4.79925, 1.870229, 4.79925, 0.7480916, 4.79925, -4.221374
0.5654118, -0.0135958, 4.806, 0.0524902, 4.806, -1.0042114, 4.806, -0.1693115, 4.806, 2.0229008, 4.806, 0.740458, 4.806, -4.3129773
0.5662059, -0.0129244, 4.81275, 0.0549316, 4.81275, -1.0015869, 4.81275, -0.1680908, 4.81275, 1.9541985, 4.81275, 0.8015267, 4.81275, -4.3969464
0.567, -0.0166171, 4.8195, 0.0504761, 4.8195, -1.0023804, 4.8195, -0.1689453, 4.8195, 1.9694656, 4.8195, 0.4580153, 4.8195, -4.3435116
0.5677941, -0.0112459, 4.82625, 0.0512695, 4.82625, -1.0033569, 4.82625, -0.1676025, 4.82625, 2.0076337, 4.82625, 0.0687023, 4.82625, -4.4351144
0.5685882, -0.0172885, 4.833, 0.0494995, 4.833, -1.0041504, 4.833, -0.1699829, 4.833, 1.9923664, 4.833, -0.5648855, 4.833, -4.5496182
0.5693824, -0.0206455, 4.83975, 0.0516968, 4.83975, -1.0072632, 4.83975, -0.1665039, 4.83975, 1.870229, 4.83975, -0.7328244, 4.83975, -4.6106873
0.5701765, -0.0179599, 4.8465, 0.0523682, 4.8465, -1.005249, 4.8465, -0.1674194, 4.8465, 1.9236641, 4.8465, -0.961832, 4.8465, -4.6488547
0.5709706, -0.0171206, 4.85325, 0.0562134, 4.85325, -1.0077515, 4.85325, -0.1677856, 4.85325, 2, 4.85325, -1.1221374, 4.85325, -4.740458
0.5717647, -0.023331, 4.86, 0.0587158, 4.86, -1.0047607, 4.86, -0.1658936, 4.86, 1.7938931, 4.86, -0.9236641, 4.86, -4.6259542
0.5725588, -0.0219883, 4.86675, 0.05896, 4.86675, -1.0049438, 4.86675, -0.1661377, 4.86675, 1.7938931, 4.86675, -0.8549618, 4.86675, -4.6259542
0.5733529, -0.0161135, 4.8735, 0.059021, 4.8735, -1.0040894, 4.8735, -0.1636963, 4.8735, 1.9160305, 4.8735, -0.6564885, 4.8735, -4.6335878
0.5741471, -0.0206455, 4.88025, 0.0552979, 4.88025, -1.0010986, 4.88025, -0.1665039, 4.88025, 1.8244275, 4.88025, -0.5648855, 4.88025, -4.4656487
0.5749412, -0.0184634, 4.887, 0.057251, 4.887, -1.0042725, 4.887, -0.1677246, 4.887, 1.9007634, 4.887, -0.7557252, 4.887, -4.4961834
0.5757353, -0.0149386, 4.89375, 0.0546875, 4.89375, -0.9998169, 4.89375, -0.1677246, 4.89375, 1.8244275, 4.89375, -0.8854962, 4.89375, -4.4885497
0.5765294, -0.0132601, 4.9005, 0.0559692, 4.9005, -0.998291, 4.9005, -0.168396, 4.9005, 1.8625954, 4.9005, -0.9312977, 4.9005, -4.4580154
0.5773235, -0.0139315, 4.90725, 0.0569458, 4.90725, -1.0009766, 4.90725, -0.1728516, 4.90725, 1.9694656, 4.90725, -1.1145039, 4.90725, -4.3511453
0.5781176, -0.0137636, 4.914, 0.0592041, 4.914, -1.0008545, 4.914, -0.1711426, 4.914, 1.9847329, 4.914, -0.9923664, 4.914, -4.3587785
0.5789118, -0.0129244, 4.92075, 0.0627441, 4.92075, -1.0004883, 4.92075, -0.1719971, 4.92075, 2.1374047, 4.92075, -0.8396947, 4.92075, -4.3893127
0.5797059, -0.0149386, 4.9275, 0.0665283, 4.9275, -1.0023804, 4.9275, -0.1694336, 4.9275, 2.5725191, 4.9275, -0.778626, 4.9275, -4.4122138
0.5805, -0.0137636, 4.93425, 0.0683594, 4.93425, -1.0014648, 4.93425, -0.1748047, 4.93425, 2.4732823, 4.93425, -0.5725191, 4.93425, -4.4274807
0.5812941, -0.0095674, 4.941, 0.0730591, 4.941, -0.9997559, 4.941, -0.1749878, 4.941, 2.5038168, 4.941, 0.1221374, 4.941, -4.1679387
0.5820882, -0.005539, 4.94775, 0.0713501, 4.94775, -0.9992676, 4.94775, -0.175354, 4.94775, 2.5801528, 4.94775, 0.389313, 4.94775, -4.1603055
0.5828824, -0.0099031, 4.9545, 0.0693359, 4.9545, -1.0022583, 4.9545, -0.1752319, 4.9545, 2.5954199, 4.9545, 1.0305344, 4.9545, -4.1068702
0.5836765, -0.011078, 4.96125, 0.0651855, 4.96125, -1.0004883, 4.96125, -0.1705933, 4.96125, 2.6870229, 4.96125, 1.4351145, 4.96125, -4.1908398
0.5844706, -0.008896, 4.968, 0.0617065, 4.968, -1.0031128, 4.968, -0.168396, 4.968, 2.7709923, 4.968, 1.4885496, 4.968, -4.1755724
0.5852647, -0.01561, 4.97475, 0.0588989, 4.97475, -1.00354, 4.97475, -0.1689453, 4.97475, 2.8244274, 4.97475, 1.4122137, 4.97475, -4.038168
0.5860588, -0.0196384, 4.9815, 0.0620728, 4.9815, -1.0010376, 4.9815, -0.168335, 4.9815, 2.870229, 4.9815, 1.129771, 4.9815, -4.0610685
0.5868529, -0.0172885, 4.98825, 0.0601807, 4.98825, -1.0016479, 4.98825, -0.1678467, 4.98825, 2.9160306, 4.98825, 1.0305344, 4.98825, -4.0839696
0.5876471, -0.0182956, 4.995, 0.0617676, 4.995, -1.0021362, 4.995, -0.1693115, 4.995, 2.9312978, 4.995, 1.1679389, 4.995, -4.1679387
0.5884412, -0.021149, 5.00175, 0.0678711, 5.00175, -1.0027466, 5.00175, -0.1658936, 5.00175, 2.9007633, 5.00175, 1.1908396, 5.00175, -4.0152674
0.5892353, -0.0236667, 5.0085, 0.06427, 5.0085, -1.0059204, 5.0085, -0.1636353, 5.0085, 2.9541984, 5.0085, 1.5725191, 5.0085, -3.8625953
0.5900294, -0.0218204, 5.01525, 0.0637817, 5.01525, -1.0031128, 5.01525, -0.1624756, 5.01525, 2.9312978, 5.01525, 1.7175573, 5.01525, -3.8091602
0.5908235, -0.0236667, 5.022, 0.0618286, 5.022, -1.0025024, 5.022, -0.1616821, 5.022, 2.9847329, 5.022, 1.8549619, 5.022, -3.7099237
0.5916176, -0.0250095, 5.02875, 0.0569458, 5.02875, -1.0042114, 5.02875, -0.1600952, 5.02875, 2.870229, 5.02875, 1.8167939, 5.02875, -3.8167939
0.5924118, -0.0213169, 5.0355, 0.0577393, 5.0355, -1.0041504, 5.0355, -0.1625366, 5.0355, 2.7328243, 5.0355, 1.8167939, 5.0355, -3.7862597
0.5932059, -0.0186313, 5.04225, 0.0558472, 5.04225, -1.0012207, 5.04225, -0.1637573, 5.04225, 2.6793892, 5.04225, 1.870229, 5.04225, -3.7175572
0.594, -0.0198062, 5.049, 0.0574341, 5.049, -1.0027466, 5.049, -0.1567993, 5.049, 2.648855, 5.049, 2.0763359, 5.049, -3.778626
0.5947941, -0.0154421, 5.05575, 0.0612793, 5.05575, -1.0015869, 5.05575, -0.1567993, 5.05575, 2.8015268, 5.05575, 2.0076337, 5.05575, -3.6793892
0.5955882, -0.0130922, 5.0625, 0.0606079, 5.0625, -1.0012207, 5.0625, -0.1574097, 5.0625, 2.6717558, 5.0625, 2.0763359, 5.0625, -3.6183207
0.5963824, -0.0125887, 5.06925, 0.0648804, 5.06925, -1.0006104, 5.06925, -0.1558838, 5.06925, 2.3664122, 5.06925, 2.1526718, 5.06925, -3.7633588
0.5971765, -0.0078889, 5.076, 0.065979, 5.076, -0.9981079, 5.076, -0.15979, 5.076, 2.4427481, 5.076, 2.091603, 5.076, -3.5725191
0.5979706, -0.0068818, 5.08275, 0.0606689, 5.08275, -1.0028687, 5.08275, -0.1540527, 5.08275, 2.3129771, 5.08275, 2.0534351, 5.08275, -3.5877862
0.5987647, -0.0072175, 5.0895, 0.0601196, 5.0895, -1.0004272, 5.0895, -0.15625, 5.0895, 2.3282442, 5.0895, 2.1068702, 5.0895, -3.5801528
0.5995588, -0.008896, 5.09625, 0.0570068, 5.09625, -1.000061, 5.09625, -0.1567383, 5.09625, 2.1374047, 5.09625, 1.7633588, 5.09625, -3.6183207
0.6003529, -0.0105745, 5.103, 0.0568237, 5.103, -1.0023193, 5.103, -0.1572266, 5.103, 2.1679389, 5.103, 1.7709924, 5.103, -3.7022901
0.6011471, -0.0159457, 5.10975, 0.0576782, 5.10975, -1.0021973, 5.10975, -0.1577759, 5.10975, 2.2519083, 5.10975, 1.4656489, 5.10975, -3.7557251
0.6019412, -0.01561, 5.1165, 0.0581665, 5.1165, -1.0043945, 5.1165, -0.1567383, 5.1165, 1.9694656, 5.1165, 0.9847328, 5.1165, -3.7862597
0.6027353, -0.0172885, 5.12325, 0.0640869, 5.12325, -0.9995117, 5.12325, -0.1575317, 5.12325, 1.9923664, 5.12325, 0.6030535, 5.12325, -3.7709923
0.6035294, -0.018967, 5.13, 0.0666504, 5.13, -1.0044556, 5.13, -0.1598511, 5.13, 1.8778626, 5.13, 0.6946565, 5.13, -3.6717558
0.6043235, -0.023331, 5.13675, 0.067688, 5.13675, -1.0023804, 5.13675, -0.1621094, 5.13675, 1.9312977, 5.13675, 0.961832, 5.13675, -3.740458
0.6051176, -0.026688, 5.1435, 0.0650635, 5.1435, -1.0008545, 5.1435, -0.163269, 5.1435, 1.9770992, 5.1435, 1.0534351, 5.1435, -3.7099237
0.6059118, -0.0236667, 5.15025, 0.069397, 5.15025, -1.0056763, 5.15025, -0.1624756, 5.15025, 1.7709924, 5.15025, 1.2900764, 5.15025, -3.7557251
0.6067059, -0.0226596, 5.157, 0.0638428, 5.157, -1.0033569, 5.157, -0.1593018, 5.157, 1.9312977, 5.157, 1.259542, 5.157, -3.6030533
0.6075, -0.0236667, 5.16375, 0.0610962, 5.16375, -1.0029297, 5.16375, -0.1572266, 5.16375, 1.8320611, 5.16375, 0.9694657, 5.16375, -3.4961832
0.6082941, -0.0179599, 5.1705, 0.0593872, 5.1705, -1.0039062, 5.1705, -0.1592407, 5.1705, 1.7175573, 5.1705, 0.778626, 5.1705, -3.5038168
0.6090882, -0.0169528, 5.17725, 0.0579834, 5.17725, -1.0030518, 5.17725, -0.1578979, 5.17725, 1.7480916, 5.17725, 0.8549618, 5.17725, -3.6259542
0.6098824, -0.0139315, 5.184, 0.0602417, 5.184, -1.0026245, 5.184, -0.1566772, 5.184, 1.6793894, 5.184, 0.5114504, 5.184, -3.6870229
0.6106765, -0.0240024, 5.19075, 0.0596924, 5.19075, -1.0032959, 5.19075, -0.1546021, 5.19075, 1.6030535, 5.19075, 0.3053435, 5.19075, -3.6183207
0.6114706, -0.0182956, 5.1975, 0.059021, 5.1975, -1.0012207, 5.1975, -0.1549683, 5.1975, 1.5267175, 5.1975, 0.0229008, 5.1975, -3.5801528
0.6122647, -0.0082246, 5.20425, 0.0626831, 5.20425, -0.9995117, 5.20425, -0.1578979, 5.20425, 1.6335878, 5.20425, -0.0763359, 5.20425, -3.6641221
0.6130588, -0.0011749, 5.211, 0.060791, 5.211, -1.0008545, 5.211, -0.1565552, 5.211, 1.3816794, 5.211, 0.0152672, 5.211, -3.6564887
0.6138529, 0.0112459, 5.21775, 0.065918, 5.21775, -1.0013428, 5.21775, -0.1567993, 5.21775, 1.4580153, 5.21775, 0.0992366, 5.21775, -3.4503818
0.6146471, 0.0072175, 5.2245, 0.0630493, 5.2245, -1.0014648, 5.2245, -0.1549683, 5.2245, 1.3969465, 5.2245, 0.2748092, 5.2245, -3.6335878
0.6154412, -0.0011749, 5.23125, 0.0593262, 5.23125, -0.999939, 5.23125, -0.1541138, 5.23125, 1.3740458, 5.23125, 0.3053435, 5.23125, -3.4045801
0.6162353, -0.0068818, 5.238, 0.06073, 5.238, -0.9993896, 5.238, -0.1576538, 5.238, 1.1679389, 5.238, 0.2061069, 5.238, -3.4961832
0.6170294, -0.0179599, 5.24475, 0.0604248, 5.24475, -1.0027466, 5.24475, -0.1599121, 5.24475, 1.0229008, 5.24475, 0.2977099, 5.24475, -3.480916
0.6178235, -0.0241703, 5.2515, 0.062439, 5.2515, -1.0031738, 5.2515, -0.1589355, 5.2515, 1.1221374, 5.2515, 0.0610687, 5.2515, -3.4045801
0.6186176, -0.0307164, 5.25825, 0.0636597, 5.25825, -1.0026855, 5.25825, -0.1610107, 5.25825, 1.1374046, 5.25825, 0.0687023, 5.25825, -3.3664122
0.6194118, -0.0310521, 5.265, 0.0633545, 5.265, -1.0015869, 5.265, -0.1627808, 5.265, 0.961832, 5.265, 0.0458015, 5.265, -3.3053436
0.6202059, -0.0182956, 5.27175, 0.0661011, 5.27175, -1.0018921, 5.27175, -0.1591797, 5.27175, 0.9236641, 5.27175, 0.1526718, 5.27175, -3.3282442
0.621, -0.0146029, 5.2785, 0.0632935, 5.2785, -1.00354, 5.2785, -0.1638184, 5.2785, 1.0534351, 5.2785, 0.0458015, 5.2785, -3.4885497
0.6217941, -0.0142672, 5.28525, 0.0641479, 5.28525, -1.0033569, 5.28525, -0.1641846, 5.28525, 0.8396947, 5.28525, 0.0229008, 5.28525, -3.3435113
0.6225882, -0.0109102, 5.292, 0.0625, 5.292, -1.0046387, 5.292, -0.1593628, 5.292, 0.8625954, 5.292, -0.1603053, 5.292, -3.2748091
0.6233824, -0.0115816, 5.29875, 0.0588989, 5.29875, -1.0064087, 5.29875, -0.1619873, 5.29875, 0.8320611, 5.29875, -0.1603053, 5.29875, -3.2442749
0.6241765, -0.0099031, 5.3055, 0.0618896, 5.3055, -1.0045166, 5.3055, -0.1590576, 5.3055, 0.9465649, 5.3055, -0.0381679, 5.3055, -3.4503818
0.6249706, -0.012253, 5.31225, 0.0625, 5.31225, -1.0043335, 5.31225, -0.1603394, 5.31225, 0.9923664, 5.31225, -0.1145038, 5.31225, -3.4656489
0.6257647, -0.0115816, 5.319, 0.0641479, 5.319, -0.9987793, 5.319, -0.1629639, 5.319, 0.8625954, 5.319, -0.2442748, 5.319, -3.3358779
0.6265588, -0.0097353, 5.32575, 0.0609741, 5.32575, -1.0027466, 5.32575, -0.1627197, 5.32575, 0.8473282, 5.32575, -0.0152672, 5.32575, -3.259542
0.6273529, -0.0045319, 5.3325, 0.0618896, 5.3325, -1.0065308, 5.3325, -0.1615601, 5.3325, 0.961832, 5.3325, -0.0916031, 5.3325, -3.1832061
0.6281471, -0.0068818, 5.33925, 0.0631104, 5.33925, -1.005127, 5.33925, -0.1619873, 5.33925, 0.9694657, 5.33925, 0.0229008, 5.33925, -3.3053436
0.6289412, -0.0095674, 5.346, 0.0620117, 5.346, -1.0050659, 5.346, -0.1593628, 5.346, 0.7175573, 5.346, 0.0916031, 5.346, -3.3587787
0.6297353, -0.0125887, 5.35275, 0.0651855, 5.35275, -1.0036011, 5.35275, -0.1592407, 5.35275, 0.8167939, 5.35275, 0.0610687, 5.35275, -3.1450381
0.6305294, -0.0102388, 5.3595, 0.0629272, 5.3595, -1.0039062, 5.3595, -0.163208, 5.3595, 0.6946565, 5.3595, -0.0458015, 5.3595, -3.221374
0.6313235, -0.0109102, 5.36625, 0.0626221, 5.36625, -1.0046997, 5.36625, -0.1637573, 5.36625, 0.6717557, 5.36625, -0.0916031, 5.36625, -3.2366412
0.6321176, -0.005539, 5.373, 0.0634766, 5.373, -1.0065308, 5.373, -0.1601562, 5.373, 0.7251908, 5.373, -0.0076336, 5.373, -3.1526718
0.6329118, -0.0045319, 5.37975, 0.0653076, 5.37975, -1.006897, 5.37975, -0.1591797, 5.37975, 0.6335878, 5.37975, -0.1450382, 5.37975, -3.0610688
0.6337059, -0.0028534, 5.3865, 0.0648804, 5.3865, -1.0015259, 5.3865, -0.1585693, 5.3865, 0.7099237, 5.3865, -0.1526718, 5.3865, -3.1450381
0.6345, -0.0038605, 5.39325, 0.0639038, 5.39325, -1.0033569, 5.39325, -0.1621094, 5.39325, 0.908397, 5.39325, -0.129771, 5.39325, -3.1984732
0.6352941, -0.0119173, 5.4, 0.0588379, 5.4, -1.0039673, 5.4, -0.1622314, 5.4, 0.6717557, 5.4, -0.0152672, 5.4, -3.1374047
0.6360882, -0.0115816, 5.40675, 0.0615845, 5.40675, -1.0049438, 5.40675, -0.1634521, 5.40675, 0.6946565, 5.40675, -0.1526718, 5.40675, -3.351145
0.6368824, -0.0182956, 5.4135, 0.0585327, 5.4135, -1.0013428, 5.4135, -0.159729, 5.4135, 0.6717557, 5.4135, -0.2442748, 5.4135, -3.1374047
0.6376765, -0.0223239, 5.42025, 0.0620117, 5.42025, -0.9994507, 5.42025, -0.1619873, 5.42025, 0.7633588, 5.42025, -0.2061069, 5.42025, -3.221374
0.6384706, -0.0255131, 5.427, 0.0649414, 5.427, -1.0042725, 5.427, -0.1638184, 5.427, 0.6641222, 5.427, -0.1679389, 5.427, -3.2671757
0.6392647, -0.0276951, 5.43375, 0.0648804, 5.43375, -1.0032959, 5.43375, -0.1634521, 5.43375, 0.6183206, 5.43375, 0.1755725, 5.43375, -3.2290077
0.6400588, -0.024506, 5.4405, 0.0643311, 5.4405, -1.0003052, 5.4405, -0.1646118, 5.4405, 0.8625954, 5.4405, 0.2519084, 5.4405, -3.129771
0.6408529, -0.0223239, 5.44725, 0.0628052, 5.44725, -1.0010376, 5.44725, -0.1654053, 5.44725, 0.961832, 5.44725, 0.3664122, 5.44725, -2.8854961
0.6416471, -0.0251774, 5.454, 0.0633545, 5.454, -1.0025635, 5.454, -0.1638184, 5.454, 0.9389313, 5.454, 0.4427481, 5.454, -3.0305343
0.6424412, -0.0243381, 5.46075, 0.0611572, 5.46075, -1.0016479, 5.46075, -0.1629028, 5.46075, 0.7099237, 5.46075, 0.5572519, 5.46075, -3.0305343
0.6432353, -0.0229953, 5.4675, 0.0567017, 5.4675, -1.0048218, 5.4675, -0.1605835, 5.4675, 0.5267175, 5.4675, 0.351145, 5.4675, -2.9923663
0.6440294, -0.0263523, 5.47425, 0.0588379, 5.47425, -1.0021973, 5.47425, -0.1601562, 5.47425, 0.6030535, 5.47425, 0.0229008, 5.47425, -3.0305343
0.6448235, -0.0273594, 5.481, 0.0596924, 5.481, -1.0007935, 5.481, -0.1605225, 5.481, 0.8320611, 5.481, 0.0152672, 5.481, -3.2977099
0.6456176, -0.0176242, 5.48775, 0.0599365, 5.48775, -1.0057373, 5.48775, -0.1607056, 5.48775, 0.7099237, 5.48775, -0.0839695, 5.48775, -3.2519083
0.6464118, -0.0135958, 5.4945, 0.0623779, 5.4945, -1.005188, 5.4945, -0.1627808, 5.4945, 0.7251908, 5.4945, -0.1755725, 5.4945, -3.1221373
0.6472059, -0.0085603, 5.50125, 0.0620728, 5.50125, -1.0070801, 5.50125, -0.1630249, 5.50125, 0.6183206, 5.50125, -0.3740458, 5.50125, -3.129771
0.648, -0.0104067, 5.508, 0.062561, 5.508, -1.0030518, 5.508, -0.1620483, 5.508, 0.5954198, 5.508, -0.389313, 5.508, -3.129771
0.6487941, -0.012253, 5.51475, 0.0644531, 5.51475, -1.0023193, 5.51475, -0.1627197, 5.51475, 0.6870229, 5.51475, -0.1755725, 5.51475, -3.1145039
0.6495882, -0.0082246, 5.5215, 0.0652466, 5.5215, -1.0058594, 5.5215, -0.1607666, 5.5215, 0.7099237, 5.5215, 0.0076336, 5.5215, -3.221374
0.6503824, -0.0077211, 5.52825, 0.0621948, 5.52825, -1.0038452, 5.52825, -0.1588135, 5.52825, 0.648855, 5.52825, 0, 5.52825, -3.1755726
0.6511765, -0.0102388, 5.535, 0.0621948, 5.535, -1.0013428, 5.535, -0.1593018, 5.535, 0.6335878, 5.535, 0.0687023, 5.535, -3.2366412
0.6519706, -0.012253, 5.54175, 0.0605469, 5.54175, -1.0009155, 5.54175, -0.1606445, 5.54175, 0.4885496, 5.54175, 0, 5.54175, -3.091603
0.6527647, -0.0151064, 5.5485, 0.0578613, 5.5485, -1.0004272, 5.5485, -0.1627197, 5.5485, 0.610687, 5.5485, -0.0763359, 5.5485, -3.2366412
0.6535588, -0.0171206, 5.55525, 0.0582275, 5.55525, -1.0043335, 5.55525, -0.1620483, 5.55525, 0.4732825, 5.55525, -0.2061069, 5.55525, -3.2519083
0.6543529, -0.0179599, 5.562, 0.0605469, 5.562, -1.0004883, 5.562, -0.1610107, 5.562, 0.6259542, 5.562, -0.2519084, 5.562, -3.221374
0.6551471, -0.01561, 5.56875, 0.0604858, 5.56875, -1.0007324, 5.56875, -0.1620483, 5.56875, 0.6412213, 5.56875, -0.1908397, 5.56875, -3.351145
0.6559412, -0.0151064, 5.5755, 0.0615234, 5.5755, -1.0022583, 5.5755, -0.1638794, 5.5755, 0.389313, 5.5755, -0.0687023, 5.5755, -3.1908398
0.6567353, -0.0169528, 5.58225, 0.0617065, 5.58225, -1.0020142, 5.58225, -0.1619263, 5.58225, 0.7328244, 5.58225, -0.0763359, 5.58225, -3.2290077
0.6575294, -0.0109102, 5.589, 0.0629272, 5.589, -1.0023193, 5.589, -0.1658936, 5.589, 0.6259542, 5.589, -0.0381679, 5.589, -3.1755726
0.6583235, -0.0119173, 5.59575, 0.0625, 5.59575, -1.0014648, 5.59575, -0.1685181, 5.59575, 0.6946565, 5.59575, 0.1832061, 5.59575, -3.1984732
0.6591176, -0.0124208, 5.6025, 0.0615234, 5.6025, -1.0046997, 5.6025, -0.1674805, 5.6025, 0.6870229, 5.6025, 0.259542, 5.6025, -3.1526718
0.6599118, -0.008896, 5.60925, 0.0615234, 5.60925, -1.0023193, 5.60925, -0.1665039, 5.60925, 0.480916, 5.60925, 0.1832061, 5.60925, -3.2366412
0.6607059, -0.0057069, 5.616, 0.0623779, 5.616, -1.0031128, 5.616, -0.1660156, 5.616, 0.5954198, 5.616, 0.3206107, 5.616, -3.2137403
0.6615, -0.0063783, 5.62275, 0.0599976, 5.62275, -1.0018311, 5.62275, -0.1704102, 5.62275, 0.6183206, 5.62275, 0.3206107, 5.62275, -3.2824428
0.6622941, -0.0075532, 5.6295, 0.0631714, 5.6295, -1.0056763, 5.6295, -0.1669312, 5.6295, 0.8931298, 5.6295, 0.5343512, 5.6295, -3.1832061
0.6630882, -0.0041962, 5.63625, 0.0628662, 5.63625, -1.003418, 5.63625, -0.1698608, 5.63625, 0.6564885, 5.63625, 0.6259542, 5.63625, -3.1221373
0.6638824, -0.0038605, 5.643, 0.0644531, 5.643, -1.0032959, 5.643, -0.1661377, 5.643, 0.6259542, 5.643, 0.7251908, 5.643, -3.2900763
0.6646765, 0.0025177, 5.64975, 0.0600586, 5.64975, -1.0018921, 5.64975, -0.1665649, 5.64975, 0.7099237, 5.64975, 0.6030535, 5.64975, -3.091603
0.6654706, 0.0025177, 5.6565, 0.0637817, 5.6565, -1.0040894, 5.6565, -0.1655884, 5.6565, 0.6946565, 5.6565, 0.4656489, 5.6565, -3.1679389
0.6662647, -0.0048676, 5.66325, 0.0614014, 5.66325, -1.0041504, 5.66325, -0.1628418, 5.66325, 0.7938932, 5.66325, 0.2290076, 5.66325, -3.2442749
0.6670588, -0.0045319, 5.67, 0.0622559, 5.67, -1.0031128, 5.67, -0.1651001, 5.67, 0.778626, 5.67, 0.4885496, 5.67, -3.091603
0.6678529, -0.0065461, 5.67675, 0.062439, 5.67675, -1.0054932, 5.67675, -0.1676025, 5.67675, 0.7862595, 5.67675, 0.389313, 5.67675, -3.0839694
0.6686471, -0.0072175, 5.6835, 0.0626831, 5.6835, -1.0078735, 5.6835, -0.1689453, 5.6835, 0.870229, 5.6835, 0.4503817, 5.6835, -3.3129771
0.6694412, -0.0149386, 5.69025, 0.0605469, 5.69025, -1.0042114, 5.69025, -0.1633301, 5.69025, 1.0229008, 5.69025, 0.221374, 5.69025, -3.0839694
0.6702353, -0.0204776, 5.697, 0.06073, 5.697, -1.0084839, 5.697, -0.1669312, 5.697, 1.1755725, 5.697, 0.2061069, 5.697, -3.1374047
0.6710294, -0.0251774, 5.70375, 0.0617065, 5.70375, -1.0040283, 5.70375, -0.1682129, 5.70375, 1.0687023, 5.70375, 0.2290076, 5.70375, -3.2977099
0.6718235, -0.0323949, 5.7105, 0.0601807, 5.7105, -1.0026245, 5.7105, -0.1659546, 5.7105, 1.038168, 5.7105, 0.4351145, 5.7105, -3
0.6726176, -0.033402, 5.71725, 0.0614014, 5.71725, -1.0015259, 5.71725, -0.1682739, 5.71725, 1.2290076, 5.71725, 0.5038168, 5.71725, -3.1450381
0.6734118, -0.0317235, 5.724, 0.0610352, 5.724, -1.0015259, 5.724, -0.1669312, 5.724, 1.2290076, 5.724, 0.4885496, 5.724, -2.9923663
0.6742059, -0.0288701, 5.73075, 0.0618896, 5.73075, -1.0016479, 5.73075, -0.1670532, 5.73075, 1.129771, 5.73075, 0.5419847, 5.73075, -3.0763359
0.675, -0.0290379, 5.7375, 0.0603027, 5.7375, -1.0029297, 5.7375, -0.1663818, 5.7375, 1.2671756, 5.7375, 0.7251908, 5.7375, -3.129771
0.6757941, -0.0276951, 5.74425, 0.0615845, 5.74425, -1.0023804, 5.74425, -0.1665039, 5.74425, 1.1755725, 5.74425, 0.4274809, 5.74425, -3.1145039
0.6765882, -0.0203098, 5.751, 0.0612183, 5.751, -1.0040894, 5.751, -0.1661987, 5.751, 1.129771, 5.751, 0.3358779, 5.751, -3.1679389
0.6773824, -0.0191348, 5.75775, 0.0582886, 5.75775, -1.001709, 5.75775, -0.1622925, 5.75775, 1.1068702, 5.75775, 0.2137405, 5.75775, -3.2061069
0.6781765, -0.0149386, 5.7645, 0.0608521, 5.7645, -1.0007324, 5.7645, -0.1602173, 5.7645, 1.1068702, 5.7645, 0.1145038, 5.7645, -3.2061069
0.6789706, -0.012253, 5.77125, 0.0613403, 5.77125, -1.0020752, 5.77125, -0.164856, 5.77125, 1.038168, 5.77125, 0.2442748, 5.77125, -3.1450381
0.6797647, -0.0125887, 5.778, 0.0637817, 5.778, -1.0037842, 5.778, -0.1658936, 5.778, 1.4656489, 5.778, 0.4427481, 5.778, -3.1450381
