Application:, Trigno Discover (1.7.0)
Date/Time:, 2026/9/9 上午 10:05:10
Collection Length (seconds):, 39.8925
Avanti Sensor 11 (69574)
sensor mode: 50
EMG 1 Time Series (s), EMG 1 (mV), ACC X Time Series (s), ACC X (G), ACC Y Time Series (s), ACC Y (G), ACC Z Time Series (s), ACC Z (G), GYRO X Time Series (s), GYRO X (deg/s), GYRO Y Time Series (s), GYRO Y (deg/s), GYRO Z Time Series (s), GYRO Z (deg/s)
, 1259.2593 Hz, , 148.1481 Hz, , 148.1481 Hz, , 148.1481 Hz, , 148.1481 Hz, , 148.1481 Hz, , 148.1481 Hz
0, -0.0097353, 0, -0.039917, 0, -1.0039673, 0, -0.1043091, 0, 1, 0, 0.778626, 0, -3.4122138
0.0007941, -0.0045319, 0.00675, -0.0395508, 0.00675, -1.0039062, 0.00675, -0.1048584, 0.00675, 1.2442749, 0.00675, 0.7251908, 0.00675, -3.389313
0.0015882, -0.0035248, 0.0135, -0.0418701, 0.0135, -1.0063477, 0.0135, -0.1017456, 0.0135, 1.0763359, 0.0135, 0.9465649, 0.0135, -3.351145
0.0023824, -0.0035248, 0.02025, -0.0409546, 0.02025, -1.006958, 0.02025, -0.1052246, 0.02025, 1.0610687, 0.02025, 1.0305344, 0.02025, -3.480916
0.0031765, -0.0028534, 0.027, -0.0423584, 0.027, -1.0056152, 0.027, -0.102478, 0.027, 0.9847328, 0.027, 0.9694657, 0.027, -3.4045801
0.0039706, -0.0015106, 0.03375, -0.0442505, 0.03375, -1.0047607, 0.03375, -0.1005249, 0.03375, 1.0992366, 0.03375, 0.8778626, 0.03375, -3.3969467
0.0047647, 0.0001678, 0.0405, -0.0424805, 0.0405, -1.0062866, 0.0405, -0.1015625, 0.0405, 1.2671756, 0.0405, 0.8396947, 0.0405, -3.4045801
0.0055588, -0.0041962, 0.04725, -0.0378418, 0.04725, -1.0059814, 0.04725, -0.1029053, 0.04725, 1.1450381, 0.04725, 0.9389313, 0.04725, -3.4427481
0.0063529, -0.0068818, 0.054, -0.0388184, 0.054, -1.0066528, 0.054, -0.0987549, 0.054, 1.0610687, 0.054, 1.1450381, 0.054, -3.3740458
0.0071471, -0.0105745, 0.06075, -0.0385742, 0.06075, -1.0092773, 0.06075, -0.0999146, 0.06075, 1.1603054, 0.06075, 1.4122137, 0.06075, -3.5572519
0.0079412, -0.0105745, 0.0675, -0.0415649, 0.0675, -1.0109863, 0.0675, -0.1018066, 0.0675, 1.1755725, 0.0675, 1.4427481, 0.0675, -3.3816793
0.0087353, -0.0095674, 0.07425, -0.0405273, 0.07425, -1.0112915, 0.07425, -0.1015625, 0.07425, 1.1984733, 0.07425, 1.2977099, 0.07425, -3.4961832
0.0095294, -0.0105745, 0.081, -0.0385132, 0.081, -1.0083618, 0.081, -0.0999756, 0.081, 1.2519084, 0.081, 1.2824427, 0.081, -3.3435113
0.0103235, -0.0125887, 0.08775, -0.0406494, 0.08775, -1.006958, 0.08775, -0.1038208, 0.08775, 1.0458015, 0.08775, 1.2366412, 0.08775, -3.2977099
0.0111176, -0.0129244, 0.0945, -0.0410156, 0.0945, -1.0076294, 0.0945, -0.1012573, 0.0945, 1.0687023, 0.0945, 1.2061069, 0.0945, -3.2900763
0.0119118, -0.012253, 0.10125, -0.0409546, 0.10125, -1.0100708, 0.10125, -0.1001587, 0.10125, 1.3282443, 0.10125, 1.2366412, 0.10125, -3.1908398
0.0127059, -0.0139315, 0.108, -0.0419312, 0.108, -1.0054321, 0.108, -0.1004028, 0.108, 1.2824427, 0.108, 1.038168, 0.108, -3.2671757
0.0135, -0.0117494, 0.11475, -0.0444946, 0.11475, -1.0065918, 0.11475, -0.100708, 0.11475, 1.2061069, 0.11475, 0.8320611, 0.11475, -3.3282442
0.0142941, -0.0068818, 0.1215, -0.0418091, 0.1215, -1.0093994, 0.1215, -0.1031494, 0.1215, 1.3358779, 0.1215, 0.7328244, 0.1215, -3.3435113
0.0150882, -0.0041962, 0.12825, -0.0444336, 0.12825, -1.0048828, 0.12825, -0.1027222, 0.12825, 1.2519084, 0.12825, 0.7328244, 0.12825, -3.221374
0.0158824, -0.0041962, 0.135, -0.0437012, 0.135, -1.0065918, 0.135, -0.1039429, 0.135, 1.4732825, 0.135, 0.7022901, 0.135, -3.3740458
0.0166765, -0.0105745, 0.14175, -0.0418091, 0.14175, -1.0061646, 0.14175, -0.1033325, 0.14175, 1.4503816, 0.14175, 0.8549618, 0.14175, -3.4274809
0.0174706, -0.0137636, 0.1485, -0.0428467, 0.1485, -1.0054321, 0.1485, -0.1044922, 0.1485, 1.2671756, 0.1485, 0.908397, 0.1485, -3.3129771
0.0182647, -0.0152743, 0.15525, -0.0419922, 0.15525, -1.0058594, 0.15525, -0.1038818, 0.15525, 1.4045801, 0.15525, 0.9847328, 0.15525, -3.2442749
0.0190588, -0.0162814, 0.162, -0.0425415, 0.162, -1.0076294, 0.162, -0.1055908, 0.162, 1.3816794, 0.162, 0.9465649, 0.162, -3.2977099
0.0198529, -0.0169528, 0.16875, -0.0428467, 0.16875, -1.0041504, 0.16875, -0.1030884, 0.16875, 1.3664122, 0.16875, 0.8473282, 0.16875, -3.2900763
0.0206471, -0.018967, 0.1755, -0.0426636, 0.1755, -1.0028076, 0.1755, -0.1044922, 0.1755, 1.3816794, 0.1755, 0.8396947, 0.1755, -3.2748091
0.0214412, -0.0219883, 0.18225, -0.0415649, 0.18225, -1.0042725, 0.18225, -0.1040649, 0.18225, 1.3282443, 0.18225, 0.8167939, 0.18225, -3.2442749
0.0222353, -0.0243381, 0.189, -0.043335, 0.189, -1.003479, 0.189, -0.1030884, 0.189, 1.3282443, 0.189, 0.8778626, 0.189, -3.2137403
0.0230294, -0.0226596, 0.19575, -0.0421753, 0.19575, -1.0059204, 0.19575, -0.1043091, 0.19575, 1.3282443, 0.19575, 0.6870229, 0.19575, -3.2671757
0.0238235, -0.0198062, 0.2025, -0.0426636, 0.2025, -1.0060425, 0.2025, -0.1043701, 0.2025, 1.4045801, 0.2025, 0.6183206, 0.2025, -3.2748091
0.0246176, -0.0216526, 0.20925, -0.0418091, 0.20925, -1.006958, 0.20925, -0.1031494, 0.20925, 1.2824427, 0.20925, 0.5801527, 0.20925, -3.4122138
0.0254118, -0.018967, 0.216, -0.0414429, 0.216, -1.0084229, 0.216, -0.1040649, 0.216, 1.519084, 0.216, 0.5419847, 0.216, -3.3282442
0.0262059, -0.0203098, 0.22275, -0.0407715, 0.22275, -1.0087891, 0.22275, -0.1046143, 0.22275, 1.3816794, 0.22275, 0.6717557, 0.22275, -3.4045801
0.027, -0.0181277, 0.2295, -0.0435181, 0.2295, -1.0112915, 0.2295, -0.1017456, 0.2295, 1.5419847, 0.2295, 0.6946565, 0.2295, -3.2671757
0.0277941, -0.01561, 0.23625, -0.0461426, 0.23625, -1.0048828, 0.23625, -0.0979614, 0.23625, 1.7175573, 0.23625, 0.7709923, 0.23625, -3.1908398
0.0285882, -0.017792, 0.243, -0.0444336, 0.243, -1.0079346, 0.243, -0.1021729, 0.243, 1.5572519, 0.243, 0.8167939, 0.243, -3.221374
0.0293824, -0.0167849, 0.24975, -0.0444336, 0.24975, -1.0084229, 0.24975, -0.0982056, 0.24975, 1.6564885, 0.24975, 0.7633588, 0.24975, -3.2748091
0.0301765, -0.0129244, 0.2565, -0.0420532, 0.2565, -1.0085449, 0.2565, -0.100769, 0.2565, 1.7099236, 0.2565, 0.8396947, 0.2565, -3.3587787
0.0309706, -0.0129244, 0.26325, -0.0393066, 0.26325, -1.0064697, 0.26325, -0.1030273, 0.26325, 1.6946565, 0.26325, 0.778626, 0.26325, -3.3358779
0.0317647, -0.0124208, 0.27, -0.0404663, 0.27, -1.0042114, 0.27, -0.0975952, 0.27, 1.6030535, 0.27, 0.480916, 0.27, -3.3816793
0.0325588, -0.0146029, 0.27675, -0.0404663, 0.27675, -1.0065308, 0.27675, -0.1013184, 0.27675, 1.6870229, 0.27675, 0.4656489, 0.27675, -3.4274809
0.0333529, -0.0152743, 0.2835, -0.0397949, 0.2835, -1.0078735, 0.2835, -0.1008911, 0.2835, 1.6183206, 0.2835, 0.2061069, 0.2835, -3.3740458
0.0341471, -0.0166171, 0.29025, -0.0411377, 0.29025, -1.0057983, 0.29025, -0.0961914, 0.29025, 1.5496184, 0.29025, 0.1221374, 0.29025, -3.4351146
0.0349412, -0.0162814, 0.297, -0.0421753, 0.297, -1.008667, 0.297, -0.1002808, 0.297, 1.6183206, 0.297, 0.259542, 0.297, -3.3740458
0.0357353, -0.0151064, 0.30375, -0.0413208, 0.30375, -1.008667, 0.30375, -0.1026001, 0.30375, 1.5877863, 0.30375, 0.4656489, 0.30375, -3.4427481
0.0365294, -0.0146029, 0.3105, -0.0429077, 0.3105, -1.0061035, 0.3105, -0.1022949, 0.3105, 1.6412214, 0.3105, 0.2366412, 0.3105, -3.2977099
0.0373235, -0.0162814, 0.31725, -0.0449829, 0.31725, -1.0079956, 0.31725, -0.1016846, 0.31725, 1.4503816, 0.31725, 0.1832061, 0.31725, -3.4274809
0.0381176, -0.0191348, 0.324, -0.0442505, 0.324, -1.0081787, 0.324, -0.1027832, 0.324, 1.5877863, 0.324, 0.221374, 0.324, -3.5801528
0.0389118, -0.0203098, 0.33075, -0.0420532, 0.33075, -1.0074463, 0.33075, -0.1010742, 0.33075, 1.480916, 0.33075, 0.4351145, 0.33075, -3.4656489
0.0397059, -0.0223239, 0.3375, -0.0388794, 0.3375, -1.0064697, 0.3375, -0.102478, 0.3375, 1.6030535, 0.3375, 0.2977099, 0.3375, -3.4274809
0.0405, -0.0213169, 0.34425, -0.0375366, 0.34425, -1.0078125, 0.34425, -0.0983276, 0.34425, 1.5648855, 0.34425, 0.480916, 0.34425, -3.4732823
0.0412941, -0.0209812, 0.351, -0.0386963, 0.351, -1.0061646, 0.351, -0.0983887, 0.351, 1.5877863, 0.351, 0.6412213, 0.351, -3.4427481
0.0420882, -0.0219883, 0.35775, -0.0394287, 0.35775, -1.005249, 0.35775, -0.0973511, 0.35775, 1.6030535, 0.35775, 0.7938932, 0.35775, -3.3587787
0.0428824, -0.021149, 0.3645, -0.0438232, 0.3645, -1.0049438, 0.3645, -0.0983276, 0.3645, 1.5572519, 0.3645, 0.7709923, 0.3645, -3.389313
0.0436765, -0.0196384, 0.37125, -0.0421753, 0.37125, -1.0067139, 0.37125, -0.0999146, 0.37125, 1.7099236, 0.37125, 0.8015267, 0.37125, -3.4045801
0.0444706, -0.0176242, 0.378, -0.0444946, 0.378, -1.0065308, 0.378, -0.0996094, 0.378, 1.5572519, 0.378, 0.6412213, 0.378, -3.4503818
0.0452647, -0.0162814, 0.38475, -0.0431519, 0.38475, -1.0064087, 0.38475, -0.0975342, 0.38475, 1.6412214, 0.38475, 0.5343512, 0.38475, -3.4427481
0.0460588, -0.0162814, 0.3915, -0.0420532, 0.3915, -1.0080566, 0.3915, -0.0968018, 0.3915, 1.5648855, 0.3915, 0.4580153, 0.3915, -3.4045801
0.0468529, -0.0194705, 0.39825, -0.0372314, 0.39825, -1.0075684, 0.39825, -0.0952759, 0.39825, 1.610687, 0.39825, 0.4885496, 0.39825, -3.2900763
0.0476471, -0.017792, 0.405, -0.0385742, 0.405, -1.0059204, 0.405, -0.0965576, 0.405, 1.5725191, 0.405, 0.6870229, 0.405, -3.3816793
0.0484412, -0.01561, 0.41175, -0.0372314, 0.41175, -1.0043335, 0.41175, -0.0965576, 0.41175, 1.6259542, 0.41175, 0.9007633, 0.41175, -3.3664122
0.0492353, -0.0149386, 0.4185, -0.039856, 0.4185, -1.0038452, 0.4185, -0.0952759, 0.4185, 1.648855, 0.4185, 1.0076336, 0.4185, -3.2824428
0.0500294, -0.0139315, 0.42525, -0.0424194, 0.42525, -1.0015259, 0.42525, -0.098877, 0.42525, 1.480916, 0.42525, 1.0992366, 0.42525, -3.221374
0.0508235, -0.0102388, 0.432, -0.039978, 0.432, -1.0055542, 0.432, -0.0977173, 0.432, 1.5496184, 0.432, 0.8931298, 0.432, -3.2061069
0.0516176, -0.0099031, 0.43875, -0.0413818, 0.43875, -1.0072021, 0.43875, -0.0955811, 0.43875, 1.4427481, 0.43875, 0.6946565, 0.43875, -3.3435113
0.0524118, -0.0072175, 0.4455, -0.041687, 0.4455, -1.005249, 0.4455, -0.0958862, 0.4455, 1.5343511, 0.4455, 0.5801527, 0.4455, -3.4045801
0.0532059, -0.0068818, 0.45225, -0.0391846, 0.45225, -1.0062866, 0.45225, -0.0970459, 0.45225, 1.2977099, 0.45225, 0.6946565, 0.45225, -3.4580152
0.054, -0.0078889, 0.459, -0.0380249, 0.459, -1.0061646, 0.459, -0.0963745, 0.459, 1.2977099, 0.459, 0.6335878, 0.459, -3.4122138
0.0547941, -0.0082246, 0.46575, -0.0374146, 0.46575, -1.0079346, 0.46575, -0.0969849, 0.46575, 1.2519084, 0.46575, 0.8549618, 0.46575, -3.4427481
0.0555882, -0.0104067, 0.4725, -0.0368042, 0.4725, -1.0060425, 0.4725, -0.0949707, 0.4725, 1.1755725, 0.4725, 0.7099237, 0.4725, -3.4656489
0.0563824, -0.008896, 0.47925, -0.0412598, 0.47925, -1.0061646, 0.47925, -0.0974121, 0.47925, 1.129771, 0.47925, 0.6564885, 0.47925, -3.5038168
0.0571765, -0.0072175, 0.486, -0.0420532, 0.486, -1.0022583, 0.486, -0.097168, 0.486, 1.1450381, 0.486, 0.8167939, 0.486, -3.4961832
0.0579706, -0.0119173, 0.49275, -0.043335, 0.49275, -1.0071411, 0.49275, -0.0947876, 0.49275, 0.9923664, 0.49275, 0.9465649, 0.49275, -3.3435113
0.0587647, -0.0129244, 0.4995, -0.0407104, 0.4995, -1.0062866, 0.4995, -0.0975342, 0.4995, 1.0839695, 0.4995, 0.9160305, 0.4995, -3.4198472
0.0595588, -0.0109102, 0.50625, -0.0414429, 0.50625, -1.0075684, 0.50625, -0.0950928, 0.50625, 1.0305344, 0.50625, 0.8778626, 0.50625, -3.2442749
0.0603529, -0.0115816, 0.513, -0.0401611, 0.513, -1.0043945, 0.513, -0.0977783, 0.513, 0.9770992, 0.513, 0.8549618, 0.513, -3.4427481
0.0611471, -0.0132601, 0.51975, -0.0401001, 0.51975, -1.0073853, 0.51975, -0.1000977, 0.51975, 0.9389313, 0.51975, 0.8167939, 0.51975, -3.3282442
0.0619412, -0.0115816, 0.5265, -0.0420532, 0.5265, -1.0063477, 0.5265, -0.0982666, 0.5265, 1.0534351, 0.5265, 0.8931298, 0.5265, -3.2519083
0.0627353, -0.0102388, 0.53325, -0.0427856, 0.53325, -1.0062256, 0.53325, -0.0978394, 0.53325, 1.091603, 0.53325, 0.8854962, 0.53325, -3.5343511
0.0635294, -0.0068818, 0.54, -0.0418091, 0.54, -1.0054321, 0.54, -0.0997314, 0.54, 1.0458015, 0.54, 0.8931298, 0.54, -3.4732823
0.0643235, -0.0068818, 0.54675, -0.0422974, 0.54675, -1.0079956, 0.54675, -0.0988159, 0.54675, 0.8854962, 0.54675, 0.9847328, 0.54675, -3.3969467
0.0651176, -0.0115816, 0.5535, -0.0408936, 0.5535, -1.0056152, 0.5535, -0.0987549, 0.5535, 1, 0.5535, 0.8167939, 0.5535, -3.4198472
0.0659118, -0.0114137, 0.56025, -0.0402222, 0.56025, -1.0053101, 0.56025, -0.1010742, 0.56025, 1.0839695, 0.56025, 0.7862595, 0.56025, -3.3435113
0.0667059, -0.0137636, 0.567, -0.0428467, 0.567, -1.0065918, 0.567, -0.0993652, 0.567, 1.2824427, 0.567, 0.7251908, 0.567, -3.5725191
0.0675, -0.0166171, 0.57375, -0.0397949, 0.57375, -1.0059814, 0.57375, -0.0963135, 0.57375, 1.1145039, 0.57375, 0.6641222, 0.57375, -3.5954199
0.0682941, -0.0162814, 0.5805, -0.0377197, 0.5805, -1.0056152, 0.5805, -0.0946045, 0.5805, 1.129771, 0.5805, 0.5877863, 0.5805, -3.4122138
0.0690882, -0.0162814, 0.58725, -0.0380249, 0.58725, -1.006958, 0.58725, -0.098999, 0.58725, 1.1068702, 0.58725, 0.7175573, 0.58725, -3.3740458
0.0698824, -0.0172885, 0.594, -0.0404053, 0.594, -1.0076294, 0.594, -0.0949707, 0.594, 1.1145039, 0.594, 0.610687, 0.594, -3.5038168
0.0706765, -0.0203098, 0.60075, -0.0385132, 0.60075, -1.008606, 0.60075, -0.0971069, 0.60075, 1.038168, 0.60075, 0.6946565, 0.60075, -3.519084
0.0714706, -0.0209812, 0.6075, -0.0368652, 0.6075, -1.0059204, 0.6075, -0.0985107, 0.6075, 1.0305344, 0.6075, 0.6870229, 0.6075, -3.5496182
0.0722647, -0.0171206, 0.61425, -0.0390625, 0.61425, -1.0060425, 0.61425, -0.0960693, 0.61425, 0.7862595, 0.61425, 0.870229, 0.61425, -3.5954199
0.0730588, -0.0146029, 0.621, -0.0420532, 0.621, -1.0066528, 0.621, -0.0943604, 0.621, 0.8396947, 0.621, 1.0763359, 0.621, -3.5572519
0.0738529, -0.0149386, 0.62775, -0.0407104, 0.62775, -1.0079346, 0.62775, -0.097168, 0.62775, 1.0229008, 0.62775, 0.778626, 0.62775, -3.4274809
0.0746471, -0.014435, 0.6345, -0.045166, 0.6345, -1.0092163, 0.6345, -0.0973511, 0.6345, 0.8473282, 0.6345, 0.9389313, 0.6345, -3.4961832
0.0754412, -0.0157778, 0.64125, -0.0423584, 0.64125, -1.0064087, 0.64125, -0.0994263, 0.64125, 0.8778626, 0.64125, 0.8549618, 0.64125, -3.3435113
0.0762353, -0.0139315, 0.648, -0.0415649, 0.648, -1.0079346, 0.648, -0.0980835, 0.648, 1.0534351, 0.648, 0.8778626, 0.648, -3.3816793
0.0770294, -0.0142672, 0.65475, -0.0427246, 0.65475, -1.0078125, 0.65475, -0.0980225, 0.65475, 1.0076336, 0.65475, 0.8931298, 0.65475, -3.4045801
0.0778235, -0.0164492, 0.6615, -0.0408325, 0.6615, -1.0049438, 0.6615, -0.0993042, 0.6615, 1, 0.6615, 0.9160305, 0.6615, -3.2977099
0.0786176, -0.0209812, 0.66825, -0.0415649, 0.66825, -1.0074463, 0.66825, -0.0991821, 0.66825, 0.8396947, 0.66825, 1.0458015, 0.66825, -3.3435113
0.0794118, -0.0226596, 0.675, -0.0385132, 0.675, -1.0090942, 0.675, -0.098938, 0.675, 0.961832, 0.675, 0.9770992, 0.675, -3.4503818
0.0802059, -0.0206455, 0.68175, -0.0408936, 0.68175, -1.008606, 0.68175, -0.0969238, 0.68175, 0.8931298, 0.68175, 0.778626, 0.68175, -3.4732823
0.081, -0.0186313, 0.6885, -0.036499, 0.6885, -1.0083008, 0.6885, -0.0963745, 0.6885, 0.8473282, 0.6885, 0.8015267, 0.6885, -3.6564887
0.0817941, -0.0193027, 0.69525, -0.0390015, 0.69525, -1.0073242, 0.69525, -0.0970459, 0.69525, 0.8091603, 0.69525, 0.7709923, 0.69525, -3.3969467
0.0825882, -0.0196384, 0.702, -0.0408936, 0.702, -1.0061035, 0.702, -0.0958862, 0.702, 0.7633588, 0.702, 0.8396947, 0.702, -3.389313
0.0833824, -0.0169528, 0.70875, -0.0387573, 0.70875, -1.0078735, 0.70875, -0.0993042, 0.70875, 0.8625954, 0.70875, 0.8778626, 0.70875, -3.259542
0.0841765, -0.0142672, 0.7155, -0.0391846, 0.7155, -1.0071411, 0.7155, -0.0991821, 0.7155, 0.9160305, 0.7155, 1.0305344, 0.7155, -3.3435113
0.0849706, -0.0194705, 0.72225, -0.0394897, 0.72225, -1.0072021, 0.72225, -0.0955811, 0.72225, 0.7938932, 0.72225, 0.961832, 0.72225, -3.4198472
0.0857647, -0.0176242, 0.729, -0.0414429, 0.729, -1.0036011, 0.729, -0.0968018, 0.729, 0.8091603, 0.729, 1.0763359, 0.729, -3.4656489
0.0865588, -0.0151064, 0.73575, -0.0413208, 0.73575, -1.006897, 0.73575, -0.0964966, 0.73575, 0.7480916, 0.73575, 1.1221374, 0.73575, -3.4274809
0.0873529, -0.0125887, 0.7425, -0.0419312, 0.7425, -1.008667, 0.7425, -0.0981445, 0.7425, 0.9389313, 0.7425, 0.9389313, 0.7425, -3.3435113
0.0881471, -0.0109102, 0.74925, -0.0409546, 0.74925, -1.0092163, 0.74925, -0.0979004, 0.74925, 0.6030535, 0.74925, 1.0610687, 0.74925, -3.4351146
0.0889412, -0.0115816, 0.756, -0.0413818, 0.756, -1.0079346, 0.756, -0.0960083, 0.756, 0.8244275, 0.756, 1.3053435, 0.756, -3.5572519
0.0897353, -0.0129244, 0.76275, -0.0404663, 0.76275, -1.0107422, 0.76275, -0.0985107, 0.76275, 0.9236641, 0.76275, 1.2519084, 0.76275, -3.5343511
0.0905294, -0.0125887, 0.7695, -0.0419312, 0.7695, -1.0072021, 0.7695, -0.0994873, 0.7695, 1, 0.7695, 1.3435115, 0.7695, -3.4885497
0.0913235, -0.0129244, 0.77625, -0.0410156, 0.77625, -1.0075684, 0.77625, -0.1004639, 0.77625, 1.1068702, 0.77625, 1.3587786, 0.77625, -3.4732823
0.0921176, -0.0149386, 0.783, -0.0397339, 0.783, -1.0060425, 0.783, -0.0997314, 0.783, 1.1603054, 0.783, 1.3282443, 0.783, -3.4122138
0.0929118, -0.0166171, 0.78975, -0.0401001, 0.78975, -1.0073242, 0.78975, -0.098877, 0.78975, 1, 0.78975, 1.0076336, 0.78975, -3.4045801
0.0937059, -0.0157778, 0.7965, -0.0396118, 0.7965, -1.0076294, 0.7965, -0.100708, 0.7965, 0.8320611, 0.7965, 0.8091603, 0.7965, -3.4503818
0.0945, -0.0169528, 0.80325, -0.0403442, 0.80325, -1.0070801, 0.80325, -0.0993042, 0.80325, 0.8625954, 0.80325, 0.8320611, 0.80325, -3.4885497
0.0952941, -0.0149386, 0.81, -0.0430298, 0.81, -1.0038452, 0.81, -0.1016846, 0.81, 0.8320611, 0.81, 0.8244275, 0.81, -3.3282442
0.0960882, -0.0149386, 0.81675, -0.0411377, 0.81675, -1.0090332, 0.81675, -0.1013794, 0.81675, 0.7862595, 0.81675, 0.7251908, 0.81675, -3.4045801
0.0968824, -0.0127565, 0.8235, -0.0428467, 0.8235, -1.0087891, 0.8235, -0.1001587, 0.8235, 0.6030535, 0.8235, 0.5877863, 0.8235, -3.4580152
0.0976765, -0.0109102, 0.83025, -0.0386963, 0.83025, -1.006958, 0.83025, -0.0974121, 0.83025, 0.9236641, 0.83025, 0.519084, 0.83025, -3.5343511
0.0984706, -0.0130922, 0.837, -0.0358276, 0.837, -1.0055542, 0.837, -0.0977783, 0.837, 0.9541985, 0.837, 0.4198473, 0.837, -3.4045801
0.0992647, -0.0109102, 0.84375, -0.0345459, 0.84375, -1.0074463, 0.84375, -0.1004639, 0.84375, 0.6870229, 0.84375, 0.5877863, 0.84375, -3.351145
0.1000588, -0.012253, 0.8505, -0.0349121, 0.8505, -1.0040894, 0.8505, -0.0986938, 0.8505, 0.778626, 0.8505, 0.7862595, 0.8505, -3.3816793
0.1008529, -0.0142672, 0.85725, -0.0385132, 0.85725, -1.0042114, 0.85725, -0.0993652, 0.85725, 0.7557252, 0.85725, 1.0992366, 0.85725, -3.389313
0.1016471, -0.0099031, 0.864, -0.0365601, 0.864, -1.0050049, 0.864, -0.0983887, 0.864, 0.9007633, 0.864, 1.2671756, 0.864, -3.4427481
0.1024412, -0.008896, 0.87075, -0.0375977, 0.87075, -1.0073853, 0.87075, -0.0983887, 0.87075, 0.778626, 0.87075, 1.4961832, 0.87075, -3.1984732
0.1032353, -0.0085603, 0.8775, -0.0369263, 0.8775, -1.0050659, 0.8775, -0.1011963, 0.8775, 0.9236641, 0.8775, 1.7251909, 0.8775, -3.3282442
0.1040294, -0.0092317, 0.88425, -0.0386353, 0.88425, -1.0007324, 0.88425, -0.1008911, 0.88425, 0.8244275, 0.88425, 1.7251909, 0.88425, -3.3282442
0.1048235, -0.0062104, 0.891, -0.0404663, 0.891, -1.0050049, 0.891, -0.0974731, 0.891, 0.740458, 0.891, 1.6259542, 0.891, -3.3053436
0.1056176, -0.0072175, 0.89775, -0.0413818, 0.89775, -1.0084839, 0.89775, -0.0991211, 0.89775, 0.7328244, 0.89775, 1.5648855, 0.89775, -3.351145
0.1064118, -0.0095674, 0.9045, -0.0425415, 0.9045, -1.0065918, 0.9045, -0.100708, 0.9045, 0.9236641, 0.9045, 1.2977099, 0.9045, -3.3129771
0.1072059, -0.0097353, 0.91125, -0.041626, 0.91125, -1.0091553, 0.91125, -0.1011353, 0.91125, 0.778626, 0.91125, 0.9389313, 0.91125, -3.519084
0.108, -0.0135958, 0.918, -0.0401001, 0.918, -1.0125732, 0.918, -0.1013794, 0.918, 0.9312977, 0.918, 0.8854962, 0.918, -3.2061069
0.1087941, -0.0171206, 0.92475, -0.0392456, 0.92475, -1.0095215, 0.92475, -0.100647, 0.92475, 0.7557252, 0.92475, 0.908397, 0.92475, -3.2137403
0.1095882, -0.0196384, 0.9315, -0.0375977, 0.9315, -1.0101929, 0.9315, -0.1005859, 0.9315, 0.9694657, 0.9315, 1, 0.9315, -3.4122138
0.1103824, -0.0229953, 0.93825, -0.0400391, 0.93825, -1.0076294, 0.93825, -0.0985718, 0.93825, 0.9770992, 0.93825, 0.8396947, 0.93825, -3.3740458
0.1111765, -0.0231632, 0.945, -0.0357056, 0.945, -1.0057373, 0.945, -0.0986938, 0.945, 0.9389313, 0.945, 0.8854962, 0.945, -3.3282442
0.1119706, -0.0231632, 0.95175, -0.0333252, 0.95175, -1.0048218, 0.95175, -0.097229, 0.95175, 0.7938932, 0.95175, 1.1374046, 0.95175, -3.2900763
0.1127647, -0.0270237, 0.9585, -0.0368042, 0.9585, -1.0079346, 0.9585, -0.09729, 0.9585, 0.6793893, 0.9585, 1.2366412, 0.9585, -3.3282442
0.1135588, -0.0260166, 0.96525, -0.0405273, 0.96525, -1.0062866, 0.96525, -0.0976562, 0.96525, 0.6564885, 0.96525, 1.3740458, 0.96525, -3.3206108
0.1143529, -0.0263523, 0.972, -0.0411377, 0.972, -1.0092773, 0.972, -0.0969238, 0.972, 0.7709923, 0.972, 1.2290076, 0.972, -3.2900763
0.1151471, -0.0248417, 0.97875, -0.0449219, 0.97875, -1.0043945, 0.97875, -0.0982666, 0.97875, 0.7175573, 0.97875, 0.8854962, 0.97875, -3.2900763
0.1159412, -0.0223239, 0.9855, -0.0369263, 0.9855, -1.0050659, 0.9855, -0.0996704, 0.9855, 0.519084, 0.9855, 0.7633588, 0.9855, -3.2061069
0.1167353, -0.0208133, 0.99225, -0.0350952, 0.99225, -1.0043945, 0.99225, -0.0990601, 0.99225, 0.7099237, 0.99225, 0.6183206, 0.99225, -3.3282442
0.1175294, -0.0196384, 0.999, -0.0325928, 0.999, -1.0029297, 0.999, -0.0993042, 0.999, 0.4503817, 0.999, 0.8091603, 0.999, -3.221374
0.1183235, -0.0147707, 1.00575, -0.0354614, 1.00575, -1.0036011, 1.00575, -0.1018066, 1.00575, 0.351145, 1.00575, 1.1984733, 1.00575, -3.1908398
0.1191176, -0.014435, 1.0125, -0.0391235, 1.0125, -1.0059814, 1.0125, -0.1030884, 1.0125, 0.6641222, 1.0125, 1.1374046, 1.0125, -3.1832061
0.1199118, -0.0112459, 1.01925, -0.0405273, 1.01925, -1.0058594, 1.01925, -0.1016235, 1.01925, 0.6412213, 1.01925, 1.1984733, 1.01925, -3.3282442
0.1207059, -0.0112459, 1.026, -0.0404663, 1.026, -1.0028687, 1.026, -0.1008911, 1.026, 0.6717557, 1.026, 1.038168, 1.026, -3.3969467
0.1215, -0.0077211, 1.03275, -0.0407715, 1.03275, -1.0075684, 1.03275, -0.1011353, 1.03275, 0.6870229, 1.03275, 0.9312977, 1.03275, -3.0763359
0.1222941, -0.0058747, 1.0395, -0.0410767, 1.0395, -1.0048218, 1.0395, -0.0981445, 1.0395, 0.6030535, 1.0395, 1.038168, 1.0395, -3.1832061
0.1230882, -0.0085603, 1.04625, -0.0370483, 1.04625, -1.0083618, 1.04625, -0.1021118, 1.04625, 0.519084, 1.04625, 1.1145039, 1.04625, -3.0229008
0.1238824, -0.0085603, 1.053, -0.0377808, 1.053, -1.0070801, 1.053, -0.098877, 1.053, 0.740458, 1.053, 1.129771, 1.053, -3.2366412
0.1246765, -0.0099031, 1.05975, -0.0403442, 1.05975, -1.0074463, 1.05975, -0.0997314, 1.05975, 0.5572519, 1.05975, 1.1832061, 1.05975, -3.2977099
0.1254706, -0.008896, 1.0665, -0.0389404, 1.0665, -1.0071411, 1.0665, -0.1029053, 1.0665, 0.5801527, 1.0665, 1.1450381, 1.0665, -3.4045801
0.1262647, -0.0078889, 1.07325, -0.0419312, 1.07325, -1.0064697, 1.07325, -0.104126, 1.07325, 0.648855, 1.07325, 1.0229008, 1.07325, -3.3282442
0.1270588, -0.0105745, 1.08, -0.0425415, 1.08, -1.0065918, 1.08, -0.098877, 1.08, 0.7328244, 1.08, 1.0305344, 1.08, -3.2900763
0.1278529, -0.0107424, 1.08675, -0.0421143, 1.08675, -1.0064697, 1.08675, -0.1030884, 1.08675, 0.648855, 1.08675, 0.8167939, 1.08675, -3.221374
0.1286471, -0.0102388, 1.0935, -0.0414429, 1.0935, -1.0064697, 1.0935, -0.1047974, 1.0935, 0.7022901, 1.0935, 0.6412213, 1.0935, -3.3129771
0.1294412, -0.0135958, 1.10025, -0.0407715, 1.10025, -1.0089111, 1.10025, -0.1036987, 1.10025, 0.9236641, 1.10025, 0.6030535, 1.10025, -3.3740458
0.1302353, -0.012253, 1.107, -0.0404663, 1.107, -1.0068359, 1.107, -0.1029053, 1.107, 0.8854962, 1.107, 0.4503817, 1.107, -3.2519083
0.1310294, -0.0152743, 1.11375, -0.0393066, 1.11375, -1.0061646, 1.11375, -0.1069336, 1.11375, 0.9312977, 1.11375, 0.4274809, 1.11375, -3.3129771
0.1318235, -0.01561, 1.1205, -0.0419312, 1.1205, -1.005188, 1.1205, -0.1044922, 1.1205, 0.9847328, 1.1205, 0.2824427, 1.1205, -3.2900763
0.1326176, -0.0151064, 1.12725, -0.0413818, 1.12725, -1.0079346, 1.12725, -0.1045532, 1.12725, 1.0152671, 1.12725, 0.0992366, 1.12725, -3.3587787
0.1334118, -0.0159457, 1.134, -0.0379028, 1.134, -1.0054932, 1.134, -0.1031494, 1.134, 1.1603054, 1.134, -0.0839695, 1.134, -3.2748091
0.1342059, -0.0139315, 1.14075, -0.0380249, 1.14075, -1.0066528, 1.14075, -0.104248, 1.14075, 0.9389313, 1.14075, -0.1984733, 1.14075, -3.4045801
0.135, -0.0147707, 1.1475, -0.0371094, 1.1475, -1.0065308, 1.1475, -0.1020508, 1.1475, 0.8854962, 1.1475, -0.2442748, 1.1475, -3.2900763
0.1357941, -0.0159457, 1.15425, -0.0377197, 1.15425, -1.0042725, 1.15425, -0.1043701, 1.15425, 1.2977099, 1.15425, -0.4656489, 1.15425, -3.610687
0.1365882, -0.0206455, 1.161, -0.038147, 1.161, -1.0062866, 1.161, -0.1029053, 1.161, 1.1908396, 1.161, -0.5648855, 1.161, -3.4656489
0.1373824, -0.0216526, 1.16775, -0.0378418, 1.16775, -1.005188, 1.16775, -0.1021118, 1.16775, 1.1068702, 1.16775, -0.6793893, 1.16775, -3.4503818
0.1381765, -0.0201419, 1.1745, -0.0402222, 1.1745, -1.0037842, 1.1745, -0.1022949, 1.1745, 0.9312977, 1.1745, -0.9236641, 1.1745, -3.5419848
0.1389706, -0.01561, 1.18125, -0.0394287, 1.18125, -1.0064697, 1.18125, -0.0994263, 1.18125, 1.129771, 1.18125, -1.0305344, 1.18125, -3.5801528
0.1397647, -0.0152743, 1.188, -0.0396118, 1.188, -1.0063477, 1.188, -0.0979004, 1.188, 0.961832, 1.188, -1.2671756, 1.188, -3.5419848
0.1405588, -0.0166171, 1.19475, -0.0406494, 1.19475, -1.0046997, 1.19475, -0.1010742, 1.19475, 1.091603, 1.19475, -1.1450381, 1.19475, -3.5496182
0.1413529, -0.012253, 1.2015, -0.0408936, 1.2015, -1.0039673, 1.2015, -0.0986328, 1.2015, 0.8931298, 1.2015, -1.1374046, 1.2015, -3.389313
0.1421471, -0.0149386, 1.20825, -0.0424805, 1.20825, -1.0028687, 1.20825, -0.0986328, 1.20825, 0.9770992, 1.20825, -1.2290076, 1.20825, -3.6335878
0.1429412, -0.0157778, 1.215, -0.0404663, 1.215, -1.0031128, 1.215, -0.0977173, 1.215, 1.038168, 1.215, -1.1221374, 1.215, -3.5572519
0.1437353, -0.0135958, 1.22175, -0.0366821, 1.22175, -1.0056763, 1.22175, -0.0968018, 1.22175, 0.8091603, 1.22175, -0.9541985, 1.22175, -3.5496182
0.1445294, -0.0146029, 1.2285, -0.0368042, 1.2285, -1.0075073, 1.2285, -0.0950928, 1.2285, 0.9007633, 1.2285, -0.8167939, 1.2285, -3.740458
0.1453235, -0.0139315, 1.23525, -0.0374756, 1.23525, -1.0073853, 1.23525, -0.0971069, 1.23525, 0.8015267, 1.23525, -0.6183206, 1.23525, -3.5648854
0.1461176, -0.0149386, 1.242, -0.0336304, 1.242, -1.0053711, 1.242, -0.0944824, 1.242, 0.7709923, 1.242, -0.4045801, 1.242, -3.6793892
0.1469118, -0.0151064, 1.24875, -0.0383911, 1.24875, -1.0043335, 1.24875, -0.0960083, 1.24875, 0.7709923, 1.24875, -0.1068702, 1.24875, -3.7328243
0.1477059, -0.0135958, 1.2555, -0.0396729, 1.2555, -1.0048218, 1.2555, -0.0978394, 1.2555, 0.648855, 1.2555, -0.259542, 1.2555, -3.7175572
0.1485, -0.0149386, 1.26225, -0.0445557, 1.26225, -1.0103149, 1.26225, -0.0981445, 1.26225, 0.8015267, 1.26225, -0.1450382, 1.26225, -3.5877862
0.1492941, -0.018967, 1.269, -0.0419922, 1.269, -1.0115356, 1.269, -0.0986938, 1.269, 1, 1.269, 0.0076336, 1.269, -3.8778627
0.1500882, -0.0159457, 1.27575, -0.043457, 1.27575, -1.0107422, 1.27575, -0.098877, 1.27575, 0.8625954, 1.27575, 0.0305344, 1.27575, -3.9160306
0.1508824, -0.0125887, 1.2825, -0.0415039, 1.2825, -1.0107422, 1.2825, -0.1047974, 1.2825, 0.961832, 1.2825, 0.1221374, 1.2825, -3.8396947
0.1516765, -0.0114137, 1.28925, -0.0377808, 1.28925, -1.0096436, 1.28925, -0.1027222, 1.28925, 1.1450381, 1.28925, 0.480916, 1.28925, -3.7862597
0.1524706, -0.0132601, 1.296, -0.0362549, 1.296, -1.008667, 1.296, -0.1038818, 1.296, 1.1755725, 1.296, 0.648855, 1.296, -3.8625953
0.1532647, -0.0129244, 1.30275, -0.0356445, 1.30275, -1.0084839, 1.30275, -0.1032104, 1.30275, 1.1832061, 1.30275, 0.8931298, 1.30275, -3.8244274
0.1540588, -0.0135958, 1.3095, -0.036438, 1.3095, -1.0090942, 1.3095, -0.1056519, 1.3095, 1.3587786, 1.3095, 1.3587786, 1.3095, -3.8320611
0.1548529, -0.0181277, 1.31625, -0.0366821, 1.31625, -1.0080566, 1.31625, -0.1081543, 1.31625, 1.4656489, 1.31625, 1.7099236, 1.31625, -3.8549619
0.1556471, -0.0149386, 1.323, -0.0335693, 1.323, -1.0084839, 1.323, -0.104187, 1.323, 1.2824427, 1.323, 2.1221373, 1.323, -3.740458
0.1564412, -0.012253, 1.32975, -0.0370483, 1.32975, -1.0080566, 1.32975, -0.1057129, 1.32975, 1.5877863, 1.32975, 2.6793892, 1.32975, -3.6793892
0.1572353, -0.0109102, 1.3365, -0.0402832, 1.3365, -1.0111084, 1.3365, -0.1018677, 1.3365, 1.6259542, 1.3365, 2.7022901, 1.3365, -3.8091602
0.1580294, -0.0135958, 1.34325, -0.039917, 1.34325, -1.010376, 1.34325, -0.0987549, 1.34325, 1.6030535, 1.34325, 2.5648854, 1.34325, -3.8931298
0.1588235, -0.0166171, 1.35, -0.0390015, 1.35, -1.0123291, 1.35, -0.098877, 1.35, 1.6793894, 1.35, 2.5267177, 1.35, -3.7938931
0.1596176, -0.0159457, 1.35675, -0.03479, 1.35675, -1.0112915, 1.35675, -0.0980225, 1.35675, 1.6870229, 1.35675, 2.648855, 1.35675, -3.8778627
0.1604118, -0.0139315, 1.3635, -0.0333862, 1.3635, -1.0083008, 1.3635, -0.0970459, 1.3635, 1.5725191, 1.3635, 2.5877862, 1.3635, -3.8244274
0.1612059, -0.0135958, 1.37025, -0.0370483, 1.37025, -1.0076294, 1.37025, -0.0965576, 1.37025, 1.6793894, 1.37025, 2.7709923, 1.37025, -3.8396947
0.162, -0.0146029, 1.377, -0.039856, 1.377, -1.0114746, 1.377, -0.0988159, 1.377, 1.648855, 1.377, 2.7328243, 1.377, -3.7328243
0.1627941, -0.014435, 1.38375, -0.0403442, 1.38375, -1.0011597, 1.38375, -0.1098633, 1.38375, 1.8167939, 1.38375, 2.6946564, 1.38375, -3.870229
0.1635882, -0.0169528, 1.3905, -0.0368652, 1.3905, -0.9940796, 1.3905, -0.0983276, 1.3905, 1.610687, 1.3905, 2.0763359, 1.3905, -3.6641221
0.1643824, -0.0176242, 1.39725, -0.0325317, 1.39725, -0.9996948, 1.39725, -0.0946045, 1.39725, 1.0152671, 1.39725, 2.0152671, 1.39725, -3.7557251
0.1651765, -0.0142672, 1.404, -0.02771, 1.404, -1.0040894, 1.404, -0.0911255, 1.404, 1.259542, 1.404, 2.2290077, 1.404, -3.7709923
0.1659706, -0.01561, 1.41075, -0.0289917, 1.41075, -1.0030518, 1.41075, -0.0916748, 1.41075, 1.4351145, 1.41075, 2.3282442, 1.41075, -3.7557251
0.1667647, -0.0176242, 1.4175, -0.0279541, 1.4175, -1.0008545, 1.4175, -0.0881348, 1.4175, 1.0763359, 1.4175, 2.3587787, 1.4175, -3.6335878
0.1675588, -0.0159457, 1.42425, -0.0317993, 1.42425, -1.0012817, 1.42425, -0.0915527, 1.42425, 0.7251908, 1.42425, 2.5267177, 1.42425, -3.4351146
0.1683529, -0.0152743, 1.431, -0.0316162, 1.431, -1.0038452, 1.431, -0.0958252, 1.431, 0.6870229, 1.431, 2.5725191, 1.431, -3.4351146
0.1691471, -0.0139315, 1.43775, -0.0339355, 1.43775, -1.0056763, 1.43775, -0.0905762, 1.43775, 0.740458, 1.43775, 2.5496182, 1.43775, -3.4580152
0.1699412, -0.0159457, 1.4445, -0.0374146, 1.4445, -1.0032349, 1.4445, -0.0930176, 1.4445, 0.6564885, 1.4445, 2.4580152, 1.4445, -3.5267177
0.1707353, -0.0146029, 1.45125, -0.0370483, 1.45125, -1.0028687, 1.45125, -0.098999, 1.45125, 0.4045801, 1.45125, 2.1832061, 1.45125, -3.4198472
0.1715294, -0.012253, 1.458, -0.0369263, 1.458, -1.0055542, 1.458, -0.1028442, 1.458, 0.3664122, 1.458, 2.389313, 1.458, -3.3969467
0.1723235, -0.0095674, 1.46475, -0.0338745, 1.46475, -1.0061035, 1.46475, -0.0995483, 1.46475, 0.389313, 1.46475, 2.2137403, 1.46475, -3.4503818
0.1731176, -0.0085603, 1.4715, -0.0360718, 1.4715, -1.0064087, 1.4715, -0.1002197, 1.4715, 0.2519084, 1.4715, 2.0152671, 1.4715, -3.1984732
0.1739118, -0.0099031, 1.47825, -0.0402832, 1.47825, -1.0099487, 1.47825, -0.1046143, 1.47825, 0.0839695, 1.47825, 1.9007634, 1.47825, -3.3435113
0.1747059, -0.0072175, 1.485, -0.0388184, 1.485, -1.0115356, 1.485, -0.1022949, 1.485, 0.2442748, 1.485, 1.9694656, 1.485, -3.4045801
0.1755, -0.010071, 1.49175, -0.0344238, 1.49175, -1.0098267, 1.49175, -0.1018066, 1.49175, 0.2442748, 1.49175, 1.9389313, 1.49175, -3.3816793
0.1762941, -0.0157778, 1.4985, -0.0332031, 1.4985, -1.0095825, 1.4985, -0.1034546, 1.4985, 0.4274809, 1.4985, 1.7557251, 1.4985, -3.3816793
0.1770882, -0.01561, 1.50525, -0.0365601, 1.50525, -1.0075684, 1.50525, -0.0999756, 1.50525, 0.480916, 1.50525, 1.9389313, 1.50525, -3.2137403
0.1778824, -0.0162814, 1.512, -0.0358887, 1.512, -1.0075684, 1.512, -0.1011963, 1.512, 0.3664122, 1.512, 1.9389313, 1.512, -3.3206108
0.1786765, -0.0166171, 1.51875, -0.036438, 1.51875, -1.0074463, 1.51875, -0.1019287, 1.51875, 0.480916, 1.51875, 2.2748091, 1.51875, -3.4656489
0.1794706, -0.01561, 1.5255, -0.0390015, 1.5255, -1.0065308, 1.5255, -0.0998535, 1.5255, 0.3053435, 1.5255, 2.3587787, 1.5255, -3.4656489
0.1802647, -0.0151064, 1.53225, -0.0422974, 1.53225, -1.0073242, 1.53225, -0.1018677, 1.53225, 0.610687, 1.53225, 2.3664122, 1.53225, -3.3282442
0.1810588, -0.0129244, 1.539, -0.0446167, 1.539, -1.0038452, 1.539, -0.1044312, 1.539, 0.5648855, 1.539, 2.3587787, 1.539, -3.3129771
0.1818529, -0.0137636, 1.54575, -0.0411987, 1.54575, -1.0053711, 1.54575, -0.1010742, 1.54575, 0.3969466, 1.54575, 2.3282442, 1.54575, -3.2290077
0.1826471, -0.0129244, 1.5525, -0.0394897, 1.5525, -1.0048218, 1.5525, -0.1019287, 1.5525, 0.6793893, 1.5525, 2.1221373, 1.5525, -3.5114503
0.1834412, -0.0112459, 1.55925, -0.0393066, 1.55925, -1.0043945, 1.55925, -0.102417, 1.55925, 0.5648855, 1.55925, 2.1145039, 1.55925, -3.2748091
0.1842353, -0.0102388, 1.566, -0.0344238, 1.566, -1.001709, 1.566, -0.1054688, 1.566, 0.6335878, 1.566, 2.1603053, 1.566, -3.2671757
0.1850294, -0.0082246, 1.57275, -0.034729, 1.57275, -1.0042114, 1.57275, -0.1052246, 1.57275, 0.6412213, 1.57275, 2.2290077, 1.57275, -3.221374
0.1858235, -0.0085603, 1.5795, -0.0379028, 1.5795, -1.003418, 1.5795, -0.1038208, 1.5795, 0.6564885, 1.5795, 2.3587787, 1.5795, -3.1526718
0.1866176, -0.0107424, 1.58625, -0.0373535, 1.58625, -1.0056152, 1.58625, -0.1060181, 1.58625, 0.6793893, 1.58625, 2.3129771, 1.58625, -3.3969467
0.1874118, -0.0140993, 1.593, -0.0370483, 1.593, -1.003418, 1.593, -0.1044312, 1.593, 0.480916, 1.593, 2.0839694, 1.593, -3.1908398
0.1882059, -0.0224918, 1.59975, -0.0315552, 1.59975, -1.0067749, 1.59975, -0.104248, 1.59975, 0.5114504, 1.59975, 1.9923664, 1.59975, -3.3053436
0.189, -0.0263523, 1.6065, -0.0292969, 1.6065, -1.0089722, 1.6065, -0.102356, 1.6065, 0.519084, 1.6065, 1.8549619, 1.6065, -3.2366412
0.1897941, -0.023331, 1.61325, -0.0298462, 1.61325, -1.0089111, 1.61325, -0.1008911, 1.61325, 0.6030535, 1.61325, 1.961832, 1.61325, -3.2366412
0.1905882, -0.0206455, 1.62, -0.0333862, 1.62, -1.0129395, 1.62, -0.1043701, 1.62, 0.5114504, 1.62, 2.1832061, 1.62, -3.2519083
0.1913824, -0.0209812, 1.62675, -0.0331421, 1.62675, -1.0113525, 1.62675, -0.1026001, 1.62675, 0.6183206, 1.62675, 1.8244275, 1.62675, -3.0534351
0.1921765, -0.0203098, 1.6335, -0.0380249, 1.6335, -1.0095825, 1.6335, -0.1035156, 1.6335, 0.778626, 1.6335, 1.8167939, 1.6335, -3.1221373
0.1929706, -0.0213169, 1.64025, -0.0375366, 1.64025, -1.0073242, 1.64025, -0.1011963, 1.64025, 0.5343512, 1.64025, 1.7328244, 1.64025, -3.1068702
0.1937647, -0.023331, 1.647, -0.0380859, 1.647, -1.0125122, 1.647, -0.1013184, 1.647, 0.7709923, 1.647, 1.5496184, 1.647, -3.091603
0.1945588, -0.018967, 1.65375, -0.0376587, 1.65375, -1.0101318, 1.65375, -0.1016846, 1.65375, 0.8244275, 1.65375, 1.4580153, 1.65375, -3.129771
0.1953529, -0.01561, 1.6605, -0.036438, 1.6605, -1.0063477, 1.6605, -0.1046753, 1.6605, 0.870229, 1.6605, 1.3053435, 1.6605, -2.961832
0.1961471, -0.0147707, 1.66725, -0.0383301, 1.66725, -1.0070801, 1.66725, -0.1057129, 1.66725, 0.961832, 1.66725, 1.0610687, 1.66725, -3.1526718
0.1969412, -0.0095674, 1.674, -0.0379639, 1.674, -1.0072632, 1.674, -0.1085815, 1.674, 1.038168, 1.674, 0.8625954, 1.674, -3.038168
0.1977353, -0.0104067, 1.68075, -0.038147, 1.68075, -1.0079346, 1.68075, -0.1056519, 1.68075, 0.9389313, 1.68075, 0.9694657, 1.68075, -3.0534351
0.1985294, -0.0109102, 1.6875, -0.0355835, 1.6875, -1.0078125, 1.6875, -0.1060181, 1.6875, 1, 1.6875, 0.8396947, 1.6875, -3.2061069
0.1993235, -0.0109102, 1.69425, -0.0354614, 1.69425, -1.0040894, 1.69425, -0.104248, 1.69425, 1.0229008, 1.69425, 0.8625954, 1.69425, -3.129771
0.2001176, -0.0075532, 1.701, -0.0394897, 1.701, -1.0012817, 1.701, -0.1071777, 1.701, 1.129771, 1.701, 1.1068702, 1.701, -3.3282442
0.2009118, -0.002182, 1.70775, -0.0406494, 1.70775, -1.0019531, 1.70775, -0.1040649, 1.70775, 1.1526718, 1.70775, 0.9312977, 1.70775, -3.0229008
0.2017059, -0.0045319, 1.7145, -0.0389404, 1.7145, -1.003479, 1.7145, -0.105835, 1.7145, 1.1755725, 1.7145, 0.6259542, 1.7145, -3.0458016
0.2025, -0.0065461, 1.72125, -0.0391846, 1.72125, -1.0059814, 1.72125, -0.0999146, 1.72125, 1.1755725, 1.72125, 0.5267175, 1.72125, -3.2137403
0.2032941, -0.0065461, 1.728, -0.038269, 1.728, -1.0059814, 1.728, -0.1032104, 1.728, 1.091603, 1.728, 0.5648855, 1.728, -3.221374
0.2040882, -0.0078889, 1.73475, -0.039978, 1.73475, -1.0063477, 1.73475, -0.0995483, 1.73475, 1.129771, 1.73475, 0.5648855, 1.73475, -3.0687022
0.2048824, -0.0090639, 1.7415, -0.0390625, 1.7415, -1.0076904, 1.7415, -0.0991821, 1.7415, 1.1221374, 1.7415, 0.6335878, 1.7415, -3.0687022
0.2056765, -0.008896, 1.74825, -0.0363159, 1.74825, -1.0073242, 1.74825, -0.0975952, 1.74825, 1.1374046, 1.74825, 0.5343512, 1.74825, -3.0305343
0.2064706, -0.008896, 1.755, -0.0365601, 1.755, -1.0075684, 1.755, -0.097229, 1.755, 1.0763359, 1.755, 0.6183206, 1.755, -3.2900763
0.2072647, -0.0102388, 1.76175, -0.0388184, 1.76175, -1.0097046, 1.76175, -0.0999146, 1.76175, 1.038168, 1.76175, 0.519084, 1.76175, -3.038168
0.2080588, -0.0142672, 1.7685, -0.0384521, 1.7685, -1.0099487, 1.7685, -0.1004639, 1.7685, 0.961832, 1.7685, 0.4122137, 1.7685, -3.1068702
0.2088529, -0.0149386, 1.77525, -0.0349121, 1.77525, -1.0110474, 1.77525, -0.1018066, 1.77525, 0.961832, 1.77525, 0.2900763, 1.77525, -3.1832061
0.2096471, -0.0124208, 1.782, -0.0355225, 1.782, -1.0073853, 1.782, -0.1019287, 1.782, 0.9236641, 1.782, 0.4198473, 1.782, -3.0763359
0.2104412, -0.0104067, 1.78875, -0.0333862, 1.78875, -1.0057983, 1.78875, -0.1021729, 1.78875, 1.091603, 1.78875, 0.2442748, 1.78875, -3.3053436
0.2112353, -0.0129244, 1.7955, -0.0313721, 1.7955, -1.0083618, 1.7955, -0.1030884, 1.7955, 0.7557252, 1.7955, 0.3129771, 1.7955, -3.1145039
0.2120294, -0.0129244, 1.80225, -0.0323486, 1.80225, -1.006958, 1.80225, -0.1035767, 1.80225, 0.8854962, 1.80225, 0.0229008, 1.80225, -3.1755726
0.2128235, -0.0119173, 1.809, -0.0340576, 1.809, -1.0039673, 1.809, -0.1033325, 1.809, 0.9923664, 1.809, -0.1145038, 1.809, -3.1755726
0.2136176, -0.0127565, 1.81575, -0.0384521, 1.81575, -1.0062866, 1.81575, -0.1038818, 1.81575, 0.8854962, 1.81575, -0.1450382, 1.81575, -3.2442749
0.2144118, -0.0142672, 1.8225, -0.041687, 1.8225, -1.0067749, 1.8225, -0.1065063, 1.8225, 0.870229, 1.8225, -0.3587786, 1.8225, -3.0534351
0.2152059, -0.0186313, 1.82925, -0.0400391, 1.82925, -1.0049438, 1.82925, -0.1057129, 1.82925, 1.0152671, 1.82925, -0.4503817, 1.82925, -3.0305343
0.216, -0.0198062, 1.836, -0.0388184, 1.836, -1.0045166, 1.836, -0.1030273, 1.836, 0.8473282, 1.836, -0.5572519, 1.836, -3.221374
0.2167941, -0.0198062, 1.84275, -0.0385132, 1.84275, -1.0067749, 1.84275, -0.1022949, 1.84275, 0.9007633, 1.84275, -0.6564885, 1.84275, -3.1908398
0.2175882, -0.0199741, 1.8495, -0.0406494, 1.8495, -1.0040283, 1.8495, -0.1022949, 1.8495, 0.9541985, 1.8495, -0.6030535, 1.8495, -3.221374
0.2183824, -0.0216526, 1.85625, -0.0401001, 1.85625, -1.0066528, 1.85625, -0.1049194, 1.85625, 1.0534351, 1.85625, -0.4656489, 1.85625, -3.1755726
0.2191765, -0.0218204, 1.863, -0.0392456, 1.863, -1.0083008, 1.863, -0.1066284, 1.863, 1.1679389, 1.863, -0.3816794, 1.863, -3.1603053
0.2199706, -0.0203098, 1.86975, -0.0403442, 1.86975, -1.0064087, 1.86975, -0.1028442, 1.86975, 1.038168, 1.86975, -0.3053435, 1.86975, -3.129771
0.2207647, -0.0216526, 1.8765, -0.0402832, 1.8765, -1.0081787, 1.8765, -0.0995483, 1.8765, 1.0305344, 1.8765, -0.3282443, 1.8765, -3.1755726
0.2215588, -0.0169528, 1.88325, -0.0341187, 1.88325, -1.0062866, 1.88325, -0.0988159, 1.88325, 1.0152671, 1.88325, -0.5725191, 1.88325, -3.2977099
0.2223529, -0.0142672, 1.89, -0.0348511, 1.89, -1.0037842, 1.89, -0.1018677, 1.89, 0.961832, 1.89, -0.3053435, 1.89, -3.221374
0.2231471, -0.0176242, 1.89675, -0.0354614, 1.89675, -1.0045776, 1.89675, -0.1005249, 1.89675, 0.9236641, 1.89675, -0.3969466, 1.89675, -3.2977099
0.2239412, -0.018967, 1.9035, -0.0375366, 1.9035, -1.0072021, 1.9035, -0.1001587, 1.9035, 1.0839695, 1.9035, -0.2442748, 1.9035, -3.1603053
0.2247353, -0.0172885, 1.91025, -0.0361938, 1.91025, -1.0098267, 1.91025, -0.1044922, 1.91025, 1.1450381, 1.91025, -0.3206107, 1.91025, -3.2290077
0.2255294, -0.0191348, 1.917, -0.036438, 1.917, -1.0067749, 1.917, -0.1054077, 1.917, 1, 1.917, -0.2671756, 1.917, -3.1755726
0.2263235, -0.0206455, 1.92375, -0.0393677, 1.92375, -1.0075684, 1.92375, -0.1040039, 1.92375, 0.961832, 1.92375, -0.5725191, 1.92375, -3.3053436
0.2271176, -0.018967, 1.9305, -0.043396, 1.9305, -1.006897, 1.9305, -0.1051025, 1.9305, 0.9389313, 1.9305, -0.4351145, 1.9305, -3.1450381
0.2279118, -0.0193027, 1.93725, -0.0432739, 1.93725, -1.0056763, 1.93725, -0.1030273, 1.93725, 1.0763359, 1.93725, -0.5038168, 1.93725, -3.2748091
0.2287059, -0.0223239, 1.944, -0.0413208, 1.944, -1.0041504, 1.944, -0.1040039, 1.944, 1.1526718, 1.944, -0.7709923, 1.944, -3.3206108
0.2295, -0.0229953, 1.95075, -0.0362549, 1.95075, -1.0043945, 1.95075, -0.1070557, 1.95075, 1.259542, 1.95075, -0.6641222, 1.95075, -3.2671757
0.2302941, -0.0213169, 1.9575, -0.0357056, 1.9575, -1.0042114, 1.9575, -0.104248, 1.9575, 1.3206106, 1.9575, -0.7633588, 1.9575, -3.3816793
0.2310882, -0.0221561, 1.96425, -0.0361328, 1.96425, -1.0075073, 1.96425, -0.1026001, 1.96425, 1.2290076, 1.96425, -0.3129771, 1.96425, -3.4580152
0.2318824, -0.0251774, 1.971, -0.0274658, 1.971, -1.0064697, 1.971, -0.1029663, 1.971, 1.2061069, 1.971, -0.1450382, 1.971, -3.1526718
0.2326765, -0.0219883, 1.97775, -0.0338135, 1.97775, -1.0066528, 1.97775, -0.1036377, 1.97775, 1.0458015, 1.97775, 0.0305344, 1.97775, -3.2824428
0.2334706, -0.0216526, 1.9845, -0.036499, 1.9845, -1.0081177, 1.9845, -0.0997314, 1.9845, 1.0076336, 1.9845, 0.259542, 1.9845, -3.221374
0.2342647, -0.0256809, 1.99125, -0.0421753, 1.99125, -1.0103149, 1.99125, -0.1013184, 1.99125, 1.2442749, 1.99125, 0.1832061, 1.99125, -3.0534351
0.2350588, -0.0226596, 1.998, -0.0402832, 1.998, -1.0126343, 1.998, -0.0983887, 1.998, 1.0229008, 1.998, 0.0763359, 1.998, -3.1450381
0.2358529, -0.018967, 2.00475, -0.0370483, 2.00475, -1.0115967, 2.00475, -0.09729, 2.00475, 1.1145039, 2.00475, 0.0992366, 2.00475, -3.221374
0.2366471, -0.0196384, 2.0115, -0.0310669, 2.0115, -1.0103149, 2.0115, -0.0969238, 2.0115, 1.2061069, 2.0115, 0.1908397, 2.0115, -3.1603053
0.2374412, -0.0196384, 2.01825, -0.0307007, 2.01825, -1.0099487, 2.01825, -0.0963135, 2.01825, 1.2977099, 2.01825, 0.389313, 2.01825, -3.3969467
0.2382353, -0.0206455, 2.025, -0.0325928, 2.025, -1.0095215, 2.025, -0.0975342, 2.025, 1.2137405, 2.025, 0.351145, 2.025, -3.0534351
0.2390294, -0.0209812, 2.03175, -0.0322266, 2.03175, -1.0097656, 2.03175, -0.0965576, 2.03175, 1, 2.03175, 0.5496183, 2.03175, -3.0458016
0.2398235, -0.0196384, 2.0385, -0.0281372, 2.0385, -1.0067139, 2.0385, -0.0988159, 2.0385, 0.9923664, 2.0385, 1.091603, 2.0385, -2.9389312
0.2406176, -0.0206455, 2.04525, -0.0307007, 2.04525, -1.0084839, 2.04525, -0.0973511, 2.04525, 0.8549618, 2.04525, 0.9541985, 2.04525, -2.9465649
0.2414118, -0.0209812, 2.052, -0.0325928, 2.052, -1.0039062, 2.052, -0.0975952, 2.052, 0.9465649, 2.052, 1.221374, 2.052, -2.9541984
0.2422059, -0.0167849, 2.05875, -0.0343018, 2.05875, -1.0081787, 2.05875, -0.0987549, 2.05875, 0.8396947, 2.05875, 1.2366412, 2.05875, -2.8931298
0.243, -0.0129244, 2.0655, -0.0300293, 2.0655, -1.0065918, 2.0655, -0.1036987, 2.0655, 0.8320611, 2.0655, 1.3282443, 2.0655, -2.8473282
0.2437941, -0.0129244, 2.07225, -0.0315552, 2.07225, -0.999939, 2.07225, -0.0997925, 2.07225, 0.6717557, 2.07225, 1.3206106, 2.07225, -2.7709923
0.2445882, -0.014435, 2.079, -0.0319214, 2.079, -1.0039062, 2.079, -0.0997925, 2.079, 0.389313, 2.079, 1.4198474, 2.079, -2.6564887
0.2453824, -0.0149386, 2.08575, -0.0316772, 2.08575, -1.0050049, 2.08575, -0.0983887, 2.08575, 0.4503817, 2.08575, 1.6641221, 2.08575, -2.610687
0.2461765, -0.0115816, 2.0925, -0.0338745, 2.0925, -1.0048828, 2.0925, -0.1002197, 2.0925, 0.7251908, 2.0925, 1.778626, 2.0925, -2.7633588
0.2469706, -0.0102388, 2.09925, -0.0343628, 2.09925, -1.006897, 2.09925, -0.0980835, 2.09925, 0.4045801, 2.09925, 2.0534351, 2.09925, -2.7709923
0.2477647, -0.0072175, 2.106, -0.0369873, 2.106, -1.005127, 2.106, -0.0997314, 2.106, 0.4580153, 2.106, 2.0687022, 2.106, -2.8931298
0.2485588, -0.0072175, 2.11275, -0.0360718, 2.11275, -1.0039062, 2.11275, -0.0991211, 2.11275, 0.221374, 2.11275, 2.0687022, 2.11275, -2.5954199
0.2493529, -0.0095674, 2.1195, -0.036377, 2.1195, -1.005249, 2.1195, -0.0995483, 2.1195, 0.3358779, 2.1195, 2.129771, 2.1195, -2.6030533
0.2501471, -0.0082246, 2.12625, -0.0379028, 2.12625, -1.0056763, 2.12625, -0.0993042, 2.12625, 0.3053435, 2.12625, 2.1526718, 2.12625, -2.5877862
0.2509412, -0.0099031, 2.133, -0.0377808, 2.133, -1.0079346, 2.133, -0.0996704, 2.133, 0.2824427, 2.133, 2.3282442, 2.133, -2.7633588
0.2517353, -0.0109102, 2.13975, -0.0394287, 2.13975, -1.0079956, 2.13975, -0.1009521, 2.13975, 0.4122137, 2.13975, 2.4580152, 2.13975, -2.6717558
0.2525294, -0.0062104, 2.1465, -0.0408325, 2.1465, -1.0079346, 2.1465, -0.102356, 2.1465, 0.2824427, 2.1465, 2.5877862, 2.1465, -2.8625953
0.2533235, -0.0062104, 2.15325, -0.0403442, 2.15325, -1.0079346, 2.15325, -0.1035767, 2.15325, 0.1450382, 2.15325, 2.3664122, 2.15325, -2.7022901
0.2541176, -0.0035248, 2.16, -0.0394287, 2.16, -1.0082397, 2.16, -0.1050415, 2.16, 0.3282443, 2.16, 2.2748091, 2.16, -2.8473282
0.2549118, -0.0018463, 2.16675, -0.0386353, 2.16675, -1.0046997, 2.16675, -0.1016235, 2.16675, 0.3969466, 2.16675, 2.221374, 2.16675, -2.8549619
0.2557059, -0.0001678, 2.1735, -0.0404053, 2.1735, -1.0040283, 2.1735, -0.1047363, 2.1735, 0.2671756, 2.1735, 2.3969467, 2.1735, -2.8625953
0.2565, -0.002182, 2.18025, -0.0449829, 2.18025, -1.0037842, 2.18025, -0.1062012, 2.18025, 0.3282443, 2.18025, 2.2366412, 2.18025, -3.0076337
0.2572941, -0.0052033, 2.187, -0.043457, 2.187, -1.0072021, 2.187, -0.1069946, 2.187, 0.351145, 2.187, 2.1145039, 2.187, -3.0992367
0.2580882, -0.0062104, 2.19375, -0.0457153, 2.19375, -1.0068359, 2.19375, -0.1109009, 2.19375, 0.2900763, 2.19375, 1.7099236, 2.19375, -3.0992367
0.2588824, -0.005539, 2.2005, -0.0490723, 2.2005, -1.0067139, 2.2005, -0.1116333, 2.2005, 0.4732825, 2.2005, 1.3282443, 2.2005, -3.2824428
0.2596765, -0.005539, 2.20725, -0.0493164, 2.20725, -1.0041504, 2.20725, -0.1102295, 2.20725, 0.5496183, 2.20725, 1.2824427, 2.20725, -3.3740458
0.2604706, -0.0083925, 2.214, -0.0494385, 2.214, -1.0075684, 2.214, -0.1130371, 2.214, 0.5648855, 2.214, 0.8015267, 2.214, -3.4351146
0.2612647, -0.0105745, 2.22075, -0.0495605, 2.22075, -1.0087891, 2.22075, -0.1109009, 2.22075, 0.778626, 2.22075, 0.6335878, 2.22075, -3.5877862
0.2620588, -0.0115816, 2.2275, -0.046814, 2.2275, -1.0073242, 2.2275, -0.1098022, 2.2275, 0.9312977, 2.2275, 0.351145, 2.2275, -3.7709923
0.2628529, -0.0117494, 2.23425, -0.0441895, 2.23425, -1.0074463, 2.23425, -0.1099243, 2.23425, 1.0229008, 2.23425, 0.0610687, 2.23425, -3.778626
0.2636471, -0.0119173, 2.241, -0.0447388, 2.241, -1.0067749, 2.241, -0.1105957, 2.241, 1.1068702, 2.241, 0.0076336, 2.241, -3.8473282
0.2644412, -0.0102388, 2.24775, -0.0426636, 2.24775, -1.0079346, 2.24775, -0.1087036, 2.24775, 1.2442749, 2.24775, -0.1221374, 2.24775, -3.9770992
0.2652353, -0.0102388, 2.2545, -0.0435181, 2.2545, -1.0100098, 2.2545, -0.1051025, 2.2545, 1.2137405, 2.2545, -0.2366412, 2.2545, -4
0.2660294, -0.0090639, 2.26125, -0.0400391, 2.26125, -1.0075073, 2.26125, -0.1052856, 2.26125, 1.4274809, 2.26125, -0.129771, 2.26125, -3.9770992
0.2668235, -0.0109102, 2.268, -0.0418091, 2.268, -1.0078125, 2.268, -0.1043701, 2.268, 1.5877863, 2.268, -0.3053435, 2.268, -4.0229006
0.2676176, -0.0146029, 2.27475, -0.0406494, 2.27475, -1.0075684, 2.27475, -0.1044312, 2.27475, 1.4656489, 2.27475, -0.4427481, 2.27475, -4.0839696
0.2684118, -0.0139315, 2.2815, -0.0396729, 2.2815, -1.0091553, 2.2815, -0.1062622, 2.2815, 1.4427481, 2.2815, -0.5267175, 2.2815, -4.1603055
0.2692059, -0.0112459, 2.28825, -0.0397949, 2.28825, -1.0114746, 2.28825, -0.1040649, 2.28825, 1.4580153, 2.28825, -0.7022901, 2.28825, -4.3129773
0.27, -0.0095674, 2.295, -0.039856, 2.295, -1.0078125, 2.295, -0.1046143, 2.295, 1.4885496, 2.295, -0.9312977, 2.295, -4.3206105
0.2707941, -0.0137636, 2.30175, -0.0378418, 2.30175, -1.0043945, 2.30175, -0.1040039, 2.30175, 1.4580153, 2.30175, -1.0763359, 2.30175, -4.2748094
0.2715882, -0.0176242, 2.3085, -0.0377808, 2.3085, -1.0060425, 2.3085, -0.1031494, 2.3085, 1.4580153, 2.3085, -1.1450381, 2.3085, -4.3206105
0.2723824, -0.017792, 2.31525, -0.0374756, 2.31525, -1.0054321, 2.31525, -0.1009521, 2.31525, 1.480916, 2.31525, -1.0763359, 2.31525, -4.2137403
0.2731765, -0.0166171, 2.322, -0.0379639, 2.322, -1.0065308, 2.322, -0.0980225, 2.322, 1.3282443, 2.322, -0.9770992, 2.322, -4.3969464
0.2739706, -0.0181277, 2.32875, -0.0371094, 2.32875, -1.0083008, 2.32875, -0.0964355, 2.32875, 1.2900764, 2.32875, -1, 2.32875, -4.2519083
0.2747647, -0.0176242, 2.3355, -0.0385132, 2.3355, -1.0068359, 2.3355, -0.0969849, 2.3355, 1.4580153, 2.3355, -1.091603, 2.3355, -4.5648856
0.2755588, -0.0157778, 2.34225, -0.0388794, 2.34225, -1.0061646, 2.34225, -0.0988159, 2.34225, 1.4885496, 2.34225, -0.9236641, 2.34225, -4.3358779
0.2763529, -0.0176242, 2.349, -0.0390625, 2.349, -1.0032959, 2.349, -0.1018066, 2.349, 1.2900764, 2.349, -1.1679389, 2.349, -4.4656487
0.2771471, -0.0219883, 2.35575, -0.0388184, 2.35575, -1.0061035, 2.35575, -0.102356, 2.35575, 1.1832061, 2.35575, -1.1679389, 2.35575, -4.4427481
0.2779412, -0.0221561, 2.3625, -0.0341797, 2.3625, -1.0056152, 2.3625, -0.1000366, 2.3625, 1.3206106, 2.3625, -1.3435115, 2.3625, -4.3511453
0.2787353, -0.0246738, 2.36925, -0.0332642, 2.36925, -1.0045166, 2.36925, -0.104187, 2.36925, 1.3053435, 2.36925, -1.1526718, 2.36925, -4.3740458
0.2795294, -0.0260166, 2.376, -0.0310669, 2.376, -1.0075073, 2.376, -0.1072388, 2.376, 1.3664122, 2.376, -1.038168, 2.376, -4.3511453
0.2803235, -0.0270237, 2.38275, -0.0294189, 2.38275, -1.0075073, 2.38275, -0.1051025, 2.38275, 1.3664122, 2.38275, -0.961832, 2.38275, -4.5954199
0.2811176, -0.0276951, 2.3895, -0.0335083, 2.3895, -1.0054321, 2.3895, -0.1057129, 2.3895, 1.2824427, 2.3895, -0.7709923, 2.3895, -4.2442746
0.2819118, -0.0256809, 2.39625, -0.0322876, 2.39625, -1.0064697, 2.39625, -0.1054077, 2.39625, 1.2366412, 2.39625, -0.908397, 2.39625, -4.259542
0.2827059, -0.0228275, 2.403, -0.0340576, 2.403, -1.0057983, 2.403, -0.1033325, 2.403, 0.8778626, 2.403, -0.7099237, 2.403, -4.3435116
0.2835, -0.0243381, 2.40975, -0.0335083, 2.40975, -1.0091553, 2.40975, -0.102356, 2.40975, 1.1755725, 2.40975, -0.5267175, 2.40975, -4.3816795
0.2842941, -0.0203098, 2.4165, -0.0360107, 2.4165, -1.0114746, 2.4165, -0.1031494, 2.4165, 1.2519084, 2.4165, -0.5038168, 2.4165, -4.4274807
0.2850882, -0.0186313, 2.42325, -0.0394897, 2.42325, -1.005127, 2.42325, -0.1046143, 2.42325, 1.351145, 2.42325, -0.3435115, 2.42325, -4.4351144
0.2858824, -0.0193027, 2.43, -0.0335083, 2.43, -1.0075684, 2.43, -0.1054077, 2.43, 1.1984733, 2.43, -0.5725191, 2.43, -4.2900763
0.2866765, -0.0167849, 2.43675, -0.0325928, 2.43675, -1.0073242, 2.43675, -0.100769, 2.43675, 1.1145039, 2.43675, -0.6641222, 2.43675, -4.1832061
0.2874706, -0.01561, 2.4435, -0.0301514, 2.4435, -1.0045166, 2.4435, -0.1040649, 2.4435, 1.3740458, 2.4435, -0.480916, 2.4435, -4.4732823
0.2882647, -0.0151064, 2.45025, -0.0303345, 2.45025, -1.0054321, 2.45025, -0.1052856, 2.45025, 1.2290076, 2.45025, -0.480916, 2.45025, -4.4122138
0.2890588, -0.0112459, 2.457, -0.0278931, 2.457, -1.0087891, 2.457, -0.1005249, 2.457, 1.221374, 2.457, -0.2748092, 2.457, -4.3587785
0.2898529, -0.0109102, 2.46375, -0.0293579, 2.46375, -1.005249, 2.46375, -0.1008911, 2.46375, 1.2824427, 2.46375, 0.0076336, 2.46375, -4.3129773
0.2906471, -0.0146029, 2.4705, -0.0322266, 2.4705, -1.0065918, 2.4705, -0.1002808, 2.4705, 1.2442749, 2.4705, 0.2519084, 2.4705, -4.3282442
0.2914412, -0.0135958, 2.47725, -0.0287476, 2.47725, -1.0085449, 2.47725, -0.1019897, 2.47725, 1.1526718, 2.47725, 0.1908397, 2.47725, -4.2366414
0.2922353, -0.008896, 2.484, -0.0321655, 2.484, -1.0089722, 2.484, -0.1017456, 2.484, 1.2137405, 2.484, 0.5954198, 2.484, -4.3358779
0.2930294, -0.0112459, 2.49075, -0.0316772, 2.49075, -1.0084839, 2.49075, -0.1040649, 2.49075, 1.0610687, 2.49075, 0.7557252, 2.49075, -4.2977099
0.2938235, -0.0129244, 2.4975, -0.0320435, 2.4975, -1.0084229, 2.4975, -0.1033325, 2.4975, 1.0534351, 2.4975, 0.7557252, 2.4975, -4.3206105
0.2946176, -0.0105745, 2.50425, -0.032959, 2.50425, -1.0084229, 2.50425, -0.0999756, 2.50425, 1.0458015, 2.50425, 1, 2.50425, -4.2442746
0.2954118, -0.0083925, 2.511, -0.0333862, 2.511, -1.0064087, 2.511, -0.1020508, 2.511, 1.0763359, 2.511, 0.9312977, 2.511, -4.1755724
0.2962059, -0.0109102, 2.51775, -0.0331421, 2.51775, -1.0057983, 2.51775, -0.1038818, 2.51775, 0.9847328, 2.51775, 0.9389313, 2.51775, -4.2290077
0.297, -0.012253, 2.5245, -0.0324707, 2.5245, -1.0064697, 2.5245, -0.1037598, 2.5245, 1.0992366, 2.5245, 0.9923664, 2.5245, -4.3893127
0.2977941, -0.0057069, 2.53125, -0.0303345, 2.53125, -1.0078735, 2.53125, -0.1011353, 2.53125, 1.091603, 2.53125, 1.0229008, 2.53125, -4.2977099
0.2985882, -0.008896, 2.538, -0.0287476, 2.538, -1.0050659, 2.538, -0.1009521, 2.538, 1.2519084, 2.538, 1.0992366, 2.538, -4.3129773
0.2993824, -0.0115816, 2.54475, -0.0269775, 2.54475, -1.0073853, 2.54475, -0.0983276, 2.54475, 1.0076336, 2.54475, 0.9847328, 2.54475, -4.4122138
0.3001765, -0.0130922, 2.5515, -0.0271606, 2.5515, -1.0067749, 2.5515, -0.1010132, 2.5515, 1.038168, 2.5515, 1.2442749, 2.5515, -4.2061067
0.3009706, -0.0129244, 2.55825, -0.0296631, 2.55825, -1.0065918, 2.55825, -0.1040649, 2.55825, 1.1068702, 2.55825, 1.519084, 2.55825, -4.3893127
0.3017647, -0.0115816, 2.565, -0.0322876, 2.565, -1.0065918, 2.565, -0.1062012, 2.565, 1.1755725, 2.565, 1.6259542, 2.565, -4.3435116
0.3025588, -0.0149386, 2.57175, -0.0359497, 2.57175, -1.006958, 2.57175, -0.1056519, 2.57175, 1.1374046, 2.57175, 1.4274809, 2.57175, -4.3816795
0.3033529, -0.0171206, 2.5785, -0.0375366, 2.5785, -1.0067139, 2.5785, -0.1049805, 2.5785, 0.9847328, 2.5785, 1.480916, 2.5785, -4.4885497
0.3041471, -0.0181277, 2.58525, -0.0380249, 2.58525, -1.0056152, 2.58525, -0.1036987, 2.58525, 1.0610687, 2.58525, 1.2748091, 2.58525, -4.519084
0.3049412, -0.0176242, 2.592, -0.0371704, 2.592, -1.0048218, 2.592, -0.1027832, 2.592, 1.1221374, 2.592, 1.2442749, 2.592, -4.5267177
0.3057353, -0.0176242, 2.59875, -0.0307007, 2.59875, -1.0056763, 2.59875, -0.098938, 2.59875, 1.1526718, 2.59875, 1.1450381, 2.59875, -4.5038166
0.3065294, -0.01561, 2.6055, -0.0274658, 2.6055, -1.0046387, 2.6055, -0.1040649, 2.6055, 1.0839695, 2.6055, 1.3587786, 2.6055, -4.5877862
0.3073235, -0.0184634, 2.61225, -0.0239258, 2.61225, -1.0061646, 2.61225, -0.1030273, 2.61225, 1.1145039, 2.61225, 1.4045801, 2.61225, -4.480916
0.3081176, -0.0196384, 2.619, -0.0274658, 2.619, -1.0061035, 2.619, -0.0980225, 2.619, 1.1679389, 2.619, 1.7938931, 2.619, -4.7633586
0.3089118, -0.0130922, 2.62575, -0.0272827, 2.62575, -1.005249, 2.62575, -0.0967407, 2.62575, 1.0839695, 2.62575, 1.8320611, 2.62575, -4.6488547
0.3097059, -0.0119173, 2.6325, -0.0289917, 2.6325, -1.0072632, 2.6325, -0.0970459, 2.6325, 1.0305344, 2.6325, 2.0305343, 2.6325, -4.6946564
0.3105, -0.0139315, 2.63925, -0.0305786, 2.63925, -1.005249, 2.63925, -0.0969849, 2.63925, 1.1603054, 2.63925, 2.4045801, 2.63925, -4.8549619
0.3112941, -0.0176242, 2.646, -0.0269775, 2.646, -1.001709, 2.646, -0.1001587, 2.646, 1.129771, 2.646, 2.3206108, 2.646, -4.6412215
0.3120882, -0.018967, 2.65275, -0.0317993, 2.65275, -1.0041504, 2.65275, -0.0961914, 2.65275, 0.9007633, 2.65275, 2.1984732, 2.65275, -4.6106873
0.3128824, -0.018967, 2.6595, -0.0343018, 2.6595, -1.0093384, 2.6595, -0.100647, 2.6595, 0.9312977, 2.6595, 1.9160305, 2.6595, -4.5648856
0.3136765, -0.0226596, 2.66625, -0.0303345, 2.66625, -1.0096436, 2.66625, -0.1036377, 2.66625, 0.9160305, 2.66625, 1.7099236, 2.66625, -4.6946564
0.3144706, -0.0209812, 2.673, -0.03125, 2.673, -1.0072021, 2.673, -0.1025391, 2.673, 1, 2.673, 1.6946565, 2.673, -4.7328243
0.3152647, -0.0176242, 2.67975, -0.0281372, 2.67975, -1.0074463, 2.67975, -0.1036987, 2.67975, 1.0229008, 2.67975, 1.7022901, 2.67975, -4.8549619
0.3160588, -0.0162814, 2.6865, -0.0300293, 2.6865, -1.0072021, 2.6865, -0.1030273, 2.6865, 1.038168, 2.6865, 1.778626, 2.6865, -4.8625956
0.3168529, -0.0193027, 2.69325, -0.0288696, 2.69325, -1.0101318, 2.69325, -0.102356, 2.69325, 0.9770992, 2.69325, 1.7862595, 2.69325, -4.9541984
0.3176471, -0.0216526, 2.7, -0.0287476, 2.7, -1.0045776, 2.7, -0.1054077, 2.7, 1.1068702, 2.7, 1.9236641, 2.7, -4.8244276
0.3184412, -0.0219883, 2.70675, -0.0281982, 2.70675, -1.005249, 2.70675, -0.1034546, 2.70675, 1.038168, 2.70675, 1.9236641, 2.70675, -4.9389315
0.3192353, -0.0199741, 2.7135, -0.0255737, 2.7135, -1.0044556, 2.7135, -0.1013794, 2.7135, 0.8473282, 2.7135, 2.259542, 2.7135, -5.0687022
0.3200294, -0.0203098, 2.72025, -0.0267944, 2.72025, -1.0082397, 2.72025, -0.0999146, 2.72025, 0.8320611, 2.72025, 2.3206108, 2.72025, -4.9312978
0.3208235, -0.0162814, 2.727, -0.0289307, 2.727, -1.0097046, 2.727, -0.0986938, 2.727, 1.1908396, 2.727, 2.610687, 2.727, -4.9465647
0.3216176, -0.017792, 2.73375, -0.0267944, 2.73375, -1.0048828, 2.73375, -0.1012573, 2.73375, 1.1755725, 2.73375, 2.5343511, 2.73375, -4.8625956
0.3224118, -0.0196384, 2.7405, -0.0274658, 2.7405, -1.0045166, 2.7405, -0.1035156, 2.7405, 0.8549618, 2.7405, 2.5267177, 2.7405, -4.9847326
0.3232059, -0.018967, 2.74725, -0.0244141, 2.74725, -1.0072632, 2.74725, -0.1035156, 2.74725, 0.870229, 2.74725, 2.4961832, 2.74725, -4.9770994
0.324, -0.0149386, 2.754, -0.026062, 2.754, -1.0067749, 2.754, -0.0982666, 2.754, 0.8015267, 2.754, 2.4580152, 2.754, -5
0.3247941, -0.0115816, 2.76075, -0.0231934, 2.76075, -1.0059814, 2.76075, -0.1004639, 2.76075, 0.8778626, 2.76075, 2.7709923, 2.76075, -4.9694657
0.3255882, -0.011078, 2.7675, -0.0221558, 2.7675, -1.0061035, 2.7675, -0.1040039, 2.7675, 0.908397, 2.7675, 2.8396947, 2.7675, -5.0076337
0.3263824, -0.0102388, 2.77425, -0.0283813, 2.77425, -1.0061646, 2.77425, -0.1005859, 2.77425, 0.9923664, 2.77425, 2.9160306, 2.77425, -5.0534353
0.3271765, -0.0129244, 2.781, -0.0279541, 2.781, -1.0079346, 2.781, -0.1030884, 2.781, 0.8931298, 2.781, 2.9465649, 2.781, -4.9694657
0.3279706, -0.0129244, 2.78775, -0.0297852, 2.78775, -1.0073853, 2.78775, -0.1049194, 2.78775, 0.7633588, 2.78775, 2.7709923, 2.78775, -5.0534353
0.3287647, -0.0102388, 2.7945, -0.0266113, 2.7945, -1.0092163, 2.7945, -0.1033936, 2.7945, 1.2442749, 2.7945, 2.9160306, 2.7945, -4.9847326
0.3295588, -0.0129244, 2.80125, -0.0269775, 2.80125, -1.0090942, 2.80125, -0.1085815, 2.80125, 1.2824427, 2.80125, 2.6717558, 2.80125, -4.9160304
0.3303529, -0.0135958, 2.808, -0.0233765, 2.808, -1.006958, 2.808, -0.1088867, 2.808, 1, 2.808, 2.259542, 2.808, -4.7862597
0.3311471, -0.0149386, 2.81475, -0.0205688, 2.81475, -1.0067749, 2.81475, -0.1046143, 2.81475, 1.0763359, 2.81475, 2.4198472, 2.81475, -4.961832
0.3319412, -0.0135958, 2.8215, -0.0209351, 2.8215, -1.0090942, 2.8215, -0.1043701, 2.8215, 1.1603054, 2.8215, 2.480916, 2.8215, -5.0076337
0.3327353, -0.0125887, 2.82825, -0.019104, 2.82825, -1.0074463, 2.82825, -0.1054688, 2.82825, 1.3358779, 2.82825, 2.3816793, 2.82825, -5.0610685
0.3335294, -0.0129244, 2.835, -0.0180054, 2.835, -1.006958, 2.835, -0.0966187, 2.835, 1.0687023, 2.835, 2.2671757, 2.835, -5.0229006
0.3343235, -0.0105745, 2.84175, -0.0152588, 2.84175, -1.0059204, 2.84175, -0.1012573, 2.84175, 1.0763359, 2.84175, 2.1526718, 2.84175, -5.0610685
0.3351176, -0.0105745, 2.8485, -0.0145874, 2.8485, -1.0056152, 2.8485, -0.0987549, 2.8485, 1.1832061, 2.8485, 2.4427481, 2.8485, -4.7633586
0.3359118, -0.0099031, 2.85525, -0.0216675, 2.85525, -1.0066528, 2.85525, -0.1010132, 2.85525, 1.1603054, 2.85525, 2.7175572, 2.85525, -4.9083967
0.3367059, -0.0070497, 2.862, -0.0266724, 2.862, -1.0049438, 2.862, -0.1008301, 2.862, 1.2442749, 2.862, 3.1908398, 2.862, -4.8320613
0.3375, -0.0041962, 2.86875, -0.0236206, 2.86875, -1.0053711, 2.86875, -0.1000977, 2.86875, 1.1374046, 2.86875, 3.1374047, 2.86875, -4.7328243
0.3382941, -0.0038605, 2.8755, -0.0223389, 2.8755, -1.0046997, 2.8755, -0.1035156, 2.8755, 0.9694657, 2.8755, 2.961832, 2.8755, -4.6717558
0.3390882, -0.005539, 2.88225, -0.0234985, 2.88225, -1.008728, 2.88225, -0.1026611, 2.88225, 1.0458015, 2.88225, 3.0610688, 2.88225, -4.5954199
0.3398824, -0.0068818, 2.889, -0.0201416, 2.889, -1.0072021, 2.889, -0.1040039, 2.889, 1.1221374, 2.889, 2.961832, 2.889, -4.4503818
0.3406765, -0.0082246, 2.89575, -0.0199585, 2.89575, -1.0054932, 2.89575, -0.1046753, 2.89575, 1.1755725, 2.89575, 3.1908398, 2.89575, -4.5877862
0.3414706, -0.0072175, 2.9025, -0.0187378, 2.9025, -1.0038452, 2.9025, -0.1020508, 2.9025, 1, 2.9025, 3.129771, 2.9025, -4.4580154
0.3422647, -0.0146029, 2.90925, -0.0192871, 2.90925, -1.0026855, 2.90925, -0.1049194, 2.90925, 1.0152671, 2.90925, 3.0839694, 2.90925, -4.4656487
0.3430588, -0.0135958, 2.916, -0.0181274, 2.916, -1.0039062, 2.916, -0.1026611, 2.916, 1.0076336, 2.916, 3.1145039, 2.916, -4.4274807
0.3438529, -0.012253, 2.92275, -0.0188599, 2.92275, -1.0066528, 2.92275, -0.1039429, 2.92275, 0.9312977, 2.92275, 3.221374, 2.92275, -4.4427481
0.3446471, -0.0151064, 2.9295, -0.0196533, 2.9295, -1.0046387, 2.9295, -0.1055908, 2.9295, 0.9312977, 2.9295, 3.2290077, 2.9295, -4.4274807
0.3454412, -0.0176242, 2.93625, -0.0232544, 2.93625, -1.0064697, 2.93625, -0.1072388, 2.93625, 1.038168, 2.93625, 2.9770992, 2.93625, -4.3435116
0.3462353, -0.0152743, 2.943, -0.0213013, 2.943, -1.0065308, 2.943, -0.1085815, 2.943, 1.2290076, 2.943, 2.8091602, 2.943, -4.3969464
0.3470294, -0.0203098, 2.94975, -0.0189209, 2.94975, -1.0053711, 2.94975, -0.1072998, 2.94975, 1.0076336, 2.94975, 2.3435113, 2.94975, -4.2671757
0.3478235, -0.0223239, 2.9565, -0.0164185, 2.9565, -1.0076904, 2.9565, -0.1050415, 2.9565, 1.1145039, 2.9565, 2.2977099, 2.9565, -4.3587785
0.3486176, -0.0229953, 2.96325, -0.0177002, 2.96325, -1.0092773, 2.96325, -0.1040649, 2.96325, 1.3206106, 2.96325, 2.0305343, 2.96325, -4.3511453
0.3494118, -0.0226596, 2.97, -0.0146484, 2.97, -1.0091553, 2.97, -0.1077271, 2.97, 1.351145, 2.97, 2.1603053, 2.97, -4.2824426
0.3502059, -0.0159457, 2.97675, -0.0132446, 2.97675, -1.0095825, 2.97675, -0.0986938, 2.97675, 1.4580153, 2.97675, 1.5648855, 2.97675, -4.2519083
0.351, -0.0139315, 2.9835, -0.0111084, 2.9835, -1.0079956, 2.9835, -0.105957, 2.9835, 1.389313, 2.9835, 1.8167939, 2.9835, -4.259542
0.3517941, -0.0139315, 2.99025, -0.0143433, 2.99025, -1.0093384, 2.99025, -0.100647, 2.99025, 1.2671756, 2.99025, 2.038168, 2.99025, -4.0458016
0.3525882, -0.0072175, 2.997, -0.0165405, 2.997, -1.008606, 2.997, -0.1027832, 2.997, 1.1679389, 2.997, 2.5496182, 2.997, -3.9465649
0.3533824, -0.002182, 3.00375, -0.0186157, 3.00375, -1.0094604, 3.00375, -0.1035156, 3.00375, 1.3816794, 3.00375, 2.7251909, 3.00375, -3.9541984
0.3541765, -0.0018463, 3.0105, -0.0218506, 3.0105, -1.0111084, 3.0105, -0.1003418, 3.0105, 1.2442749, 3.0105, 2.5572519, 3.0105, -3.8549619
0.3549706, -0.0038605, 3.01725, -0.024353, 3.01725, -1.0092773, 3.01725, -0.1002808, 3.01725, 1.1603054, 3.01725, 2.5725191, 3.01725, -3.7099237
0.3557647, -0.0075532, 3.024, -0.0233765, 3.024, -1.0075684, 3.024, -0.100647, 3.024, 1.2977099, 3.024, 2.3358779, 3.024, -3.8320611
0.3565588, -0.0112459, 3.03075, -0.0176392, 3.03075, -1.0102539, 3.03075, -0.1013794, 3.03075, 1.3206106, 3.03075, 2.0839694, 3.03075, -3.6946564
0.3573529, -0.0109102, 3.0375, -0.017395, 3.0375, -1.0093384, 3.0375, -0.1004028, 3.0375, 1.351145, 3.0375, 2.1984732, 3.0375, -3.6793892
0.3581471, -0.0115816, 3.04425, -0.0219727, 3.04425, -1.0083618, 3.04425, -0.0999756, 3.04425, 1.259542, 3.04425, 2.2442749, 3.04425, -3.6870229
0.3589412, -0.0149386, 3.051, -0.0145874, 3.051, -1.0081177, 3.051, -0.1034546, 3.051, 1.091603, 3.051, 2.2748091, 3.051, -3.5801528
0.3597353, -0.0181277, 3.05775, -0.0153809, 3.05775, -1.008606, 3.05775, -0.0992432, 3.05775, 1.0763359, 3.05775, 2.3053436, 3.05775, -3.519084
0.3605294, -0.0206455, 3.0645, -0.0151978, 3.0645, -1.0100708, 3.0645, -0.0982666, 3.0645, 1.1832061, 3.0645, 2.2137403, 3.0645, -3.480916
0.3613235, -0.023331, 3.07125, -0.012085, 3.07125, -1.0090332, 3.07125, -0.0988159, 3.07125, 1.2900764, 3.07125, 2.2519083, 3.07125, -3.3435113
0.3621176, -0.0216526, 3.078, -0.0142212, 3.078, -1.0085449, 3.078, -0.1002808, 3.078, 1.1832061, 3.078, 2.1603053, 3.078, -3.3358779
0.3629118, -0.0229953, 3.08475, -0.0195312, 3.08475, -1.006958, 3.08475, -0.1010742, 3.08475, 1.3358779, 3.08475, 1.8396946, 3.08475, -3.221374
0.3637059, -0.0231632, 3.0915, -0.0233154, 3.0915, -1.0082397, 3.0915, -0.1039429, 3.0915, 1.0763359, 3.0915, 1.5114504, 3.0915, -3.2290077
0.3645, -0.0243381, 3.09825, -0.019043, 3.09825, -1.0070801, 3.09825, -0.105896, 3.09825, 1.1908396, 3.09825, 1.3129771, 3.09825, -3.2061069
0.3652941, -0.0203098, 3.105, -0.0181885, 3.105, -1.0065918, 3.105, -0.1051636, 3.105, 1.1603054, 3.105, 1.1755725, 3.105, -3.3664122
0.3660882, -0.0176242, 3.11175, -0.0140991, 3.11175, -1.0064697, 3.11175, -0.1057129, 3.11175, 1.1679389, 3.11175, 1.221374, 3.11175, -3.3129771
0.3668824, -0.0216526, 3.1185, -0.0182495, 3.1185, -1.0058594, 3.1185, -0.1052856, 3.1185, 1.1908396, 3.1185, 1.0152671, 3.1185, -3.1984732
0.3676765, -0.0176242, 3.12525, -0.0194092, 3.12525, -1.0061646, 3.12525, -0.104126, 3.12525, 1.2442749, 3.12525, 1.0534351, 3.12525, -3.1755726
0.3684706, -0.0159457, 3.132, -0.0197144, 3.132, -1.0084229, 3.132, -0.1040039, 3.132, 1.221374, 3.132, 1.1450381, 3.132, -3.1374047
0.3692647, -0.0135958, 3.13875, -0.0230713, 3.13875, -1.0087891, 3.13875, -0.1021118, 3.13875, 1.1984733, 3.13875, 1.1068702, 3.13875, -3.2137403
0.3700588, -0.0105745, 3.1455, -0.0213623, 3.1455, -1.0120239, 3.1455, -0.1044922, 3.1455, 1.3816794, 3.1455, 0.9465649, 3.1455, -3.3435113
0.3708529, -0.0115816, 3.15225, -0.0217896, 3.15225, -1.0093384, 3.15225, -0.1043091, 3.15225, 1.4961832, 3.15225, 0.9923664, 3.15225, -3.1832061
0.3716471, -0.005539, 3.159, -0.0189209, 3.159, -1.0100098, 3.159, -0.1018677, 3.159, 1.5648855, 3.159, 1.0305344, 3.159, -3.2366412
0.3724412, -0.0068818, 3.16575, -0.0194092, 3.16575, -1.0085449, 3.16575, -0.1036377, 3.16575, 1.7328244, 3.16575, 0.9465649, 3.16575, -3.2442749
0.3732353, -0.008896, 3.1725, -0.0206909, 3.1725, -1.0080566, 3.1725, -0.1002197, 3.1725, 1.5877863, 3.1725, 0.9160305, 3.1725, -3.2519083
0.3740294, -0.0083925, 3.17925, -0.0206909, 3.17925, -1.0083618, 3.17925, -0.0999146, 3.17925, 1.6564885, 3.17925, 0.5877863, 3.17925, -3.2748091
0.3748235, -0.0112459, 3.186, -0.0200806, 3.186, -1.0114136, 3.186, -0.0991821, 3.186, 1.5877863, 3.186, 0.4732825, 3.186, -3.4122138
0.3756176, -0.0135958, 3.19275, -0.0230713, 3.19275, -1.008667, 3.19275, -0.1049194, 3.19275, 1.7175573, 3.19275, 0.3740458, 3.19275, -3.4045801
0.3764118, -0.0166171, 3.1995, -0.0263672, 3.1995, -1.0076904, 3.1995, -0.1019897, 3.1995, 1.5419847, 3.1995, 0.2519084, 3.1995, -3.5267177
0.3772059, -0.0198062, 3.20625, -0.0254517, 3.20625, -1.0077515, 3.20625, -0.1027832, 3.20625, 1.7022901, 3.20625, -0.0305344, 3.20625, -3.3053436
0.378, -0.0186313, 3.213, -0.0236816, 3.213, -1.0066528, 3.213, -0.1020508, 3.213, 1.6183206, 3.213, -0.129771, 3.213, -3.3358779
0.3787941, -0.0176242, 3.21975, -0.0212402, 3.21975, -1.0077515, 3.21975, -0.1030884, 3.21975, 1.778626, 3.21975, -0.2061069, 3.21975, -3.3282442
0.3795882, -0.0184634, 3.2265, -0.0162964, 3.2265, -1.0040283, 3.2265, -0.1032104, 3.2265, 1.7557251, 3.2265, -0.0992366, 3.2265, -3.4045801
0.3803824, -0.0169528, 3.23325, -0.0149536, 3.23325, -1.0066528, 3.23325, -0.1022339, 3.23325, 1.6641221, 3.23325, 0, 3.23325, -3.3435113
0.3811765, -0.0152743, 3.24, -0.0151978, 3.24, -1.0048828, 3.24, -0.0985718, 3.24, 1.648855, 3.24, 0.1755725, 3.24, -3.4045801
0.3819706, -0.0159457, 3.24675, -0.0147705, 3.24675, -1.0089111, 3.24675, -0.0995483, 3.24675, 1.5572519, 3.24675, 0.389313, 3.24675, -3.3740458
0.3827647, -0.0162814, 3.2535, -0.0178833, 3.2535, -1.007019, 3.2535, -0.0947876, 3.2535, 1.4503816, 3.2535, 0.7633588, 3.2535, -3.2519083
0.3835588, -0.0169528, 3.26025, -0.0178833, 3.26025, -1.0079346, 3.26025, -0.0946655, 3.26025, 1.4503816, 3.26025, 0.9007633, 3.26025, -3.5267177
0.3843529, -0.0152743, 3.267, -0.0162964, 3.267, -1.0074463, 3.267, -0.0946655, 3.267, 1.4732825, 3.267, 0.8396947, 3.267, -3.4351146
0.3851471, -0.0135958, 3.27375, -0.0188599, 3.27375, -1.0084229, 3.27375, -0.0980835, 3.27375, 1.4732825, 3.27375, 1.0610687, 3.27375, -3.4427481
0.3859412, -0.0135958, 3.2805, -0.0195312, 3.2805, -1.0057983, 3.2805, -0.0982666, 3.2805, 1.4961832, 3.2805, 1.1603054, 3.2805, -3.4351146
0.3867353, -0.0139315, 3.28725, -0.0194092, 3.28725, -1.0063477, 3.28725, -0.0978394, 3.28725, 1.3358779, 3.28725, 1.0992366, 3.28725, -3.3358779
0.3875294, -0.0166171, 3.294, -0.0172119, 3.294, -1.0059814, 3.294, -0.0985107, 3.294, 1.2290076, 3.294, 1.1603054, 3.294, -3.351145
0.3883235, -0.0139315, 3.30075, -0.0142822, 3.30075, -1.0014038, 3.30075, -0.0979004, 3.30075, 1.2137405, 3.30075, 1.3282443, 3.30075, -3.4274809
0.3891176, -0.0132601, 3.3075, -0.0140381, 3.3075, -1.0092773, 3.3075, -0.098877, 3.3075, 1.1908396, 3.3075, 1.6641221, 3.3075, -3.2900763
0.3899118, -0.0130922, 3.31425, -0.0125122, 3.31425, -1.0057983, 3.31425, -0.0968628, 3.31425, 1.3206106, 3.31425, 1.9160305, 3.31425, -3.2366412
0.3907059, -0.0135958, 3.321, -0.0123901, 3.321, -1.0039062, 3.321, -0.0987549, 3.321, 1.129771, 3.321, 2.0610688, 3.321, -3.2519083
0.3915, -0.0142672, 3.32775, -0.0131226, 3.32775, -1.0048828, 3.32775, -0.0992432, 3.32775, 1.0992366, 3.32775, 2.3053436, 3.32775, -3.038168
0.3922941, -0.0119173, 3.3345, -0.0127563, 3.3345, -1.0053101, 3.3345, -0.100708, 3.3345, 1.0839695, 3.3345, 2.610687, 3.3345, -3.1679389
0.3930882, -0.012253, 3.34125, -0.010437, 3.34125, -1.0072632, 3.34125, -0.0980225, 3.34125, 0.9007633, 3.34125, 2.5725191, 3.34125, -3.1374047
0.3938824, -0.014435, 3.348, -0.0099487, 3.348, -1.0081787, 3.348, -0.0979614, 3.348, 1.0076336, 3.348, 2.6946564, 3.348, -3.0839694
0.3946765, -0.0142672, 3.35475, -0.0110474, 3.35475, -1.0046997, 3.35475, -0.0982056, 3.35475, 0.7557252, 3.35475, 2.908397, 3.35475, -2.8931298
0.3954706, -0.01561, 3.3615, -0.012146, 3.3615, -1.0055542, 3.3615, -0.100647, 3.3615, 0.5725191, 3.3615, 2.9923663, 3.3615, -2.7709923
0.3962647, -0.0172885, 3.36825, -0.0078125, 3.36825, -1.0061035, 3.36825, -0.0965576, 3.36825, 0.5725191, 3.36825, 3.1145039, 3.36825, -2.7938931
0.3970588, -0.0149386, 3.375, -0.0058594, 3.375, -1.008667, 3.375, -0.0984497, 3.375, 0.6183206, 3.375, 3.1984732, 3.375, -2.7480917
0.3978529, -0.0162814, 3.38175, -0.0059814, 3.38175, -1.0064087, 3.38175, -0.0975342, 3.38175, 0.519084, 3.38175, 3.4045801, 3.38175, -2.7175572
0.3986471, -0.0179599, 3.3885, -0.0106201, 3.3885, -1.005188, 3.3885, -0.0946045, 3.3885, 0.3740458, 3.3885, 3.7938931, 3.3885, -2.7328243
0.3994412, -0.0203098, 3.39525, -0.0133057, 3.39525, -1.0074463, 3.39525, -0.0975952, 3.39525, 0.3664122, 3.39525, 4.1526718, 3.39525, -2.5725191
0.4002353, -0.0196384, 3.402, -0.0180054, 3.402, -1.0068359, 3.402, -0.0992432, 3.402, 0.5038168, 3.402, 4.1832061, 3.402, -2.5114503
0.4010294, -0.0169528, 3.40875, -0.0217285, 3.40875, -1.0073853, 3.40875, -0.0994873, 3.40875, 0.3969466, 3.40875, 4.1984735, 3.40875, -2.5267177
0.4018235, -0.0162814, 3.4155, -0.020874, 3.4155, -1.0090942, 3.4155, -0.1005249, 3.4155, 0.2290076, 3.4155, 4.1603055, 3.4155, -2.5801528
0.4026176, -0.0171206, 3.42225, -0.0222778, 3.42225, -1.0072632, 3.42225, -0.1011353, 3.42225, 0.1908397, 3.42225, 4.0458016, 3.42225, -2.4122138
0.4034118, -0.0206455, 3.429, -0.019104, 3.429, -1.0056763, 3.429, -0.0982056, 3.429, 0.2442748, 3.429, 4.1068702, 3.429, -2.3435113
0.4042059, -0.0176242, 3.43575, -0.0149536, 3.43575, -1.0078125, 3.43575, -0.0981445, 3.43575, 0.3206107, 3.43575, 4.038168, 3.43575, -2.2748091
0.405, -0.0162814, 3.4425, -0.0195312, 3.4425, -1.0026855, 3.4425, -0.1027222, 3.4425, 0.1984733, 3.4425, 4.221374, 3.4425, -2.4427481
0.4057941, -0.0151064, 3.44925, -0.0189209, 3.44925, -1.00354, 3.44925, -0.1008911, 3.44925, 0.0763359, 3.44925, 4.2290077, 3.44925, -2.3435113
0.4065882, -0.017792, 3.456, -0.0184326, 3.456, -1.0045166, 3.456, -0.1043091, 3.456, 0.259542, 3.456, 3.9694657, 3.456, -2.3358779
0.4073824, -0.0209812, 3.46275, -0.0220337, 3.46275, -1.0075073, 3.46275, -0.104187, 3.46275, 0.2366412, 3.46275, 3.6946564, 3.46275, -2.4427481
0.4081765, -0.0186313, 3.4695, -0.0239258, 3.4695, -1.0085449, 3.4695, -0.1030884, 3.4695, 0.3816794, 3.4695, 3.610687, 3.4695, -2.3435113
0.4089706, -0.0198062, 3.47625, -0.0231323, 3.47625, -1.0087891, 3.47625, -0.1036377, 3.47625, 0.1221374, 3.47625, 3.519084, 3.47625, -2.4198472
0.4097647, -0.0176242, 3.483, -0.0222778, 3.483, -1.0105591, 3.483, -0.1015625, 3.483, 0.2519084, 3.483, 3.1374047, 3.483, -2.4961832
0.4105588, -0.0151064, 3.48975, -0.0238647, 3.48975, -1.0116577, 3.48975, -0.102478, 3.48975, 0.3740458, 3.48975, 2.9160306, 3.48975, -2.4427481
0.4113529, -0.0149386, 3.4965, -0.0244141, 3.4965, -1.0128174, 3.4965, -0.1002197, 3.4965, 0.3587786, 3.4965, 2.7557251, 3.4965, -2.4732823
0.4121471, -0.0135958, 3.50325, -0.0281982, 3.50325, -1.0117798, 3.50325, -0.1010132, 3.50325, 0.2824427, 3.50325, 2.5343511, 3.50325, -2.259542
0.4129412, -0.0125887, 3.51, -0.0286255, 3.51, -1.0097046, 3.51, -0.1030273, 3.51, 0.3740458, 3.51, 2.2824428, 3.51, -2.3740458
0.4137353, -0.0135958, 3.51675, -0.0275269, 3.51675, -1.008667, 3.51675, -0.1014404, 3.51675, 0.610687, 3.51675, 2.0992367, 3.51675, -2.4351146
0.4145294, -0.0105745, 3.5235, -0.0274048, 3.5235, -1.0114136, 3.5235, -0.1040039, 3.5235, 0.648855, 3.5235, 1.908397, 3.5235, -2.4503818
0.4153235, -0.0102388, 3.53025, -0.0274048, 3.53025, -1.0090332, 3.53025, -0.1055908, 3.53025, 0.6717557, 3.53025, 1.6946565, 3.53025, -2.4351146
0.4161176, -0.0102388, 3.537, -0.0267944, 3.537, -1.0054932, 3.537, -0.1055908, 3.537, 0.6259542, 3.537, 1.6412214, 3.537, -2.648855
0.4169118, -0.0097353, 3.54375, -0.0273438, 3.54375, -1.0065308, 3.54375, -0.1065674, 3.54375, 0.7938932, 3.54375, 1.6412214, 3.54375, -2.5114503
0.4177059, -0.0058747, 3.5505, -0.022644, 3.5505, -1.0057373, 3.5505, -0.1062012, 3.5505, 0.740458, 3.5505, 1.351145, 3.5505, -2.7251909
0.4185, -0.005539, 3.55725, -0.0235596, 3.55725, -1.0031128, 3.55725, -0.1082153, 3.55725, 0.7709923, 3.55725, 1.3969465, 3.55725, -2.7175572
0.4192941, -0.0063783, 3.564, -0.0237427, 3.564, -1.0043335, 3.564, -0.1057129, 3.564, 0.870229, 3.564, 1.4122137, 3.564, -2.7862597
0.4200882, -0.0068818, 3.57075, -0.0213623, 3.57075, -1.0038452, 3.57075, -0.1045532, 3.57075, 0.9847328, 3.57075, 1.3206106, 3.57075, -2.6259542
0.4208824, -0.008896, 3.5775, -0.0230103, 3.5775, -1.0056152, 3.5775, -0.1015015, 3.5775, 0.8931298, 3.5775, 1.2061069, 3.5775, -2.6717558
0.4216765, -0.012253, 3.58425, -0.0239868, 3.58425, -1.0065308, 3.58425, -0.1032104, 3.58425, 0.8778626, 3.58425, 1.0076336, 3.58425, -2.6564887
0.4224706, -0.0117494, 3.591, -0.0250854, 3.591, -1.0079956, 3.591, -0.105896, 3.591, 0.8778626, 3.591, 0.8778626, 3.591, -2.7251909
0.4232647, -0.0105745, 3.59775, -0.0234375, 3.59775, -1.0080566, 3.59775, -0.1026001, 3.59775, 0.961832, 3.59775, 0.8091603, 3.59775, -2.7328243
0.4240588, -0.0085603, 3.6045, -0.0246582, 3.6045, -1.0078735, 3.6045, -0.1047363, 3.6045, 0.8854962, 3.6045, 0.6946565, 3.6045, -2.740458
0.4248529, -0.012253, 3.61125, -0.0249634, 3.61125, -1.008606, 3.61125, -0.1027832, 3.61125, 1.0687023, 3.61125, 0.4961832, 3.61125, -2.8625953
0.4256471, -0.0149386, 3.618, -0.0263062, 3.618, -1.0071411, 3.618, -0.1039429, 3.618, 0.870229, 3.618, 0.4427481, 3.618, -2.8778627
0.4264412, -0.0129244, 3.62475, -0.0251465, 3.62475, -1.0072021, 3.62475, -0.1053467, 3.62475, 0.8396947, 3.62475, 0.4732825, 3.62475, -2.7175572
0.4272353, -0.0142672, 3.6315, -0.026062, 3.6315, -1.0074463, 3.6315, -0.1039429, 3.6315, 1.0839695, 3.6315, 0.5038168, 3.6315, -2.9541984
0.4280294, -0.0179599, 3.63825, -0.0263672, 3.63825, -1.0081177, 3.63825, -0.1021729, 3.63825, 1.1603054, 3.63825, 0.4503817, 3.63825, -2.8625953
0.4288235, -0.018967, 3.645, -0.0251465, 3.645, -1.006897, 3.645, -0.1032715, 3.645, 1.0687023, 3.645, 0.3129771, 3.645, -2.9770992
0.4296176, -0.0203098, 3.65175, -0.0231323, 3.65175, -1.0066528, 3.65175, -0.1026001, 3.65175, 1, 3.65175, 0.4045801, 3.65175, -2.9236641
0.4304118, -0.0172885, 3.6585, -0.020752, 3.6585, -1.0073242, 3.6585, -0.1037598, 3.6585, 1.1526718, 3.6585, 0.5038168, 3.6585, -2.8778627
0.4312059, -0.0162814, 3.66525, -0.0211182, 3.66525, -1.0063477, 3.66525, -0.1033325, 3.66525, 1.1603054, 3.66525, 0.6183206, 3.66525, -2.7938931
0.432, -0.017792, 3.672, -0.0192261, 3.672, -1.0073242, 3.672, -0.1026611, 3.672, 1.1068702, 3.672, 0.7557252, 3.672, -2.9541984
0.4327941, -0.0182956, 3.67875, -0.0179443, 3.67875, -1.0075684, 3.67875, -0.1027222, 3.67875, 1.1755725, 3.67875, 1.0687023, 3.67875, -2.8396947
0.4335882, -0.0208133, 3.6855, -0.0219727, 3.6855, -1.0073242, 3.6855, -0.1044922, 3.6855, 1.0839695, 3.6855, 1.0305344, 3.6855, -2.8854961
0.4343824, -0.0154421, 3.69225, -0.022644, 3.69225, -1.0093384, 3.69225, -0.1026611, 3.69225, 1.0229008, 3.69225, 1.3664122, 3.69225, -2.7175572
0.4351765, -0.01561, 3.699, -0.0241089, 3.699, -1.0080566, 3.699, -0.102417, 3.699, 0.9770992, 3.699, 1.1068702, 3.699, -2.9694657
0.4359706, -0.0146029, 3.70575, -0.0228882, 3.70575, -1.0089722, 3.70575, -0.1021729, 3.70575, 0.9694657, 3.70575, 0.9770992, 3.70575, -2.908397
0.4367647, -0.0115816, 3.7125, -0.0204468, 3.7125, -1.0085449, 3.7125, -0.1003418, 3.7125, 1, 3.7125, 1.0839695, 3.7125, -2.8625953
0.4375588, -0.0132601, 3.71925, -0.0223389, 3.71925, -1.0092163, 3.71925, -0.1021729, 3.71925, 0.9541985, 3.71925, 0.9389313, 3.71925, -2.9236641
0.4383529, -0.0119173, 3.726, -0.0223389, 3.726, -1.0101318, 3.726, -0.1040039, 3.726, 1.0152671, 3.726, 0.7633588, 3.726, -2.8244274
0.4391471, -0.0129244, 3.73275, -0.0150146, 3.73275, -1.0085449, 3.73275, -0.1054077, 3.73275, 1.1374046, 3.73275, 0.9541985, 3.73275, -2.7633588
0.4399412, -0.012253, 3.7395, -0.0182495, 3.7395, -1.006958, 3.7395, -0.1016846, 3.7395, 1.0687023, 3.7395, 0.9694657, 3.7395, -2.9007633
0.4407353, -0.0142672, 3.74625, -0.0230713, 3.74625, -1.0073242, 3.74625, -0.1016235, 3.74625, 0.9847328, 3.74625, 1.091603, 3.74625, -2.9236641
0.4415294, -0.0137636, 3.753, -0.0228882, 3.753, -1.0060425, 3.753, -0.1019287, 3.753, 0.8854962, 3.753, 0.9770992, 3.753, -2.6870229
0.4423235, -0.011078, 3.75975, -0.0224609, 3.75975, -1.0079346, 3.75975, -0.0994263, 3.75975, 0.9847328, 3.75975, 0.8015267, 3.75975, -2.8015268
0.4431176, -0.0129244, 3.7665, -0.020813, 3.7665, -1.0062866, 3.7665, -0.100708, 3.7665, 1.1679389, 3.7665, 1.0076336, 3.7665, -2.6946564
0.4439118, -0.014435, 3.77325, -0.0215454, 3.77325, -1.0078125, 3.77325, -0.1010742, 3.77325, 1, 3.77325, 1.1450381, 3.77325, -2.7175572
0.4447059, -0.0137636, 3.78, -0.0224609, 3.78, -1.0075684, 3.78, -0.1010742, 3.78, 0.9770992, 3.78, 1.0458015, 3.78, -2.7175572
0.4455, -0.01561, 3.78675, -0.0210571, 3.78675, -1.0059814, 3.78675, -0.1020508, 3.78675, 0.7938932, 3.78675, 1.129771, 3.78675, -2.6564887
0.4462941, -0.01561, 3.7935, -0.0239868, 3.7935, -1.0078125, 3.7935, -0.1016846, 3.7935, 0.7862595, 3.7935, 1.2519084, 3.7935, -2.7862597
0.4470882, -0.0196384, 3.80025, -0.0219727, 3.80025, -1.0060425, 3.80025, -0.1015015, 3.80025, 0.7709923, 3.80025, 1.2824427, 3.80025, -2.7099237
0.4478824, -0.0204776, 3.807, -0.0239258, 3.807, -1.0056763, 3.807, -0.1016235, 3.807, 0.8778626, 3.807, 1.259542, 3.807, -2.6717558
0.4486765, -0.0164492, 3.81375, -0.0222778, 3.81375, -1.0054932, 3.81375, -0.1014404, 3.81375, 0.7633588, 3.81375, 1.259542, 3.81375, -2.7251909
0.4494706, -0.0115816, 3.8205, -0.0235596, 3.8205, -1.0050659, 3.8205, -0.1005859, 3.8205, 0.7709923, 3.8205, 1.1908396, 3.8205, -2.7480917
0.4502647, -0.0105745, 3.82725, -0.0232544, 3.82725, -1.0060425, 3.82725, -0.1011353, 3.82725, 0.6870229, 3.82725, 1.3740458, 3.82725, -2.6870229
0.4510588, -0.0109102, 3.834, -0.0214844, 3.834, -1.0059204, 3.834, -0.100769, 3.834, 0.6870229, 3.834, 1.2671756, 3.834, -2.6641221
0.4518529, -0.0114137, 3.84075, -0.0247192, 3.84075, -1.0046387, 3.84075, -0.1035156, 3.84075, 0.6030535, 3.84075, 1.2900764, 3.84075, -2.8625953
0.4526471, -0.0082246, 3.8475, -0.0228271, 3.8475, -1.0089722, 3.8475, -0.1012573, 3.8475, 0.778626, 3.8475, 1.2900764, 3.8475, -2.8396947
0.4534412, -0.0085603, 3.85425, -0.024292, 3.85425, -1.0053711, 3.85425, -0.1038818, 3.85425, 0.7938932, 3.85425, 1.2519084, 3.85425, -2.9236641
0.4542353, -0.0117494, 3.861, -0.024231, 3.861, -1.0061646, 3.861, -0.104248, 3.861, 0.7709923, 3.861, 1.2366412, 3.861, -2.7328243
0.4550294, -0.0176242, 3.86775, -0.0272217, 3.86775, -1.007019, 3.86775, -0.102478, 3.86775, 0.8625954, 3.86775, 1.1374046, 3.86775, -2.6641221
0.4558235, -0.0203098, 3.8745, -0.0283813, 3.8745, -1.0084229, 3.8745, -0.102417, 3.8745, 0.648855, 3.8745, 1.0458015, 3.8745, -2.8244274
0.4566176, -0.0199741, 3.88125, -0.0278931, 3.88125, -1.0085449, 3.88125, -0.1033325, 3.88125, 0.9389313, 3.88125, 0.9694657, 3.88125, -2.8625953
0.4574118, -0.0198062, 3.888, -0.0292969, 3.888, -1.0067139, 3.888, -0.1057129, 3.888, 0.8931298, 3.888, 0.9007633, 3.888, -2.8320611
0.4582059, -0.0179599, 3.89475, -0.0283203, 3.89475, -1.008606, 3.89475, -0.1052856, 3.89475, 0.8549618, 3.89475, 0.9160305, 3.89475, -2.7633588
0.459, -0.0196384, 3.9015, -0.026123, 3.9015, -1.0100098, 3.9015, -0.1063843, 3.9015, 1.0763359, 3.9015, 0.7938932, 3.9015, -2.908397
0.4597941, -0.0216526, 3.90825, -0.0274048, 3.90825, -1.0106812, 3.90825, -0.1056519, 3.90825, 1.038168, 3.90825, 0.8091603, 3.90825, -2.961832
0.4605882, -0.0203098, 3.915, -0.0267944, 3.915, -1.0087891, 3.915, -0.1072998, 3.915, 1.129771, 3.915, 0.8167939, 3.915, -2.908397
0.4613824, -0.0223239, 3.92175, -0.0265503, 3.92175, -1.0083008, 3.92175, -0.1077271, 3.92175, 1.091603, 3.92175, 0.740458, 3.92175, -2.9923663
0.4621765, -0.0218204, 3.9285, -0.0263062, 3.9285, -1.0053711, 3.9285, -0.1046143, 3.9285, 1.0687023, 3.9285, 0.480916, 3.9285, -2.9847329
0.4629706, -0.0229953, 3.93525, -0.0279541, 3.93525, -1.0076904, 3.93525, -0.1051636, 3.93525, 1.1068702, 3.93525, 0.2290076, 3.93525, -3.0992367
0.4637647, -0.0236667, 3.942, -0.0263062, 3.942, -1.0050049, 3.942, -0.1014404, 3.942, 1.0458015, 3.942, 0.2061069, 3.942, -3.0839694
0.4645588, -0.0219883, 3.94875, -0.0254517, 3.94875, -1.0050659, 3.94875, -0.1019897, 3.94875, 1.0458015, 3.94875, 0.259542, 3.94875, -3.1603053
0.4653529, -0.0203098, 3.9555, -0.0255127, 3.9555, -1.0057983, 3.9555, -0.0992432, 3.9555, 0.9770992, 3.9555, 0.3282443, 3.9555, -3.1374047
0.4661471, -0.0193027, 3.96225, -0.0270996, 3.96225, -1.0055542, 3.96225, -0.0998535, 3.96225, 1.2137405, 3.96225, 0.3740458, 3.96225, -3.2061069
0.4669412, -0.0182956, 3.969, -0.0245972, 3.969, -1.0075073, 3.969, -0.1020508, 3.969, 1.0763359, 3.969, 0.4503817, 3.969, -3.1908398
0.4677353, -0.0176242, 3.97575, -0.0268555, 3.97575, -1.0070801, 3.97575, -0.0999756, 3.97575, 1.1145039, 3.97575, 0.6412213, 3.97575, -3.2366412
0.4685294, -0.0139315, 3.9825, -0.0255737, 3.9825, -1.0058594, 3.9825, -0.1027832, 3.9825, 1.1526718, 3.9825, 0.6259542, 3.9825, -3.2900763
0.4693235, -0.0129244, 3.98925, -0.0263062, 3.98925, -1.0076294, 3.98925, -0.1030273, 3.98925, 0.9236641, 3.98925, 0.6946565, 3.98925, -3.2977099
0.4701176, -0.0152743, 3.996, -0.024353, 3.996, -1.0082397, 3.996, -0.1027832, 3.996, 1.1145039, 3.996, 0.5419847, 3.996, -3.2519083
0.4709118, -0.0142672, 4.00275, -0.0244141, 4.00275, -1.0074463, 4.00275, -0.1017456, 4.00275, 1.2671756, 4.00275, 0.7480916, 4.00275, -3.2137403
0.4717059, -0.0085603, 4.0095, -0.0218506, 4.0095, -1.0095215, 4.0095, -0.1002197, 4.0095, 1.1145039, 4.0095, 0.7862595, 4.0095, -3.1526718
0.4725, -0.0097353, 4.01625, -0.022644, 4.01625, -1.0071411, 4.01625, -0.1022339, 4.01625, 1.1755725, 4.01625, 0.8473282, 4.01625, -3.3129771
0.4732941, -0.0085603, 4.023, -0.0236206, 4.023, -1.0079956, 4.023, -0.1018066, 4.023, 0.9923664, 4.023, 0.8473282, 4.023, -3.3053436
0.4740882, -0.0062104, 4.02975, -0.0253296, 4.02975, -1.0042725, 4.02975, -0.0994263, 4.02975, 0.9847328, 4.02975, 0.6793893, 4.02975, -3.3435113
0.4748824, -0.008896, 4.0365, -0.0258179, 4.0365, -1.0055542, 4.0365, -0.1010742, 4.0365, 0.9312977, 4.0365, 0.6793893, 4.0365, -3.3206108
0.4756765, -0.0102388, 4.04325, -0.0240479, 4.04325, -1.0055542, 4.04325, -0.1035156, 4.04325, 0.9160305, 4.04325, 0.3816794, 4.04325, -3.4045801
0.4764706, -0.0115816, 4.05, -0.0231323, 4.05, -1.0087891, 4.05, -0.1033936, 4.05, 1.0305344, 4.05, 0.1068702, 4.05, -3.4503818
0.4772647, -0.0139315, 4.05675, -0.0215454, 4.05675, -1.0095825, 4.05675, -0.0993042, 4.05675, 0.9389313, 4.05675, 0.1832061, 4.05675, -3.3358779
0.4780588, -0.0112459, 4.0635, -0.0206299, 4.0635, -1.0076294, 4.0635, -0.1015625, 4.0635, 0.8244275, 4.0635, 0.5114504, 4.0635, -3.2442749
0.4788529, -0.0082246, 4.07025, -0.0219116, 4.07025, -1.0078125, 4.07025, -0.1047974, 4.07025, 0.8931298, 4.07025, 0.519084, 4.07025, -3.2900763
0.4796471, -0.0075532, 4.077, -0.0216675, 4.077, -1.0050049, 4.077, -0.1008911, 4.077, 0.6717557, 4.077, 0.5343512, 4.077, -3.2366412
0.4804412, -0.011078, 4.08375, -0.0249023, 4.08375, -1.0091553, 4.08375, -0.1035156, 4.08375, 0.778626, 4.08375, 0.7557252, 4.08375, -3.259542
0.4812353, -0.0115816, 4.0905, -0.0234375, 4.0905, -1.0072632, 4.0905, -0.1016235, 4.0905, 0.8625954, 4.0905, 0.9007633, 4.0905, -3.3664122
0.4820294, -0.0125887, 4.09725, -0.0247803, 4.09725, -1.0059204, 4.09725, -0.1022949, 4.09725, 0.7557252, 4.09725, 0.7022901, 4.09725, -3.4198472
0.4828235, -0.0169528, 4.104, -0.0211182, 4.104, -1.0048218, 4.104, -0.1036377, 4.104, 0.8244275, 4.104, 0.740458, 4.104, -3.3206108
0.4836176, -0.0139315, 4.11075, -0.0227661, 4.11075, -1.0054321, 4.11075, -0.104248, 4.11075, 0.7862595, 4.11075, 0.9160305, 4.11075, -3.3206108
0.4844118, -0.0102388, 4.1175, -0.0235596, 4.1175, -1.0071411, 4.1175, -0.1044922, 4.1175, 0.6717557, 4.1175, 0.8931298, 4.1175, -3.4122138
0.4852059, -0.0117494, 4.12425, -0.022583, 4.12425, -1.005249, 4.12425, -0.1047363, 4.12425, 0.7938932, 4.12425, 0.8015267, 4.12425, -3.4732823
0.486, -0.012253, 4.131, -0.0241699, 4.131, -1.0058594, 4.131, -0.1051636, 4.131, 0.8396947, 4.131, 0.7480916, 4.131, -3.5267177
0.4867941, -0.0135958, 4.13775, -0.0239258, 4.13775, -1.0073853, 4.13775, -0.1037598, 4.13775, 0.8778626, 4.13775, 0.5877863, 4.13775, -3.4351146
0.4875882, -0.01561, 4.1445, -0.0276489, 4.1445, -1.0078125, 4.1445, -0.1074829, 4.1445, 0.9923664, 4.1445, 0.5114504, 4.1445, -3.4656489
0.4883824, -0.0149386, 4.15125, -0.0245361, 4.15125, -1.0061035, 4.15125, -0.1063232, 4.15125, 0.9770992, 4.15125, 0.7633588, 4.15125, -3.5496182
0.4891765, -0.0142672, 4.158, -0.0248413, 4.158, -1.007019, 4.158, -0.1073608, 4.158, 1.0229008, 4.158, 0.6946565, 4.158, -3.351145
0.4899706, -0.0182956, 4.16475, -0.0231934, 4.16475, -1.0072632, 4.16475, -0.104126, 4.16475, 0.9541985, 4.16475, 0.7709923, 4.16475, -3.5343511
0.4907647, -0.0169528, 4.1715, -0.0246582, 4.1715, -1.0078735, 4.1715, -0.1034546, 4.1715, 1.1374046, 4.1715, 0.7480916, 4.1715, -3.5648854
0.4915588, -0.0146029, 4.17825, -0.026062, 4.17825, -1.0088501, 4.17825, -0.1037598, 4.17825, 1.1832061, 4.17825, 0.6793893, 4.17825, -3.5877862
0.4923529, -0.0142672, 4.185, -0.0252075, 4.185, -1.0087891, 4.185, -0.1051636, 4.185, 1.1450381, 4.185, 0.6412213, 4.185, -3.4885497
0.4931471, -0.0152743, 4.19175, -0.026001, 4.19175, -1.0075073, 4.19175, -0.1064453, 4.19175, 1.1526718, 4.19175, 0.5725191, 4.19175, -3.480916
0.4939412, -0.0167849, 4.1985, -0.0237427, 4.1985, -1.0084229, 4.1985, -0.1045532, 4.1985, 1.0839695, 4.1985, 0.5419847, 4.1985, -3.519084
0.4947353, -0.0137636, 4.20525, -0.0238037, 4.20525, -1.008606, 4.20525, -0.1035767, 4.20525, 1.1068702, 4.20525, 0.3969466, 4.20525, -3.610687
0.4955294, -0.0162814, 4.212, -0.0201416, 4.212, -1.0060425, 4.212, -0.1000366, 4.212, 1, 4.212, 0.4198473, 4.212, -3.4122138
0.4963235, -0.0169528, 4.21875, -0.0187378, 4.21875, -1.0054932, 4.21875, -0.0991821, 4.21875, 1.091603, 4.21875, 0.6717557, 4.21875, -3.5419848
0.4971176, -0.0149386, 4.2255, -0.0177612, 4.2255, -1.0024414, 4.2255, -0.1018066, 4.2255, 1.2061069, 4.2255, 0.6870229, 4.2255, -3.480916
0.4979118, -0.0162814, 4.23225, -0.0210571, 4.23225, -1.0039673, 4.23225, -0.1013184, 4.23225, 1.1068702, 4.23225, 0.9312977, 4.23225, -3.4274809
0.4987059, -0.0147707, 4.239, -0.0217896, 4.239, -1.0045166, 4.239, -0.1043091, 4.239, 1.0992366, 4.239, 1.091603, 4.239, -3.6870229
0.4995, -0.0162814, 4.24575, -0.0205078, 4.24575, -1.0068359, 4.24575, -0.1035156, 4.24575, 1, 4.24575, 1.1526718, 4.24575, -3.3816793
0.5002941, -0.0135958, 4.2525, -0.0234985, 4.2525, -1.0066528, 4.2525, -0.0993652, 4.2525, 0.9694657, 4.2525, 1.1221374, 4.2525, -3.2442749
0.5010882, -0.0132601, 4.25925, -0.0199585, 4.25925, -1.0054932, 4.25925, -0.1035767, 4.25925, 0.8167939, 4.25925, 0.9389313, 4.25925, -3.2442749
0.5018824, -0.012253, 4.266, -0.0198364, 4.266, -1.0040894, 4.266, -0.1051025, 4.266, 0.8625954, 4.266, 0.9694657, 4.266, -3.2671757
0.5026765, -0.0119173, 4.27275, -0.0198364, 4.27275, -1.0063477, 4.27275, -0.1027832, 4.27275, 0.8931298, 4.27275, 1.1679389, 4.27275, -3.3129771
0.5034706, -0.014435, 4.2795, -0.0209351, 4.2795, -1.0067139, 4.2795, -0.1055298, 4.2795, 1.0229008, 4.2795, 1.0687023, 4.2795, -3.2137403
0.5042647, -0.0139315, 4.28625, -0.0198975, 4.28625, -1.0080566, 4.28625, -0.1022949, 4.28625, 0.6641222, 4.28625, 1.0839695, 4.28625, -3.1679389
0.5050588, -0.0169528, 4.293, -0.0209351, 4.293, -1.0064087, 4.293, -0.1008911, 4.293, 0.7633588, 4.293, 1.2366412, 4.293, -3.2519083
0.5058529, -0.0186313, 4.29975, -0.0206909, 4.29975, -1.0093994, 4.29975, -0.1029053, 4.29975, 0.778626, 4.29975, 1.1984733, 4.29975, -3.2061069
0.5066471, -0.0182956, 4.3065, -0.0245361, 4.3065, -1.0098877, 4.3065, -0.1002197, 4.3065, 0.7328244, 4.3065, 1.2442749, 4.3065, -3.1832061
0.5074412, -0.0209812, 4.31325, -0.0263062, 4.31325, -1.0075684, 4.31325, -0.1011963, 4.31325, 0.8396947, 4.31325, 0.9541985, 4.31325, -3.2519083
0.5082353, -0.0198062, 4.32, -0.0261841, 4.32, -1.0073242, 4.32, -0.104248, 4.32, 0.6793893, 4.32, 1.0610687, 4.32, -3.3816793
0.5090294, -0.0196384, 4.32675, -0.0215454, 4.32675, -1.0080566, 4.32675, -0.1043091, 4.32675, 0.740458, 4.32675, 0.9847328, 4.32675, -3.2137403
0.5098235, -0.0204776, 4.3335, -0.0188599, 4.3335, -1.0079956, 4.3335, -0.1022339, 4.3335, 0.519084, 4.3335, 0.7938932, 4.3335, -3.3053436
0.5106176, -0.0179599, 4.34025, -0.0197144, 4.34025, -1.0100098, 4.34025, -0.1013184, 4.34025, 0.6259542, 4.34025, 0.8015267, 4.34025, -3.3129771
0.5114118, -0.0117494, 4.347, -0.0200195, 4.347, -1.0072021, 4.347, -0.1030884, 4.347, 0.7099237, 4.347, 0.8931298, 4.347, -3.3740458
0.5122059, -0.0119173, 4.35375, -0.0217896, 4.35375, -1.007019, 4.35375, -0.1027222, 4.35375, 0.6946565, 4.35375, 1.1908396, 4.35375, -3.1450381
0.513, -0.0115816, 4.3605, -0.0205078, 4.3605, -1.0072021, 4.3605, -0.107666, 4.3605, 0.6717557, 4.3605, 1.259542, 4.3605, -3.2671757
0.5137941, -0.0125887, 4.36725, -0.0213013, 4.36725, -1.003418, 4.36725, -0.1045532, 4.36725, 0.7480916, 4.36725, 1.0534351, 4.36725, -3.1984732
0.5145882, -0.014435, 4.374, -0.0245972, 4.374, -1.0056152, 4.374, -0.1044922, 4.374, 0.7709923, 4.374, 1.0305344, 4.374, -3.3435113
0.5153824, -0.0119173, 4.38075, -0.0285034, 4.38075, -1.0072632, 4.38075, -0.1071777, 4.38075, 0.6717557, 4.38075, 0.9236641, 4.38075, -3.2442749
0.5161765, -0.0115816, 4.3875, -0.0258179, 4.3875, -1.0072632, 4.3875, -0.1069946, 4.3875, 0.7175573, 4.3875, 0.8244275, 4.3875, -3.2442749
0.5169706, -0.0119173, 4.39425, -0.0233154, 4.39425, -1.0081787, 4.39425, -0.1035156, 4.39425, 0.7633588, 4.39425, 0.7099237, 4.39425, -3.4045801
0.5177647, -0.0139315, 4.401, -0.0247192, 4.401, -1.0064087, 4.401, -0.104187, 4.401, 0.8549618, 4.401, 0.8091603, 4.401, -3.3740458
0.5185588, -0.0149386, 4.40775, -0.0254517, 4.40775, -1.0067139, 4.40775, -0.1071167, 4.40775, 0.7557252, 4.40775, 0.6946565, 4.40775, -3.4351146
0.5193529, -0.0124208, 4.4145, -0.0238647, 4.4145, -1.0079346, 4.4145, -0.1049805, 4.4145, 0.9389313, 4.4145, 0.7862595, 4.4145, -3.3664122
0.5201471, -0.0102388, 4.42125, -0.0241699, 4.42125, -1.0054932, 4.42125, -0.1049805, 4.42125, 0.7633588, 4.42125, 0.7099237, 4.42125, -3.4122138
0.5209412, -0.0068818, 4.428, -0.0213623, 4.428, -1.0056152, 4.428, -0.1038208, 4.428, 0.9312977, 4.428, 1.0229008, 4.428, -3.2900763
0.5217353, -0.0099031, 4.43475, -0.0219727, 4.43475, -1.0057983, 4.43475, -0.1052246, 4.43475, 0.7633588, 4.43475, 0.9923664, 4.43475, -3.2061069
0.5225294, -0.0139315, 4.4415, -0.0233154, 4.4415, -1.007019, 4.4415, -0.1014404, 4.4415, 0.7938932, 4.4415, 1.1679389, 4.4415, -3.221374
0.5233235, -0.0130922, 4.44825, -0.0202026, 4.44825, -1.0076904, 4.44825, -0.1052246, 4.44825, 0.7251908, 4.44825, 1.0458015, 4.44825, -3.4427481
0.5241176, -0.0159457, 4.455, -0.0223999, 4.455, -1.0061035, 4.455, -0.1046753, 4.455, 0.8244275, 4.455, 0.9847328, 4.455, -3.2900763
0.5249118, -0.0172885, 4.46175, -0.0245361, 4.46175, -1.0067749, 4.46175, -0.1034546, 4.46175, 0.740458, 4.46175, 0.8167939, 4.46175, -3.259542
0.5257059, -0.0135958, 4.4685, -0.0227661, 4.4685, -1.0089111, 4.4685, -0.1030884, 4.4685, 0.7633588, 4.4685, 0.5725191, 4.4685, -3.2900763
0.5265, -0.0132601, 4.47525, -0.0218506, 4.47525, -1.0061646, 4.47525, -0.1019897, 4.47525, 0.6641222, 4.47525, 0.5648855, 4.47525, -3.3358779
0.5272941, -0.014435, 4.482, -0.0216064, 4.482, -1.0084839, 4.482, -0.1025391, 4.482, 0.7633588, 4.482, 0.4427481, 4.482, -3.3053436
0.5280882, -0.0142672, 4.48875, -0.0220337, 4.48875, -1.0083008, 4.48875, -0.1025391, 4.48875, 0.870229, 4.48875, 0.5114504, 4.48875, -3.3282442
0.5288824, -0.0129244, 4.4955, -0.0222168, 4.4955, -1.0067749, 4.4955, -0.1028442, 4.4955, 0.7328244, 4.4955, 0.610687, 4.4955, -3.2671757
0.5296765, -0.0135958, 4.50225, -0.0211792, 4.50225, -1.007019, 4.50225, -0.1038208, 4.50225, 0.8091603, 4.50225, 0.7175573, 4.50225, -3.4122138
0.5304706, -0.012253, 4.509, -0.0247192, 4.509, -1.0056152, 4.509, -0.1028442, 4.509, 0.7633588, 4.509, 0.740458, 4.509, -3.3740458
0.5312647, -0.0115816, 4.51575, -0.0245972, 4.51575, -1.008667, 4.51575, -0.104248, 4.51575, 0.519084, 4.51575, 0.8244275, 4.51575, -3.3206108
0.5320588, -0.0092317, 4.5225, -0.0254517, 4.5225, -1.0061035, 4.5225, -0.1068115, 4.5225, 0.7709923, 4.5225, 0.8549618, 4.5225, -3.3053436
0.5328529, -0.0104067, 4.52925, -0.0202637, 4.52925, -1.0076904, 4.52925, -0.1085205, 4.52925, 0.7557252, 4.52925, 0.9847328, 4.52925, -3.3129771
0.5336471, -0.012253, 4.536, -0.0216675, 4.536, -1.0078125, 4.536, -0.1098633, 4.536, 0.7938932, 4.536, 0.8931298, 4.536, -3.1221373
0.5344412, -0.0135958, 4.54275, -0.0202026, 4.54275, -1.0050049, 4.54275, -0.1074219, 4.54275, 0.8015267, 4.54275, 0.9923664, 4.54275, -3.1068702
0.5352353, -0.0146029, 4.5495, -0.0200806, 4.5495, -1.0074463, 4.5495, -0.1079712, 4.5495, 0.6717557, 4.5495, 1.2824427, 4.5495, -3.1832061
0.5360294, -0.0146029, 4.55625, -0.0231323, 4.55625, -1.0053711, 4.55625, -0.1071167, 4.55625, 0.9770992, 4.55625, 1.221374, 4.55625, -3.1908398
0.5368235, -0.0125887, 4.563, -0.0238037, 4.563, -1.0084839, 4.563, -0.1044312, 4.563, 0.8244275, 4.563, 1.0839695, 4.563, -3.2519083
0.5376176, -0.0124208, 4.56975, -0.0262451, 4.56975, -1.005249, 4.56975, -0.1038818, 4.56975, 0.6946565, 4.56975, 0.9389313, 4.56975, -3.1679389
0.5384118, -0.0139315, 4.5765, -0.0267944, 4.5765, -1.0054932, 4.5765, -0.1063232, 4.5765, 0.8625954, 4.5765, 0.7175573, 4.5765, -3.3206108
0.5392059, -0.0159457, 4.58325, -0.0214233, 4.58325, -1.0056152, 4.58325, -0.1029663, 4.58325, 0.9770992, 4.58325, 0.4885496, 4.58325, -3.4198472
0.54, -0.0171206, 4.59, -0.0218506, 4.59, -1.0061035, 4.59, -0.1043091, 4.59, 0.908397, 4.59, 0.3358779, 4.59, -3.2671757
0.5407941, -0.0167849, 4.59675, -0.0231934, 4.59675, -1.0083618, 4.59675, -0.1047974, 4.59675, 0.8091603, 4.59675, 0.4503817, 4.59675, -3.259542
0.5415882, -0.0157778, 4.6035, -0.0204468, 4.6035, -1.0081787, 4.6035, -0.1049805, 4.6035, 0.7557252, 4.6035, 0.4503817, 4.6035, -3.2977099
0.5423824, -0.01561, 4.61025, -0.017334, 4.61025, -1.0081787, 4.61025, -0.1011353, 4.61025, 0.8320611, 4.61025, 0.4885496, 4.61025, -3.3358779
0.5431765, -0.0171206, 4.617, -0.0180664, 4.617, -1.0079956, 4.617, -0.1038818, 4.617, 0.8625954, 4.617, 0.7862595, 4.617, -3.2671757
0.5439706, -0.0176242, 4.62375, -0.0197144, 4.62375, -1.0089111, 4.62375, -0.1016235, 4.62375, 0.870229, 4.62375, 0.8473282, 4.62375, -3.2290077
0.5447647, -0.0206455, 4.6305, -0.0211182, 4.6305, -1.0079346, 4.6305, -0.1021118, 4.6305, 0.8473282, 4.6305, 0.9770992, 4.6305, -3.1374047
0.5455588, -0.0234989, 4.63725, -0.020874, 4.63725, -1.0070801, 4.63725, -0.102478, 4.63725, 0.7175573, 4.63725, 1.0152671, 4.63725, -2.9541984
0.5463529, -0.0218204, 4.644, -0.0241699, 4.644, -1.0076294, 4.644, -0.1051025, 4.644, 0.6335878, 4.644, 0.9312977, 4.644, -3.038168
0.5471471, -0.0243381, 4.65075, -0.0231934, 4.65075, -1.0063477, 4.65075, -0.1040039, 4.65075, 0.7175573, 4.65075, 0.961832, 4.65075, -3.2519083
0.5479412, -0.0243381, 4.6575, -0.022522, 4.6575, -1.0066528, 4.6575, -0.1034546, 4.6575, 0.6793893, 4.6575, 0.870229, 4.6575, -3.1526718
0.5487353, -0.0219883, 4.66425, -0.0203247, 4.66425, -1.0040894, 4.66425, -0.1065674, 4.66425, 0.7251908, 4.66425, 0.8244275, 4.66425, -3.129771
0.5495294, -0.0199741, 4.671, -0.0231934, 4.671, -1.003418, 4.671, -0.1064453, 4.671, 0.7099237, 4.671, 0.8854962, 4.671, -3.1832061
0.5503235, -0.0182956, 4.67775, -0.0214233, 4.67775, -1.0073242, 4.67775, -0.1057739, 4.67775, 0.7022901, 4.67775, 1.0839695, 4.67775, -3.3053436
0.5511176, -0.0186313, 4.6845, -0.024292, 4.6845, -1.0056763, 4.6845, -0.1051636, 4.6845, 0.778626, 4.6845, 1.0687023, 4.6845, -3.1984732
0.5519118, -0.0142672, 4.69125, -0.0255737, 4.69125, -1.0083008, 4.69125, -0.1072388, 4.69125, 0.7328244, 4.69125, 1.038168, 4.69125, -3.2519083
0.5527059, -0.0115816, 4.698, -0.0237427, 4.698, -1.0063477, 4.698, -0.1055908, 4.698, 0.5877863, 4.698, 0.9312977, 4.698, -3.1145039
0.5535, -0.0149386, 4.70475, -0.0234985, 4.70475, -1.0067749, 4.70475, -0.1050415, 4.70475, 0.740458, 4.70475, 0.8244275, 4.70475, -3.0763359
0.5542941, -0.0142672, 4.7115, -0.0203857, 4.7115, -1.0068359, 4.7115, -0.1054077, 4.7115, 0.7099237, 4.7115, 0.8473282, 4.7115, -3.1908398
0.5550882, -0.0115816, 4.71825, -0.0236816, 4.71825, -1.0075073, 4.71825, -0.1044922, 4.71825, 0.7633588, 4.71825, 1.0458015, 4.71825, -3.129771
0.5558824, -0.0142672, 4.725, -0.0238037, 4.725, -1.0084229, 4.725, -0.1079102, 4.725, 0.6870229, 4.725, 0.8778626, 4.725, -3.0687022
0.5566765, -0.0125887, 4.73175, -0.0279541, 4.73175, -1.0079346, 4.73175, -0.1082153, 4.73175, 0.6793893, 4.73175, 0.8854962, 4.73175, -3.0763359
0.5574706, -0.012253, 4.7385, -0.0281372, 4.7385, -1.0075684, 4.7385, -0.1046753, 4.7385, 0.8625954, 4.7385, 0.7862595, 4.7385, -3.0839694
0.5582647, -0.0132601, 4.74525, -0.0255737, 4.74525, -1.0099487, 4.74525, -0.1083374, 4.74525, 0.7099237, 4.74525, 0.8320611, 4.74525, -3.2061069
0.5590588, -0.0115816, 4.752, -0.0238037, 4.752, -1.0059814, 4.752, -0.1065063, 4.752, 0.961832, 4.752, 0.7022901, 4.752, -3.1145039
0.5598529, -0.008896, 4.75875, -0.0214844, 4.75875, -1.0076294, 4.75875, -0.107666, 4.75875, 0.9465649, 4.75875, 0.7938932, 4.75875, -3.1374047
0.5606471, -0.0109102, 4.7655, -0.0250854, 4.7655, -1.0065308, 4.7655, -0.1083374, 4.7655, 0.9389313, 4.7655, 0.8015267, 4.7655, -3.1450381
0.5614412, -0.0109102, 4.77225, -0.024353, 4.77225, -1.0074463, 4.77225, -0.1051025, 4.77225, 0.8167939, 4.77225, 0.7480916, 4.77225, -2.9847329
0.5622353, -0.0114137, 4.779, -0.0227661, 4.779, -1.0063477, 4.779, -0.1057129, 4.779, 0.7251908, 4.779, 0.5801527, 4.779, -3.0534351
0.5630294, -0.0142672, 4.78575, -0.0232544, 4.78575, -1.0081787, 4.78575, -0.1054688, 4.78575, 0.9007633, 4.78575, 0.6335878, 4.78575, -3.0763359
0.5638235, -0.0146029, 4.7925, -0.0200195, 4.7925, -1.0088501, 4.7925, -0.105896, 4.7925, 0.7709923, 4.7925, 0.5496183, 4.7925, -3.0839694
0.5646176, -0.0146029, 4.79925, -0.0206909, 4.79925, -1.0079346, 4.79925, -0.105835, 4.79925, 0.7557252, 4.79925, 0.7709923, 4.79925, -3.129771
0.5654118, -0.0125887, 4.806, -0.020813, 4.806, -1.0072632, 4.806, -0.1033936, 4.806, 0.8015267, 4.806, 0.7022901, 4.806, -3.259542
0.5662059, -0.0082246, 4.81275, -0.022583, 4.81275, -1.0065918, 4.81275, -0.1030273, 4.81275, 0.8091603, 4.81275, 0.7557252, 4.81275, -3.129771
0.567, -0.0082246, 4.8195, -0.0209961, 4.8195, -1.0064697, 4.8195, -0.1067505, 4.8195, 1, 4.8195, 0.8091603, 4.8195, -3.091603
0.5677941, -0.0102388, 4.82625, -0.0239868, 4.82625, -1.0061035, 4.82625, -0.1069946, 4.82625, 0.8167939, 4.82625, 0.6564885, 4.82625, -3.2442749
0.5685882, -0.0097353, 4.833, -0.0275879, 4.833, -1.0067139, 4.833, -0.104126, 4.833, 0.7480916, 4.833, 0.4885496, 4.833, -3.1450381
0.5693824, -0.0104067, 4.83975, -0.0245361, 4.83975, -1.0065918, 4.83975, -0.1069336, 4.83975, 0.8549618, 4.83975, 0.5648855, 4.83975, -3.1145039
0.5701765, -0.0082246, 4.8465, -0.0231323, 4.8465, -1.0095215, 4.8465, -0.1047974, 4.8465, 0.8778626, 4.8465, 0.389313, 4.8465, -3.2137403
0.5709706, -0.0082246, 4.85325, -0.0246582, 4.85325, -1.0087891, 4.85325, -0.1055908, 4.85325, 0.9389313, 4.85325, 0.4274809, 4.85325, -3.3129771
0.5717647, -0.0068818, 4.86, -0.0216064, 4.86, -1.0079956, 4.86, -0.1095581, 4.86, 0.8549618, 4.86, 0.4427481, 4.86, -3.0229008
0.5725588, -0.0075532, 4.86675, -0.0198364, 4.86675, -1.0091553, 4.86675, -0.1055908, 4.86675, 0.9465649, 4.86675, 0.5038168, 4.86675, -3.1603053
0.5733529, -0.0102388, 4.8735, -0.0196533, 4.8735, -1.0065308, 4.8735, -0.1040039, 4.8735, 0.8549618, 4.8735, 0.6335878, 4.8735, -3.0992367
0.5741471, -0.0070497, 4.88025, -0.0223389, 4.88025, -1.0068359, 4.88025, -0.1075439, 4.88025, 0.908397, 4.88025, 0.7862595, 4.88025, -3.0992367
0.5749412, -0.0062104, 4.887, -0.0220947, 4.887, -1.008728, 4.887, -0.1066284, 4.887, 0.8549618, 4.887, 1.0610687, 4.887, -3.0534351
0.5757353, -0.0070497, 4.89375, -0.0231323, 4.89375, -1.0059204, 4.89375, -0.1077881, 4.89375, 0.9694657, 4.89375, 1.0152671, 4.89375, -3.1374047
0.5765294, -0.0115816, 4.9005, -0.0272217, 4.9005, -1.0065918, 4.9005, -0.1071777, 4.9005, 0.9694657, 4.9005, 0.8854962, 4.9005, -3.1450381
0.5773235, -0.0129244, 4.90725, -0.0253296, 4.90725, -1.0084839, 4.90725, -0.1067505, 4.90725, 0.9770992, 4.90725, 0.6870229, 4.90725, -3.2061069
0.5781176, -0.0129244, 4.914, -0.0257568, 4.914, -1.0078735, 4.914, -0.1062622, 4.914, 0.8625954, 4.914, 0.5038168, 4.914, -3.0610688
0.5789118, -0.0135958, 4.92075, -0.0256348, 4.92075, -1.0059204, 4.92075, -0.112915, 4.92075, 1.0229008, 4.92075, 0.389313, 4.92075, -3
0.5797059, -0.0139315, 4.9275, -0.0231323, 4.9275, -1.0054932, 4.9275, -0.1108398, 4.9275, 0.8167939, 4.9275, 0.2900763, 4.9275, -3.1221373
0.5805, -0.0176242, 4.93425, -0.0246582, 4.93425, -1.0063477, 4.93425, -0.1060181, 4.93425, 0.908397, 4.93425, 0.4580153, 4.93425, -3.1374047
0.5812941, -0.0209812, 4.941, -0.0227051, 4.941, -1.0084229, 4.941, -0.1071777, 4.941, 1.0076336, 4.941, 0.5648855, 4.941, -3.2290077
0.5820882, -0.0226596, 4.94775, -0.0241089, 4.94775, -1.0092773, 4.94775, -0.1062012, 4.94775, 0.9541985, 4.94775, 0.5954198, 4.94775, -3.2977099
0.5828824, -0.0226596, 4.9545, -0.0249634, 4.9545, -1.0083618, 4.9545, -0.1065063, 4.9545, 1.0229008, 4.9545, 0.6717557, 4.9545, -3.2824428
0.5836765, -0.0229953, 4.96125, -0.0269165, 4.96125, -1.005188, 4.96125, -0.1051025, 4.96125, 0.9923664, 4.96125, 0.6793893, 4.96125, -3.3740458
0.5844706, -0.0223239, 4.968, -0.0270386, 4.968, -1.0095825, 4.968, -0.107666, 4.968, 1.1526718, 4.968, 0.5954198, 4.968, -3.2061069
0.5852647, -0.0213169, 4.97475, -0.0285645, 4.97475, -1.006897, 4.97475, -0.1056519, 4.97475, 1.1755725, 4.97475, 0.4961832, 4.97475, -3.3664122
0.5860588, -0.0253452, 4.9815, -0.02771, 4.9815, -1.008728, 4.9815, -0.1054077, 4.9815, 1.0839695, 4.9815, 0.519084, 4.9815, -3.1526718
0.5868529, -0.0263523, 4.98825, -0.0236206, 4.98825, -1.0096436, 4.98825, -0.1072388, 4.98825, 1.038168, 4.98825, 0.3969466, 4.98825, -3.2290077
0.5876471, -0.0248417, 4.995, -0.0234375, 4.995, -1.0083618, 4.995, -0.1066284, 4.995, 1.1679389, 4.995, 0.6870229, 4.995, -3.2824428
0.5884412, -0.0240024, 5.00175, -0.0231323, 5.00175, -1.0095825, 5.00175, -0.1082153, 5.00175, 1.091603, 5.00175, 0.7709923, 5.00175, -3.1755726
0.5892353, -0.023331, 5.0085, -0.0240479, 5.0085, -1.0074463, 5.0085, -0.1033325, 5.0085, 1.1908396, 5.0085, 0.6946565, 5.0085, -3.1068702
0.5900294, -0.0206455, 5.01525, -0.0216064, 5.01525, -1.0067749, 5.01525, -0.1038818, 5.01525, 1.1755725, 5.01525, 0.6946565, 5.01525, -3.0763359
0.5908235, -0.0199741, 5.022, -0.0227661, 5.022, -1.0031738, 5.022, -0.1046753, 5.022, 1.0839695, 5.022, 0.8015267, 5.022, -3.2137403
0.5916176, -0.0199741, 5.02875, -0.0252686, 5.02875, -1.005188, 5.02875, -0.1067505, 5.02875, 0.961832, 5.02875, 0.8320611, 5.02875, -3.2824428
0.5924118, -0.018967, 5.0355, -0.0209351, 5.0355, -1.0042725, 5.0355, -0.1035156, 5.0355, 1.091603, 5.0355, 0.7480916, 5.0355, -3.2290077
0.5932059, -0.0171206, 5.04225, -0.0234375, 5.04225, -1.0073242, 5.04225, -0.104187, 5.04225, 1.0458015, 5.04225, 0.7175573, 5.04225, -3.2061069
0.594, -0.0182956, 5.049, -0.0206909, 5.049, -1.0059814, 5.049, -0.105896, 5.049, 0.9160305, 5.049, 0.8778626, 5.049, -3.1221373
0.5947941, -0.021149, 5.05575, -0.0159302, 5.05575, -1.0062256, 5.05575, -0.1068115, 5.05575, 0.9007633, 5.05575, 0.8854962, 5.05575, -3.0076337
0.5955882, -0.0255131, 5.0625, -0.0175781, 5.0625, -1.0057373, 5.0625, -0.1071167, 5.0625, 0.8549618, 5.0625, 1.0152671, 5.0625, -2.908397
0.5963824, -0.0223239, 5.06925, -0.0153809, 5.06925, -1.0048218, 5.06925, -0.1063843, 5.06925, 0.9312977, 5.06925, 1.1832061, 5.06925, -3.1068702
0.5971765, -0.018967, 5.076, -0.0233154, 5.076, -1.0042725, 5.076, -0.1038818, 5.076, 0.8320611, 5.076, 1.1526718, 5.076, -3.1603053
0.5979706, -0.0243381, 5.08275, -0.0269165, 5.08275, -1.0061646, 5.08275, -0.1090698, 5.08275, 0.7862595, 5.08275, 1.221374, 5.08275, -3.1374047
0.5987647, -0.0213169, 5.0895, -0.0275269, 5.0895, -1.0110474, 5.0895, -0.1068115, 5.0895, 0.7938932, 5.0895, 0.8473282, 5.0895, -3.1908398
0.5995588, -0.018967, 5.09625, -0.0264893, 5.09625, -1.0072021, 5.09625, -0.1064453, 5.09625, 0.9236641, 5.09625, 0.8091603, 5.09625, -3.0534351
0.6003529, -0.0176242, 5.103, -0.0264893, 5.103, -1.0098877, 5.103, -0.1066895, 5.103, 0.8931298, 5.103, 0.7862595, 5.103, -3.2671757
0.6011471, -0.0169528, 5.10975, -0.0235596, 5.10975, -1.0078735, 5.10975, -0.1080322, 5.10975, 0.9923664, 5.10975, 0.7938932, 5.10975, -3.0534351
0.6019412, -0.0129244, 5.1165, -0.0241089, 5.1165, -1.010376, 5.1165, -0.1064453, 5.1165, 1, 5.1165, 0.7862595, 5.1165, -3.1603053
0.6027353, -0.0117494, 5.12325, -0.0220337, 5.12325, -1.0084229, 5.12325, -0.1066284, 5.12325, 0.9160305, 5.12325, 0.9312977, 5.12325, -3
0.6035294, -0.0112459, 5.13, -0.0197754, 5.13, -1.0128174, 5.13, -0.1060181, 5.13, 0.7862595, 5.13, 1.0152671, 5.13, -3.1374047
0.6043235, -0.008896, 5.13675, -0.0241089, 5.13675, -1.010498, 5.13675, -0.1064453, 5.13675, 0.8396947, 5.13675, 1.038168, 5.13675, -3.1526718
0.6051176, -0.0109102, 5.1435, -0.026062, 5.1435, -1.0059814, 5.1435, -0.1051025, 5.1435, 0.9847328, 5.1435, 1.0458015, 5.1435, -3.1603053
0.6059118, -0.0129244, 5.15025, -0.0266724, 5.15025, -1.0064087, 5.15025, -0.1061401, 5.15025, 0.9389313, 5.15025, 1.0458015, 5.15025, -3.2290077
0.6067059, -0.0095674, 5.157, -0.0248413, 5.157, -1.0063477, 5.157, -0.1060181, 5.157, 0.9236641, 5.157, 0.9312977, 5.157, -3.1832061
0.6075, -0.0117494, 5.16375, -0.0240479, 5.16375, -1.0045776, 5.16375, -0.1074219, 5.16375, 1, 5.16375, 0.7709923, 5.16375, -3.2137403
0.6082941, -0.0135958, 5.1705, -0.024231, 5.1705, -1.0045776, 5.1705, -0.1109009, 5.1705, 0.9694657, 5.1705, 0.7557252, 5.1705, -3.3053436
0.6090882, -0.0119173, 5.17725, -0.0219727, 5.17725, -1.008606, 5.17725, -0.1083374, 5.17725, 0.9312977, 5.17725, 0.610687, 5.17725, -3.3206108
0.6098824, -0.0102388, 5.184, -0.0248413, 5.184, -1.0058594, 5.184, -0.1112061, 5.184, 0.8854962, 5.184, 0.6793893, 5.184, -3.221374
0.6106765, -0.0082246, 5.19075, -0.0257568, 5.19075, -1.0074463, 5.19075, -0.1065674, 5.19075, 1.1450381, 5.19075, 0.7175573, 5.19075, -3.1221373
0.6114706, -0.0115816, 5.1975, -0.0263062, 5.1975, -1.0050049, 5.1975, -0.1072998, 5.1975, 1.0992366, 5.1975, 0.7938932, 5.1975, -3.221374
0.6122647, -0.0130922, 5.20425, -0.0250854, 5.20425, -1.0061646, 5.20425, -0.107666, 5.20425, 1.0839695, 5.20425, 0.7633588, 5.20425, -3.3282442
0.6130588, -0.0135958, 5.211, -0.0257568, 5.211, -1.0076904, 5.211, -0.1065674, 5.211, 1.0305344, 5.211, 0.8167939, 5.211, -3.3129771
0.6138529, -0.0112459, 5.21775, -0.0256958, 5.21775, -1.0056152, 5.21775, -0.1063232, 5.21775, 0.9465649, 5.21775, 0.9160305, 5.21775, -3.1908398
0.6146471, -0.0090639, 5.2245, -0.026001, 5.2245, -1.0057983, 5.2245, -0.1072998, 5.2245, 1.221374, 5.2245, 0.9694657, 5.2245, -3.259542
0.6154412, -0.0109102, 5.23125, -0.0250244, 5.23125, -1.0081787, 5.23125, -0.1072998, 5.23125, 1.1984733, 5.23125, 0.9007633, 5.23125, -3.1908398
0.6162353, -0.0149386, 5.238, -0.0223389, 5.238, -1.0106812, 5.238, -0.105957, 5.238, 1.091603, 5.238, 0.8625954, 5.238, -3.2900763
0.6170294, -0.0142672, 5.24475, -0.0181885, 5.24475, -1.0067139, 5.24475, -0.1071777, 5.24475, 1.0839695, 5.24475, 0.8931298, 5.24475, -3.1603053
0.6178235, -0.0142672, 5.2515, -0.0196533, 5.2515, -1.0085449, 5.2515, -0.107666, 5.2515, 1.0534351, 5.2515, 0.8167939, 5.2515, -3.3206108
0.6186176, -0.0162814, 5.25825, -0.0247192, 5.25825, -1.0056763, 5.25825, -0.1097412, 5.25825, 1.1374046, 5.25825, 1.038168, 5.25825, -3.3129771
0.6194118, -0.0129244, 5.265, -0.0245972, 5.265, -1.006958, 5.265, -0.1088867, 5.265, 0.9847328, 5.265, 0.9389313, 5.265, -3.4503818
0.6202059, -0.012253, 5.27175, -0.022583, 5.27175, -1.0049438, 5.27175, -0.1078491, 5.27175, 1.091603, 5.27175, 0.7709923, 5.27175, -3.1832061
0.621, -0.0109102, 5.2785, -0.0244141, 5.2785, -1.0083008, 5.2785, -0.1051636, 5.2785, 1.0992366, 5.2785, 0.6412213, 5.2785, -3.3587787
0.6217941, -0.0115816, 5.28525, -0.0249023, 5.28525, -1.0093384, 5.28525, -0.1043091, 5.28525, 1.1221374, 5.28525, 0.5648855, 5.28525, -3.3282442
0.6225882, -0.0129244, 5.292, -0.0231323, 5.292, -1.0066528, 5.292, -0.1067505, 5.292, 1.2748091, 5.292, 0.5038168, 5.292, -3.351145
0.6233824, -0.0112459, 5.29875, -0.0202026, 5.29875, -1.0074463, 5.29875, -0.1057129, 5.29875, 1.1221374, 5.29875, 0.6564885, 5.29875, -3.1603053
0.6241765, -0.0149386, 5.3055, -0.0171509, 5.3055, -1.0084229, 5.3055, -0.1049194, 5.3055, 1.1526718, 5.3055, 0.648855, 5.3055, -3.2671757
0.6249706, -0.0162814, 5.31225, -0.0202026, 5.31225, -1.0072021, 5.31225, -0.1043091, 5.31225, 1.1984733, 5.31225, 0.5954198, 5.31225, -3.3282442
0.6257647, -0.0149386, 5.319, -0.0247192, 5.319, -1.0072632, 5.319, -0.1067505, 5.319, 1.038168, 5.319, 0.610687, 5.319, -3.351145
0.6265588, -0.0129244, 5.32575, -0.0249023, 5.32575, -1.0058594, 5.32575, -0.1063232, 5.32575, 1.0152671, 5.32575, 0.8778626, 5.32575, -3.3816793
0.6273529, -0.0092317, 5.3325, -0.0219116, 5.3325, -1.0073242, 5.3325, -0.1043091, 5.3325, 1.038168, 5.3325, 0.7938932, 5.3325, -3.2442749
0.6281471, -0.0124208, 5.33925, -0.0247192, 5.33925, -1.0061035, 5.33925, -0.1054688, 5.33925, 1.221374, 5.33925, 0.9160305, 5.33925, -3.2748091
0.6289412, -0.0149386, 5.346, -0.0220947, 5.346, -1.0057983, 5.346, -0.1047974, 5.346, 1.1450381, 5.346, 0.6946565, 5.346, -3.2519083
0.6297353, -0.0132601, 5.35275, -0.0235596, 5.35275, -1.005249, 5.35275, -0.1073608, 5.35275, 1.0610687, 5.35275, 0.7480916, 5.35275, -3.2519083
0.6305294, -0.012253, 5.3595, -0.0231934, 5.3595, -1.0064697, 5.3595, -0.1072998, 5.3595, 1.0534351, 5.3595, 0.8244275, 5.3595, -3.2824428
0.6313235, -0.0132601, 5.36625, -0.0193481, 5.36625, -1.0084839, 5.36625, -0.1055298, 5.36625, 1.0305344, 5.36625, 0.870229, 5.36625, -3.3129771
0.6321176, -0.0105745, 5.373, -0.0199585, 5.373, -1.0080566, 5.373, -0.104248, 5.373, 1.091603, 5.373, 0.8091603, 5.373, -3.0687022
0.6329118, -0.0082246, 5.37975, -0.0194092, 5.37975, -1.0072632, 5.37975, -0.105896, 5.37975, 0.9160305, 5.37975, 0.9770992, 5.37975, -3.2366412
0.6337059, -0.0095674, 5.3865, -0.0205688, 5.3865, -1.0053711, 5.3865, -0.1039429, 5.3865, 1.1221374, 5.3865, 0.9007633, 5.3865, -3.1374047
0.6345, -0.0135958, 5.39325, -0.0245972, 5.39325, -1.0089722, 5.39325, -0.1070557, 5.39325, 1.0229008, 5.39325, 0.8549618, 5.39325, -3.3206108
0.6352941, -0.0146029, 5.4, -0.0231934, 5.4, -1.0073853, 5.4, -0.1054688, 5.4, 1, 5.4, 0.8396947, 5.4, -3.2671757
0.6360882, -0.0146029, 5.40675, -0.0231934, 5.40675, -1.0093994, 5.40675, -0.1045532, 5.40675, 0.9770992, 5.40675, 0.8396947, 5.40675, -3.2061069
0.6368824, -0.0149386, 5.4135, -0.0216064, 5.4135, -1.0082397, 5.4135, -0.1051025, 5.4135, 0.9847328, 5.4135, 0.7328244, 5.4135, -3.0992367
0.6376765, -0.014435, 5.42025, -0.0249634, 5.42025, -1.0095825, 5.42025, -0.1067505, 5.42025, 1.0687023, 5.42025, 0.5954198, 5.42025, -3.091603
0.6384706, -0.0152743, 5.427, -0.0252075, 5.427, -1.0059204, 5.427, -0.1102905, 5.427, 1.0152671, 5.427, 0.7557252, 5.427, -3.3206108
0.6392647, -0.0139315, 5.43375, -0.026123, 5.43375, -1.0055542, 5.43375, -0.1101685, 5.43375, 0.8625954, 5.43375, 0.6717557, 5.43375, -3.3129771
0.6400588, -0.012253, 5.4405, -0.0238037, 5.4405, -1.0062256, 5.4405, -0.1081543, 5.4405, 0.9923664, 5.4405, 0.8473282, 5.4405, -3.2977099
0.6408529, -0.0115816, 5.44725, -0.0206909, 5.44725, -1.0061035, 5.44725, -0.1063843, 5.44725, 0.9007633, 5.44725, 0.9312977, 5.44725, -3.2824428
0.6416471, -0.0129244, 5.454, -0.0255737, 5.454, -1.0081177, 5.454, -0.1088257, 5.454, 1.1526718, 5.454, 0.9236641, 5.454, -3.2290077
0.6424412, -0.0166171, 5.46075, -0.0230713, 5.46075, -1.0075073, 5.46075, -0.1054077, 5.46075, 1.0076336, 5.46075, 0.8320611, 5.46075, -3.1450381
0.6432353, -0.0159457, 5.4675, -0.0230103, 5.4675, -1.0061035, 5.4675, -0.1053467, 5.4675, 0.9847328, 5.4675, 0.8244275, 5.4675, -3.1679389
0.6440294, -0.0129244, 5.47425, -0.0231323, 5.47425, -1.0068359, 5.47425, -0.1047363, 5.47425, 0.961832, 5.47425, 1, 5.47425, -3.2748091
0.6448235, -0.0115816, 5.481, -0.0232544, 5.481, -1.0066528, 5.481, -0.1051636, 5.481, 0.9312977, 5.481, 1.0152671, 5.481, -3.1908398
0.6456176, -0.0102388, 5.48775, -0.0232544, 5.48775, -1.0061646, 5.48775, -0.1062012, 5.48775, 1.0610687, 5.48775, 0.9007633, 5.48775, -3.1679389
0.6464118, -0.0115816, 5.4945, -0.020874, 5.4945, -1.006958, 5.4945, -0.1043091, 5.4945, 0.9770992, 5.4945, 0.7480916, 5.4945, -3.2748091
0.6472059, -0.0127565, 5.50125, -0.0241089, 5.50125, -1.006958, 5.50125, -0.104187, 5.50125, 0.8778626, 5.50125, 0.7709923, 5.50125, -3.2748091
0.648, -0.012253, 5.508, -0.0238647, 5.508, -1.0078735, 5.508, -0.1043701, 5.508, 0.9541985, 5.508, 0.8854962, 5.508, -3.1755726
0.6487941, -0.0115816, 5.51475, -0.0238037, 5.51475, -1.0102539, 5.51475, -0.1027222, 5.51475, 1.0763359, 5.51475, 0.8778626, 5.51475, -3.259542
0.6495882, -0.0130922, 5.5215, -0.0253296, 5.5215, -1.0096436, 5.5215, -0.1049805, 5.5215, 0.9847328, 5.5215, 0.7099237, 5.5215, -3.2442749
0.6503824, -0.0149386, 5.52825, -0.0252075, 5.52825, -1.0078735, 5.52825, -0.1081543, 5.52825, 0.8625954, 5.52825, 0.9160305, 5.52825, -3.4198472
0.6511765, -0.0117494, 5.535, -0.022522, 5.535, -1.006897, 5.535, -0.1032715, 5.535, 0.8931298, 5.535, 0.7022901, 5.535, -3.221374
0.6519706, -0.0099031, 5.54175, -0.0230103, 5.54175, -1.0053101, 5.54175, -0.1062622, 5.54175, 0.9923664, 5.54175, 0.7251908, 5.54175, -3.2748091
0.6527647, -0.0095674, 5.5485, -0.0234985, 5.5485, -1.0070801, 5.5485, -0.1060791, 5.5485, 1.0610687, 5.5485, 0.7709923, 5.5485, -3.2137403
0.6535588, -0.0102388, 5.55525, -0.0264893, 5.55525, -1.0085449, 5.55525, -0.1072388, 5.55525, 1.0610687, 5.55525, 0.778626, 5.55525, -3.2824428
0.6543529, -0.0130922, 5.562, -0.0238647, 5.562, -1.0078735, 5.562, -0.1072388, 5.562, 0.9160305, 5.562, 0.6717557, 5.562, -3.1450381
0.6551471, -0.0142672, 5.56875, -0.0241089, 5.56875, -1.0065308, 5.56875, -0.1080933, 5.56875, 0.9389313, 5.56875, 0.6183206, 5.56875, -3.2290077
0.6559412, -0.0166171, 5.5755, -0.0272217, 5.5755, -1.0076294, 5.5755, -0.1085815, 5.5755, 1.0229008, 5.5755, 0.6564885, 5.5755, -3.4274809
0.6567353, -0.0142672, 5.58225, -0.0274048, 5.58225, -1.0059204, 5.58225, -0.1083374, 5.58225, 1.1832061, 5.58225, 0.5114504, 5.58225, -3.4274809
0.6575294, -0.0137636, 5.589, -0.0245361, 5.589, -1.008667, 5.589, -0.1063843, 5.589, 1.0839695, 5.589, 0.4885496, 5.589, -3.2519083
0.6583235, -0.018967, 5.59575, -0.0229492, 5.59575, -1.0087891, 5.59575, -0.1069336, 5.59575, 1.1450381, 5.59575, 0.480916, 5.59575, -3.3664122
0.6591176, -0.0223239, 5.6025, -0.0216675, 5.6025, -1.0061646, 5.6025, -0.1057129, 5.6025, 1.129771, 5.6025, 0.5114504, 5.6025, -3.259542
0.6599118, -0.0193027, 5.60925, -0.0240479, 5.60925, -1.0070801, 5.60925, -0.1065063, 5.60925, 1.0152671, 5.60925, 0.6946565, 5.60925, -3.1603053
0.6607059, -0.0172885, 5.616, -0.0256958, 5.616, -1.0068359, 5.616, -0.1071167, 5.616, 1.0687023, 5.616, 0.8091603, 5.616, -3.389313
0.6615, -0.0171206, 5.62275, -0.0244141, 5.62275, -1.0045776, 5.62275, -0.1072388, 5.62275, 1.1374046, 5.62275, 0.7557252, 5.62275, -3.1526718
0.6622941, -0.0162814, 5.6295, -0.022583, 5.6295, -1.0098877, 5.6295, -0.1043091, 5.6295, 1.038168, 5.6295, 0.7328244, 5.6295, -3.2748091
0.6630882, -0.0176242, 5.63625, -0.0216064, 5.63625, -1.0079956, 5.63625, -0.1049194, 5.63625, 1.1221374, 5.63625, 0.8625954, 5.63625, -3.2671757
0.6638824, -0.0184634, 5.643, -0.0187378, 5.643, -1.0101929, 5.643, -0.1048584, 5.643, 1.2061069, 5.643, 0.961832, 5.643, -3.3053436
0.6646765, -0.01561, 5.64975, -0.0239258, 5.64975, -1.0082397, 5.64975, -0.1055908, 5.64975, 1.3206106, 5.64975, 1.1221374, 5.64975, -3.2671757
0.6654706, -0.0149386, 5.6565, -0.0231934, 5.6565, -1.0092163, 5.6565, -0.1053467, 5.6565, 1.2137405, 5.6565, 1.0763359, 5.6565, -3.1984732
0.6662647, -0.0142672, 5.66325, -0.0238647, 5.66325, -1.0073242, 5.66325, -0.1072998, 5.66325, 1.2671756, 5.66325, 0.8931298, 5.66325, -3.2442749
0.6670588, -0.0124208, 5.67, -0.0253296, 5.67, -1.005188, 5.67, -0.1054077, 5.67, 1.3206106, 5.67, 0.9160305, 5.67, -3.1755726
0.6678529, -0.0166171, 5.67675, -0.0241699, 5.67675, -1.0092163, 5.67675, -0.1045532, 5.67675, 1.0992366, 5.67675, 0.648855, 5.67675, -3.2061069
0.6686471, -0.0164492, 5.6835, -0.0241089, 5.6835, -1.0081787, 5.6835, -0.1098633, 5.6835, 1.1908396, 5.6835, 0.6259542, 5.6835, -3.351145
0.6694412, -0.01561, 5.69025, -0.0220947, 5.69025, -1.0043335, 5.69025, -0.1054077, 5.69025, 1.0992366, 5.69025, 0.7557252, 5.69025, -3.1908398
0.6702353, -0.0142672, 5.697, -0.0247192, 5.697, -1.0054321, 5.697, -0.1030884, 5.697, 1.0992366, 5.697, 0.7251908, 5.697, -3.3435113
0.6710294, -0.0159457, 5.70375, -0.020752, 5.70375, -1.0073242, 5.70375, -0.100647, 5.70375, 1.0534351, 5.70375, 0.7099237, 5.70375, -3.2519083
0.6718235, -0.0193027, 5.7105, -0.0236816, 5.7105, -1.0083008, 5.7105, -0.1069946, 5.7105, 1.1679389, 5.7105, 0.8015267, 5.7105, -3.4427481
0.6726176, -0.0236667, 5.71725, -0.0258179, 5.71725, -1.005188, 5.71725, -0.1045532, 5.71725, 1.2366412, 5.71725, 0.8320611, 5.71725, -3.1603053
0.6734118, -0.0236667, 5.724, -0.022644, 5.724, -1.0064697, 5.724, -0.1045532, 5.724, 1.2748091, 5.724, 0.8167939, 5.724, -3.2519083
0.6742059, -0.0196384, 5.73075, -0.0230103, 5.73075, -1.0053711, 5.73075, -0.1046753, 5.73075, 1.1908396, 5.73075, 0.9465649, 5.73075, -3.5038168
0.675, -0.0199741, 5.7375, -0.0218506, 5.7375, -1.0059814, 5.7375, -0.105957, 5.7375, 1.2137405, 5.7375, 0.9312977, 5.7375, -3.4198472
0.6757941, -0.0182956, 5.74425, -0.0236206, 5.74425, -1.0056152, 5.74425, -0.1057739, 5.74425, 1.1679389, 5.74425, 0.9694657, 5.74425, -3.2366412
