Application:, Trigno Discover (1.7.0)
Date/Time:, 2026/9/9 下午 03:07:43
Collection Length (seconds):, 114.3315
Avanti Sensor 11 (69574)
sensor mode: 50
EMG 1 Time Series (s), EMG 1 (mV), ACC X Time Series (s), ACC X (G), ACC Y Time Series (s), ACC Y (G), ACC Z Time Series (s), ACC Z (G), GYRO X Time Series (s), GYRO X (deg/s), GYRO Y Time Series (s), GYRO Y (deg/s), GYRO Z Time Series (s), GYRO Z (deg/s)
, 1259.2593 Hz, , 148.1481 Hz, , 148.1481 Hz, , 148.1481 Hz, , 148.1481 Hz, , 148.1481 Hz, , 148.1481 Hz
0, -0.0109102, 0, 0.0130615, 0, -1.0078735, 0, -0.0979004, 0, 1.221374, 0, -0.0381679, 0, -3
0.0007941, -0.0112459, 0.00675, 0.010498, 0.00675, -1.0105591, 0.00675, -0.0955811, 0.00675, 1.0687023, 0.00675, 0.0152672, 0.00675, -3.2671757
0.0015882, -0.0078889, 0.0135, 0.0140991, 0.0135, -1.0078125, 0.0135, -0.0986938, 0.0135, 1.1832061, 0.0135, 0.1068702, 0.0135, -3.0763359
0.0023824, -0.0112459, 0.02025, 0.0150146, 0.02025, -1.007019, 0.02025, -0.098999, 0.02025, 1.1755725, 0.02025, 0.0916031, 0.02025, -3.2061069
0.0031765, -0.0135958, 0.027, 0.0111694, 0.027, -1.0055542, 0.027, -0.0985718, 0.027, 1.0229008, 0.027, 0.1374046, 0.027, -3.1526718
0.0039706, -0.0169528, 0.03375, 0.0093994, 0.03375, -1.0083618, 0.03375, -0.0992432, 0.03375, 1.1679389, 0.03375, 0.1374046, 0.03375, -3.1450381
0.0047647, -0.0184634, 0.0405, 0.0123291, 0.0405, -1.0074463, 0.0405, -0.0994873, 0.0405, 1.2824427, 0.0405, -0.0076336, 0.0405, -3.3053436
0.0055588, -0.0191348, 0.04725, 0.0166016, 0.04725, -1.0068359, 0.04725, -0.0980225, 0.04725, 1.2748091, 0.04725, -0.1755725, 0.04725, -3.259542
0.0063529, -0.0196384, 0.054, 0.0172729, 0.054, -1.008606, 0.054, -0.0993042, 0.054, 1.2671756, 0.054, 0.1679389, 0.054, -3.1450381
0.0071471, -0.0226596, 0.06075, 0.0111694, 0.06075, -1.0057983, 0.06075, -0.0980835, 0.06075, 1.1908396, 0.06075, 0.4274809, 0.06075, -3.2290077
0.0079412, -0.0219883, 0.0675, 0.0126953, 0.0675, -1.0078125, 0.0675, -0.0965576, 0.0675, 1.2977099, 0.0675, 0.7251908, 0.0675, -3.1908398
0.0087353, -0.0216526, 0.07425, 0.0122681, 0.07425, -1.0084229, 0.07425, -0.0959473, 0.07425, 1.0763359, 0.07425, 0.9312977, 0.07425, -3.2061069
0.0095294, -0.0206455, 0.081, 0.0109253, 0.081, -1.0071411, 0.081, -0.0917969, 0.081, 1.1908396, 0.081, 0.9160305, 0.081, -3.2824428
0.0103235, -0.0216526, 0.08775, 0.0133057, 0.08775, -1.0053711, 0.08775, -0.0934448, 0.08775, 1.038168, 0.08775, 1.0076336, 0.08775, -3.2519083
0.0111176, -0.0194705, 0.0945, 0.0122681, 0.0945, -1.0074463, 0.0945, -0.09198, 0.0945, 1.2061069, 0.0945, 0.9236641, 0.0945, -3.3206108
0.0119118, -0.0172885, 0.10125, 0.0162964, 0.10125, -1.0094604, 0.10125, -0.0932617, 0.10125, 1.1068702, 0.10125, 1.3053435, 0.10125, -3.0839694
0.0127059, -0.0140993, 0.108, 0.0161133, 0.108, -1.008728, 0.108, -0.0933228, 0.108, 1.0076336, 0.108, 1.4732825, 0.108, -3.0992367
0.0135, -0.0115816, 0.11475, 0.0127563, 0.11475, -1.0079956, 0.11475, -0.0927124, 0.11475, 1, 0.11475, 1.2900764, 0.11475, -3.2671757
0.0142941, -0.0112459, 0.1215, 0.0089722, 0.1215, -1.0075073, 0.1215, -0.0957031, 0.1215, 0.908397, 0.1215, 1.4351145, 0.1215, -3.2290077
0.0150882, -0.0115816, 0.12825, 0.0114746, 0.12825, -1.0100708, 0.12825, -0.0944214, 0.12825, 0.9770992, 0.12825, 1.129771, 0.12825, -3.259542
0.0158824, -0.0102388, 0.135, 0.0106201, 0.135, -1.0075684, 0.135, -0.0940552, 0.135, 1.0534351, 0.135, 1.0458015, 0.135, -3.480916
0.0166765, -0.0095674, 0.14175, 0.0081177, 0.14175, -1.0076294, 0.14175, -0.0959473, 0.14175, 1.0763359, 0.14175, 0.9923664, 0.14175, -3.4351146
0.0174706, -0.0075532, 0.1485, 0.0083618, 0.1485, -1.0095825, 0.1485, -0.0953369, 0.1485, 1, 0.1485, 0.7633588, 0.1485, -3.3664122
0.0182647, -0.0041962, 0.15525, 0.0094604, 0.15525, -1.0110474, 0.15525, -0.0964355, 0.15525, 1.0305344, 0.15525, 0.7938932, 0.15525, -3.2824428
0.0190588, -0.0068818, 0.162, 0.0132446, 0.162, -1.0080566, 0.162, -0.0947876, 0.162, 1, 0.162, 0.778626, 0.162, -3.3816793
0.0198529, -0.0068818, 0.16875, 0.0133057, 0.16875, -1.0089111, 0.16875, -0.0977173, 0.16875, 0.870229, 0.16875, 0.9694657, 0.16875, -3.4045801
0.0206471, -0.012253, 0.1755, 0.0151367, 0.1755, -1.0075073, 0.1755, -0.0974731, 0.1755, 1.038168, 0.1755, 1.0992366, 0.1755, -3.5343511
0.0214412, -0.0090639, 0.18225, 0.0169067, 0.18225, -1.0085449, 0.18225, -0.0947266, 0.18225, 0.9312977, 0.18225, 1.4656489, 0.18225, -3.5267177
0.0222353, -0.011078, 0.189, 0.0129395, 0.189, -1.0098877, 0.189, -0.0949707, 0.189, 0.8625954, 0.189, 1.5572519, 0.189, -3.3282442
0.0230294, -0.0146029, 0.19575, 0.0109253, 0.19575, -1.0072632, 0.19575, -0.0918579, 0.19575, 0.8778626, 0.19575, 1.3435115, 0.19575, -3.3358779
0.0238235, -0.0129244, 0.2025, 0.0079346, 0.2025, -1.0050049, 0.2025, -0.0939331, 0.2025, 0.8854962, 0.2025, 1.2748091, 0.2025, -3.4732823
0.0246176, -0.0124208, 0.20925, 0.0111084, 0.20925, -1.0098877, 0.20925, -0.0922852, 0.20925, 0.9389313, 0.20925, 1.091603, 0.20925, -3.2977099
0.0254118, -0.0124208, 0.216, 0.0097046, 0.216, -1.0081177, 0.216, -0.0921021, 0.216, 0.8015267, 0.216, 0.9312977, 0.216, -3.5038168
0.0262059, -0.0109102, 0.22275, 0.0130005, 0.22275, -1.0067139, 0.22275, -0.0950317, 0.22275, 0.7099237, 0.22275, 0.7633588, 0.22275, -3.5572519
0.027, -0.0092317, 0.2295, 0.0149536, 0.2295, -1.006958, 0.2295, -0.0922241, 0.2295, 0.7862595, 0.2295, 0.7328244, 0.2295, -3.5648854
0.0277941, -0.0139315, 0.23625, 0.0140991, 0.23625, -1.0039673, 0.23625, -0.0963135, 0.23625, 0.9236641, 0.23625, 0.5725191, 0.23625, -3.480916
0.0285882, -0.0125887, 0.243, 0.012207, 0.243, -1.0057373, 0.243, -0.0942993, 0.243, 0.7557252, 0.243, 0.5954198, 0.243, -3.4961832
0.0293824, -0.0124208, 0.24975, 0.0127563, 0.24975, -1.0050049, 0.24975, -0.0971069, 0.24975, 0.5725191, 0.24975, 0.870229, 0.24975, -3.3969467
0.0301765, -0.0129244, 0.2565, 0.0140991, 0.2565, -1.006958, 0.2565, -0.0950317, 0.2565, 0.6717557, 0.2565, 0.6030535, 0.2565, -3.4045801
0.0309706, -0.0115816, 0.26325, 0.0111694, 0.26325, -1.0101318, 0.26325, -0.0949707, 0.26325, 0.5801527, 0.26325, 0.7938932, 0.26325, -3.3664122
0.0317647, -0.0115816, 0.27, 0.0109863, 0.27, -1.0084839, 0.27, -0.0960693, 0.27, 0.5572519, 0.27, 0.8396947, 0.27, -3.2824428
0.0325588, -0.0119173, 0.27675, 0.0120239, 0.27675, -1.0074463, 0.27675, -0.0956421, 0.27675, 0.7022901, 0.27675, 0.7633588, 0.27675, -3.5267177
0.0333529, -0.0092317, 0.2835, 0.0117188, 0.2835, -1.0048218, 0.2835, -0.093811, 0.2835, 0.5725191, 0.2835, 0.7557252, 0.2835, -3.5572519
0.0341471, -0.0169528, 0.29025, 0.0140991, 0.29025, -1.0081177, 0.29025, -0.0957642, 0.29025, 0.5954198, 0.29025, 0.6793893, 0.29025, -3.5343511
0.0349412, -0.0231632, 0.297, 0.0152588, 0.297, -1.0065308, 0.297, -0.0961914, 0.297, 0.6946565, 0.297, 0.5343512, 0.297, -3.4580152
0.0357353, -0.0229953, 0.30375, 0.0148926, 0.30375, -1.007019, 0.30375, -0.0947266, 0.30375, 0.5114504, 0.30375, 0.4274809, 0.30375, -3.4732823
0.0365294, -0.0209812, 0.3105, 0.0161743, 0.3105, -1.0081787, 0.3105, -0.0930786, 0.3105, 0.4732825, 0.3105, 0.3282443, 0.3105, -3.7099237
0.0373235, -0.0229953, 0.31725, 0.0134888, 0.31725, -1.0065308, 0.31725, -0.0956421, 0.31725, 0.519084, 0.31725, 0.3358779, 0.31725, -3.6183207
0.0381176, -0.0260166, 0.324, 0.0151367, 0.324, -1.0091553, 0.324, -0.1004028, 0.324, 0.5419847, 0.324, 0.2290076, 0.324, -3.5877862
0.0389118, -0.0253452, 0.33075, 0.0126953, 0.33075, -1.0076904, 0.33075, -0.1003418, 0.33075, 0.5648855, 0.33075, 0.1908397, 0.33075, -3.6259542
0.0397059, -0.0256809, 0.3375, 0.0151367, 0.3375, -1.0062256, 0.3375, -0.0983276, 0.3375, 0.4580153, 0.3375, 0.0305344, 0.3375, -3.4045801
0.0405, -0.0246738, 0.34425, 0.0117188, 0.34425, -1.0062256, 0.34425, -0.0985107, 0.34425, 0.519084, 0.34425, -0.0763359, 0.34425, -3.5954199
0.0412941, -0.0236667, 0.351, 0.0139771, 0.351, -1.0074463, 0.351, -0.0999756, 0.351, 0.4885496, 0.351, 0.1832061, 0.351, -3.4656489
0.0420882, -0.0209812, 0.35775, 0.012146, 0.35775, -1.0078735, 0.35775, -0.098999, 0.35775, 0.4732825, 0.35775, 0.0534351, 0.35775, -3.480916
0.0428824, -0.0193027, 0.3645, 0.0144043, 0.3645, -1.0100708, 0.3645, -0.0961914, 0.3645, 0.5114504, 0.3645, 0.1374046, 0.3645, -3.5496182
0.0436765, -0.0209812, 0.37125, 0.0147095, 0.37125, -1.0066528, 0.37125, -0.0983887, 0.37125, 0.519084, 0.37125, 0.1679389, 0.37125, -3.3435113
0.0444706, -0.0203098, 0.378, 0.0102539, 0.378, -1.0090332, 0.378, -0.0985107, 0.378, 0.610687, 0.378, 0.3282443, 0.378, -3.480916
0.0452647, -0.018967, 0.38475, 0.0153198, 0.38475, -1.0048828, 0.38475, -0.0985718, 0.38475, 0.5267175, 0.38475, 0.3053435, 0.38475, -3.6412213
0.0460588, -0.0149386, 0.3915, 0.0180664, 0.3915, -1.0010986, 0.3915, -0.0982666, 0.3915, 0.6946565, 0.3915, 0.2900763, 0.3915, -3.4274809
0.0468529, -0.0157778, 0.39825, 0.0178833, 0.39825, -1.0033569, 0.39825, -0.1022949, 0.39825, 0.778626, 0.39825, 0.2671756, 0.39825, -3.4427481
0.0476471, -0.01561, 0.405, 0.0175781, 0.405, -1.0013428, 0.405, -0.1030884, 0.405, 0.7480916, 0.405, 0.5038168, 0.405, -3.4961832
0.0484412, -0.0129244, 0.41175, 0.0166016, 0.41175, -1.0018311, 0.41175, -0.1032715, 0.41175, 0.7633588, 0.41175, 0.4961832, 0.41175, -3.5572519
0.0492353, -0.008896, 0.4185, 0.0148926, 0.4185, -1.0040283, 0.4185, -0.1053467, 0.4185, 0.8320611, 0.4185, 0.6335878, 0.4185, -3.4656489
0.0500294, -0.008896, 0.42525, 0.0151367, 0.42525, -1.0072632, 0.42525, -0.1053467, 0.42525, 0.9541985, 0.42525, 0.519084, 0.42525, -3.5343511
0.0508235, -0.0127565, 0.432, 0.0157471, 0.432, -1.0096436, 0.432, -0.1066895, 0.432, 1.0152671, 0.432, 0.4122137, 0.432, -3.351145
0.0516176, -0.0112459, 0.43875, 0.0162964, 0.43875, -1.0113525, 0.43875, -0.1056519, 0.43875, 1.091603, 0.43875, 0.3129771, 0.43875, -3.3664122
0.0524118, -0.0105745, 0.4455, 0.0206299, 0.4455, -1.0141602, 0.4455, -0.1082153, 0.4455, 1.2519084, 0.4455, 0.1526718, 0.4455, -3.2900763
0.0532059, -0.01561, 0.45225, 0.0224609, 0.45225, -1.0164185, 0.45225, -0.1056519, 0.45225, 1.2442749, 0.45225, 0.3969466, 0.45225, -3.3206108
0.054, -0.0151064, 0.459, 0.0183716, 0.459, -1.0148926, 0.459, -0.1005249, 0.459, 1.351145, 0.459, 0.4885496, 0.459, -3.2671757
0.0547941, -0.0129244, 0.46575, 0.0184937, 0.46575, -1.0134277, 0.46575, -0.0979004, 0.46575, 1.2977099, 0.46575, 0.648855, 0.46575, -3.1832061
0.0555882, -0.0105745, 0.4725, 0.015625, 0.4725, -1.0064087, 0.4725, -0.0974731, 0.4725, 1.4274809, 0.4725, 0.4274809, 0.4725, -3.1603053
0.0563824, -0.0099031, 0.47925, 0.0162964, 0.47925, -1.0016479, 0.47925, -0.090332, 0.47925, 1.3816794, 0.47925, 0.6030535, 0.47925, -3.0687022
0.0571765, -0.0109102, 0.486, 0.0142212, 0.486, -1.003479, 0.486, -0.0910034, 0.486, 1.2061069, 0.486, 0.4427481, 0.486, -3.2519083
0.0579706, -0.0115816, 0.49275, 0.0118408, 0.49275, -1.0018921, 0.49275, -0.0869141, 0.49275, 1.1603054, 0.49275, 0.2748092, 0.49275, -3.0839694
0.0587647, -0.0135958, 0.4995, 0.0137329, 0.4995, -1.0028076, 0.4995, -0.0893555, 0.4995, 0.9541985, 0.4995, 0.3664122, 0.4995, -3.091603
0.0595588, -0.0119173, 0.50625, 0.0146484, 0.50625, -1.0009766, 0.50625, -0.090332, 0.50625, 0.8320611, 0.50625, 0.2061069, 0.50625, -3.389313
0.0603529, -0.0114137, 0.513, 0.0137329, 0.513, -1.0016479, 0.513, -0.0929565, 0.513, 0.8320611, 0.513, 0.2671756, 0.513, -3.3358779
0.0611471, -0.0112459, 0.51975, 0.0149536, 0.51975, -0.9995728, 0.51975, -0.0925903, 0.51975, 0.9312977, 0.51975, 0.4351145, 0.51975, -3.1221373
0.0619412, -0.0099031, 0.5265, 0.0133057, 0.5265, -1.0020142, 0.5265, -0.0980225, 0.5265, 0.9007633, 0.5265, 0.5114504, 0.5265, -3.2977099
0.0627353, -0.0090639, 0.53325, 0.0148926, 0.53325, -1.0067749, 0.53325, -0.0990601, 0.53325, 0.7862595, 0.53325, 0.6641222, 0.53325, -3.129771
0.0635294, -0.0092317, 0.54, 0.0130005, 0.54, -1.005127, 0.54, -0.0991821, 0.54, 0.9770992, 0.54, 0.8778626, 0.54, -3.1832061
0.0643235, -0.0068818, 0.54675, 0.0131226, 0.54675, -1.012085, 0.54675, -0.0979004, 0.54675, 0.8931298, 0.54675, 1.0229008, 0.54675, -2.908397
0.0651176, -0.0075532, 0.5535, 0.010376, 0.5535, -1.0080566, 0.5535, -0.0930786, 0.5535, 0.908397, 0.5535, 1.2442749, 0.5535, -2.9770992
0.0659118, -0.0092317, 0.56025, 0.0140381, 0.56025, -1.0079346, 0.56025, -0.0947266, 0.56025, 0.9389313, 0.56025, 1.2290076, 0.56025, -2.9541984
0.0667059, -0.0082246, 0.567, 0.0112915, 0.567, -1.012146, 0.567, -0.0923462, 0.567, 0.9312977, 0.567, 1.0229008, 0.567, -2.8854961
0.0675, -0.012253, 0.57375, 0.0162964, 0.57375, -1.0139771, 0.57375, -0.0970459, 0.57375, 1.1221374, 0.57375, 0.8778626, 0.57375, -2.9541984
0.0682941, -0.0146029, 0.5805, 0.0236206, 0.5805, -1.0114136, 0.5805, -0.1018066, 0.5805, 1.1450381, 0.5805, 0.7480916, 0.5805, -2.9007633
0.0690882, -0.0129244, 0.58725, 0.0259399, 0.58725, -1.0068359, 0.58725, -0.1018066, 0.58725, 1.1908396, 0.58725, 1.4351145, 0.58725, -2.908397
0.0698824, -0.0169528, 0.594, 0.0237427, 0.594, -1.008667, 0.594, -0.0993652, 0.594, 1.2671756, 0.594, 1.7251909, 0.594, -2.9770992
0.0706765, -0.0186313, 0.60075, 0.019104, 0.60075, -1.0106812, 0.60075, -0.1002808, 0.60075, 1.1679389, 0.60075, 2.1145039, 0.60075, -2.870229
0.0714706, -0.0199741, 0.6075, 0.0161743, 0.6075, -1.0089722, 0.6075, -0.0990601, 0.6075, 1.3587786, 0.6075, 2.3053436, 0.6075, -3.0839694
0.0722647, -0.0186313, 0.61425, 0.012207, 0.61425, -1.0106201, 0.61425, -0.1010132, 0.61425, 1.3358779, 0.61425, 1.8778626, 0.61425, -3.0687022
0.0730588, -0.0182956, 0.621, 0.0074463, 0.621, -1.0074463, 0.621, -0.1040649, 0.621, 1.4656489, 0.621, 1.7175573, 0.621, -2.9236641
0.0738529, -0.0219883, 0.62775, 0.012146, 0.62775, -1.0053711, 0.62775, -0.1051025, 0.62775, 1.4580153, 0.62775, 1.351145, 0.62775, -3.1450381
0.0746471, -0.0216526, 0.6345, 0.0108032, 0.6345, -1.0046387, 0.6345, -0.1026611, 0.6345, 1.4122137, 0.6345, 1.2671756, 0.6345, -2.908397
0.0754412, -0.021149, 0.64125, 0.012146, 0.64125, -1.0061035, 0.64125, -0.1014404, 0.64125, 1.4427481, 0.64125, 1.0229008, 0.64125, -3.0229008
0.0762353, -0.0194705, 0.648, 0.0145264, 0.648, -1.005188, 0.648, -0.1046753, 0.648, 1.480916, 0.648, 0.8778626, 0.648, -3.1145039
0.0770294, -0.0186313, 0.65475, 0.0149536, 0.65475, -1.0042725, 0.65475, -0.104187, 0.65475, 1.6030535, 0.65475, 1.0839695, 0.65475, -3.0610688
0.0778235, -0.0203098, 0.6615, 0.0167236, 0.6615, -1.0062866, 0.6615, -0.1004639, 0.6615, 1.5648855, 0.6615, 1.1221374, 0.6615, -3.0305343
0.0786176, -0.018967, 0.66825, 0.0181885, 0.66825, -1.008606, 0.66825, -0.0981445, 0.66825, 1.6564885, 0.66825, 1.0610687, 0.66825, -2.9923663
0.0794118, -0.01561, 0.675, 0.0155029, 0.675, -1.0084229, 0.675, -0.0979004, 0.675, 1.5038168, 0.675, 1.1755725, 0.675, -2.9694657
0.0802059, -0.0132601, 0.68175, 0.017334, 0.68175, -1.0078125, 0.68175, -0.0965576, 0.68175, 1.4503816, 0.68175, 1.0305344, 0.68175, -3.0610688
0.081, -0.0135958, 0.6885, 0.0162964, 0.6885, -1.0063477, 0.6885, -0.0924072, 0.6885, 1.4427481, 0.6885, 1.2824427, 0.6885, -2.8396947
0.0817941, -0.01561, 0.69525, 0.0183716, 0.69525, -1.0102539, 0.69525, -0.0906372, 0.69525, 1.4961832, 0.69525, 1.1984733, 0.69525, -2.9160306
0.0825882, -0.0119173, 0.702, 0.0187988, 0.702, -1.0106812, 0.702, -0.0887451, 0.702, 1.3129771, 0.702, 1.1374046, 0.702, -2.8244274
0.0833824, -0.014435, 0.70875, 0.0170288, 0.70875, -1.0114746, 0.70875, -0.0888672, 0.70875, 1.1984733, 0.70875, 1.1450381, 0.70875, -2.6717558
0.0841765, -0.0171206, 0.7155, 0.0216064, 0.7155, -1.0091553, 0.7155, -0.0876465, 0.7155, 1.259542, 0.7155, 0.9541985, 0.7155, -2.6946564
0.0849706, -0.0114137, 0.72225, 0.0192261, 0.72225, -1.008728, 0.72225, -0.0889282, 0.72225, 1.2290076, 0.72225, 0.740458, 0.72225, -2.5954199
0.0857647, -0.0115816, 0.729, 0.0157471, 0.729, -1.0065918, 0.729, -0.0932617, 0.729, 1.2900764, 0.729, 0.6564885, 0.729, -2.7557251
0.0865588, -0.0169528, 0.73575, 0.0146484, 0.73575, -1.0080566, 0.73575, -0.0927734, 0.73575, 1.0610687, 0.73575, 0.4198473, 0.73575, -2.8549619
0.0873529, -0.0198062, 0.7425, 0.0120239, 0.7425, -1.0078125, 0.7425, -0.0929565, 0.7425, 0.908397, 0.7425, 0.4580153, 0.7425, -2.8015268
0.0881471, -0.0203098, 0.74925, 0.0107422, 0.74925, -1.0041504, 0.74925, -0.0924072, 0.74925, 0.7480916, 0.74925, 0.4427481, 0.74925, -2.8625953
0.0889412, -0.0209812, 0.756, 0.0082397, 0.756, -1.0016479, 0.756, -0.0939941, 0.756, 0.8244275, 0.756, 0.3053435, 0.756, -2.6335878
0.0897353, -0.0219883, 0.76275, 0.012207, 0.76275, -1.0032349, 0.76275, -0.0988159, 0.76275, 1.0229008, 0.76275, 0.0610687, 0.76275, -2.5496182
0.0905294, -0.023331, 0.7695, 0.0165405, 0.7695, -1.0082397, 0.7695, -0.1013184, 0.7695, 0.9236641, 0.7695, 0.221374, 0.7695, -2.5725191
0.0913235, -0.023331, 0.77625, 0.0154419, 0.77625, -1.0108032, 0.77625, -0.1046753, 0.77625, 0.9541985, 0.77625, 0.5038168, 0.77625, -2.4351146
0.0921176, -0.0206455, 0.783, 0.0222778, 0.783, -1.0089722, 0.783, -0.1040649, 0.783, 0.8854962, 0.783, 1.038168, 0.783, -2.3053436
0.0929118, -0.0199741, 0.78975, 0.020813, 0.78975, -1.0101929, 0.78975, -0.1060181, 0.78975, 0.9923664, 0.78975, 1.6030535, 0.78975, -2.4656489
0.0937059, -0.0198062, 0.7965, 0.0205688, 0.7965, -1.0122681, 0.7965, -0.1032104, 0.7965, 1.2519084, 0.7965, 1.8625954, 0.7965, -2.3358779
0.0945, -0.0169528, 0.80325, 0.0198364, 0.80325, -1.0122681, 0.80325, -0.1056519, 0.80325, 1.3664122, 0.80325, 2.0076337, 0.80325, -2.0992367
0.0952941, -0.0171206, 0.81, 0.0163574, 0.81, -1.0085449, 0.81, -0.1019897, 0.81, 1.3053435, 0.81, 2.1221373, 0.81, -2.0229008
0.0960882, -0.0090639, 0.81675, 0.0125732, 0.81675, -1.0087891, 0.81675, -0.0986938, 0.81675, 1.4885496, 0.81675, 1.8778626, 0.81675, -2.0763359
0.0968824, -0.0028534, 0.8235, 0.0093994, 0.8235, -1.005127, 0.8235, -0.0980835, 0.8235, 1.3587786, 0.8235, 1.6335878, 0.8235, -2.221374
0.0976765, -0.0072175, 0.83025, 0.0072021, 0.83025, -1.0058594, 0.83025, -0.097229, 0.83025, 1.5343511, 0.83025, 1.091603, 0.83025, -2.1908398
0.0984706, -0.0095674, 0.837, 0.0077515, 0.837, -1.0068359, 0.837, -0.0959473, 0.837, 1.8473282, 0.837, 0.7862595, 0.837, -2.3664122
0.0992647, -0.0102388, 0.84375, 0.0134888, 0.84375, -1.0074463, 0.84375, -0.09021, 0.84375, 1.6183206, 0.84375, 0.6870229, 0.84375, -2.2061069
0.1000588, -0.0105745, 0.8505, 0.0166016, 0.8505, -1.0074463, 0.8505, -0.0881958, 0.8505, 1.7938931, 0.8505, 1.129771, 0.8505, -1.8778626
0.1008529, -0.0119173, 0.85725, 0.019165, 0.85725, -1.0039062, 0.85725, -0.0897827, 0.85725, 1.908397, 0.85725, 1.7175573, 0.85725, -1.8320611
0.1016471, -0.01561, 0.864, 0.0221558, 0.864, -1.0057983, 0.864, -0.0877075, 0.864, 1.8778626, 0.864, 2.2671757, 0.864, -1.610687
0.1024412, -0.0157778, 0.87075, 0.0152588, 0.87075, -1.0087891, 0.87075, -0.0874634, 0.87075, 1.7480916, 0.87075, 2.3435113, 0.87075, -1.7480916
0.1032353, -0.0142672, 0.8775, 0.012146, 0.8775, -1.0076904, 0.8775, -0.09021, 0.8775, 1.7175573, 0.8775, 2.0305343, 0.8775, -1.8015267
0.1040294, -0.0157778, 0.88425, 0.0081787, 0.88425, -1.0123291, 0.88425, -0.0910034, 0.88425, 1.870229, 0.88425, 1.7709924, 0.88425, -1.6335878
0.1048235, -0.0157778, 0.891, 0.0102539, 0.891, -1.0117798, 0.891, -0.0900879, 0.891, 2.1221373, 0.891, 1.6030535, 0.891, -1.8167939
0.1056176, -0.0162814, 0.89775, 0.0116577, 0.89775, -1.0097046, 0.89775, -0.0925293, 0.89775, 2.1603053, 0.89775, 1.648855, 0.89775, -1.5648855
0.1064118, -0.0209812, 0.9045, 0.0162354, 0.9045, -1.0101929, 0.9045, -0.093689, 0.9045, 2.1679389, 0.9045, 1.7480916, 0.9045, -1.4656489
0.1072059, -0.021149, 0.91125, 0.0154419, 0.91125, -1.0130005, 0.91125, -0.0939331, 0.91125, 2.4885497, 0.91125, 2.0076337, 0.91125, -1.4885496
0.108, -0.0199741, 0.918, 0.0153198, 0.918, -1.0116577, 0.918, -0.0919189, 0.918, 2.7480917, 0.918, 2.1679389, 0.918, -1.4045801
0.1087941, -0.0196384, 0.92475, 0.0141602, 0.92475, -1.0098267, 0.92475, -0.0918579, 0.92475, 2.9770992, 0.92475, 2.2290077, 0.92475, -1.2824427
0.1095882, -0.0181277, 0.9315, 0.0133667, 0.9315, -1.0041504, 0.9315, -0.0983887, 0.9315, 3.0992367, 0.9315, 1.8244275, 0.9315, -1.351145
0.1103824, -0.018967, 0.93825, 0.0095215, 0.93825, -1.0054932, 0.93825, -0.1001587, 0.93825, 3.129771, 0.93825, 1.7557251, 0.93825, -1.5648855
0.1111765, -0.0172885, 0.945, 0.0115967, 0.945, -1.0062256, 0.945, -0.0926514, 0.945, 3.0992367, 0.945, 1.9694656, 0.945, -1.2137405
0.1119706, -0.0115816, 0.95175, 0.0113525, 0.95175, -1.0097656, 0.95175, -0.0874023, 0.95175, 3.5648854, 0.95175, 2.5954199, 0.95175, -1.3358779
0.1127647, -0.0109102, 0.9585, 0.0103149, 0.9585, -1.0137329, 0.9585, -0.0913086, 0.9585, 3.9236641, 0.9585, 2.4656489, 0.9585, -1.2900764
0.1135588, -0.0125887, 0.96525, 0.0075073, 0.96525, -1.0089111, 0.96525, -0.0932007, 0.96525, 4.1679387, 0.96525, 2.1526718, 0.96525, -1.2519084
0.1143529, -0.0129244, 0.972, 0.0075073, 0.972, -1.0083618, 0.972, -0.0887451, 0.972, 3.8549619, 0.972, 1.129771, 0.972, -1.1832061
0.1151471, -0.0135958, 0.97875, 0.0056763, 0.97875, -1.0056152, 0.97875, -0.0888062, 0.97875, 3.8167939, 0.97875, 0.8778626, 0.97875, -1.2748091
0.1159412, -0.0104067, 0.9855, 0.0095825, 0.9855, -1.0037842, 0.9855, -0.0911865, 0.9855, 3.6946564, 0.9855, 0.2137405, 0.9855, -1.1603054
0.1167353, -0.0095674, 0.99225, 0.010498, 0.99225, -1.0078125, 0.99225, -0.0895996, 0.99225, 3.6335878, 0.99225, 0.2290076, 0.99225, -1.129771
0.1175294, -0.0117494, 0.999, 0.006958, 0.999, -1.0099487, 0.999, -0.0882568, 0.999, 3.3587787, 0.999, 0.2519084, 0.999, -1.1374046
0.1183235, -0.0182956, 1.00575, 0.0037842, 1.00575, -1.0082397, 1.00575, -0.0910034, 1.00575, 3.129771, 1.00575, -0.5725191, 1.00575, -1.0458015
0.1191176, -0.0169528, 1.0125, 0.0070801, 1.0125, -1.0082397, 1.0125, -0.0891113, 1.0125, 2.870229, 1.0125, -1.038168, 1.0125, -1.0534351
0.1199118, -0.0146029, 1.01925, 0.0071411, 1.01925, -1.0064697, 1.01925, -0.0837402, 1.01925, 2.5038168, 1.01925, -1.3587786, 1.01925, -0.9160305
0.1207059, -0.0137636, 1.026, 0.005188, 1.026, -1.0095825, 1.026, -0.0862427, 1.026, 2.5877862, 1.026, -1.7633588, 1.026, -1.0763359
0.1215, -0.0179599, 1.03275, 0.0044556, 1.03275, -1.0101318, 1.03275, -0.081543, 1.03275, 2.4274809, 1.03275, -1.2900764, 1.03275, -1.0076336
0.1222941, -0.0193027, 1.0395, 0.0022583, 1.0395, -1.0075073, 1.0395, -0.0856323, 1.0395, 2.1603053, 1.0395, -1.5648855, 1.0395, -0.778626
0.1230882, -0.0157778, 1.04625, 0.0004883, 1.04625, -1.0056763, 1.04625, -0.0780029, 1.04625, 2.091603, 1.04625, -1.8015267, 1.04625, -0.908397
0.1238824, -0.0196384, 1.053, -0.0009766, 1.053, -1.0044556, 1.053, -0.0779419, 1.053, 2.0229008, 1.053, -2.3206108, 1.053, -0.8625954
0.1246765, -0.0213169, 1.05975, 0.0003052, 1.05975, -1.0011597, 1.05975, -0.0814209, 1.05975, 1.8473282, 1.05975, -2.4580152, 1.05975, -1.0229008
0.1254706, -0.0204776, 1.0665, 0.0005493, 1.0665, -1.0029297, 1.0665, -0.0864258, 1.0665, 1.6793894, 1.0665, -3, 1.0665, -0.9770992
0.1262647, -0.0216526, 1.07325, 0.0003662, 1.07325, -1.0033569, 1.07325, -0.0825806, 1.07325, 1.4122137, 1.07325, -2.8396947, 1.07325, -1.1221374
0.1270588, -0.018967, 1.08, -0.0005493, 1.08, -1.0023193, 1.08, -0.0878906, 1.08, 1.3969465, 1.08, -3.4732823, 1.08, -1.3740458
0.1278529, -0.0176242, 1.08675, 0.0003052, 1.08675, -1.0003052, 1.08675, -0.0881348, 1.08675, 1.0610687, 1.08675, -3.5725191, 1.08675, -1.3587786
0.1286471, -0.01561, 1.0935, -0.0003662, 1.0935, -1.0006104, 1.0935, -0.0877075, 1.0935, 0.7938932, 1.0935, -3.8167939, 1.0935, -1.4885496
0.1294412, -0.0135958, 1.10025, 0.0038452, 1.10025, -1.0036621, 1.10025, -0.0858154, 1.10025, 0.5343512, 1.10025, -3.8931298, 1.10025, -1.3587786
0.1302353, -0.0125887, 1.107, 0.0010376, 1.107, -1.0049438, 1.107, -0.0863037, 1.107, 0.4580153, 1.107, -4.0839696, 1.107, -1.3282443
0.1310294, -0.012253, 1.11375, -0.0028687, 1.11375, -1.0032349, 1.11375, -0.0793457, 1.11375, 0.0534351, 1.11375, -3.8396947, 1.11375, -1.3816794
0.1318235, -0.011078, 1.1205, -0.0010376, 1.1205, -1.0042725, 1.1205, -0.0811768, 1.1205, -0.0839695, 1.1205, -3.9847329, 1.1205, -1.3740458
0.1326176, -0.0146029, 1.12725, -0.0059814, 1.12725, -1.0065308, 1.12725, -0.0791626, 1.12725, -0.5877863, 1.12725, -4.1145039, 1.12725, -1.4274809
0.1334118, -0.0149386, 1.134, -0.0062866, 1.134, -1.0061035, 1.134, -0.079834, 1.134, -0.648855, 1.134, -4.3206105, 1.134, -1.5954199
0.1342059, -0.0124208, 1.14075, -0.0029297, 1.14075, -1.0054932, 1.14075, -0.0783081, 1.14075, -0.9770992, 1.14075, -4.3435116, 1.14075, -1.5725191
0.135, -0.0105745, 1.1475, -0.0020752, 1.1475, -1.0059814, 1.1475, -0.0814209, 1.1475, -1.0305344, 1.1475, -4.5954199, 1.1475, -1.5801526
0.1357941, -0.0102388, 1.15425, -0.0029297, 1.15425, -1.0065308, 1.15425, -0.0835571, 1.15425, -1.351145, 1.15425, -4.4732823, 1.15425, -1.519084
0.1365882, -0.0107424, 1.161, -0.0043945, 1.161, -1.0059814, 1.161, -0.0911255, 1.161, -1.3664122, 1.161, -4.3816795, 1.161, -1.7633588
0.1373824, -0.0135958, 1.16775, -0.0011597, 1.16775, -1.0085449, 1.16775, -0.0898438, 1.16775, -1.5343511, 1.16775, -4.4732823, 1.16775, -1.6335878
0.1381765, -0.0151064, 1.1745, 0.0025024, 1.1745, -1.0089111, 1.1745, -0.0913696, 1.1745, -1.7480916, 1.1745, -4.4885497, 1.1745, -1.5801526
0.1389706, -0.0203098, 1.18125, 0.0078735, 1.18125, -1.0060425, 1.18125, -0.0958252, 1.18125, -1.6412214, 1.18125, -4.3740458, 1.18125, -1.870229
0.1397647, -0.0176242, 1.188, 0.0080566, 1.188, -1.0085449, 1.188, -0.0980225, 1.188, -1.7938931, 1.188, -4.0458016, 1.188, -1.9312977
0.1405588, -0.0162814, 1.19475, 0.0071411, 1.19475, -1.0099487, 1.19475, -0.0996704, 1.19475, -1.8015267, 1.19475, -3.4732823, 1.19475, -1.9541985
0.1413529, -0.0132601, 1.2015, 0.0047607, 1.2015, -1.0085449, 1.2015, -0.1004639, 1.2015, -1.7251909, 1.2015, -2.9847329, 1.2015, -1.7251909
0.1421471, -0.0139315, 1.20825, 0.0019531, 1.20825, -1.0073853, 1.20825, -0.0993042, 1.20825, -1.6717557, 1.20825, -2.8091602, 1.20825, -1.8167939
0.1429412, -0.0135958, 1.215, -0.0012207, 1.215, -1.006958, 1.215, -0.0996704, 1.215, -1.7022901, 1.215, -2.6870229, 1.215, -1.7328244
0.1437353, -0.0082246, 1.22175, -0.0006714, 1.22175, -1.0064697, 1.22175, -0.1004028, 1.22175, -1.6717557, 1.22175, -2.6183207, 1.22175, -1.6793894
0.1445294, -0.0075532, 1.2285, -0.0011597, 1.2285, -1.0115356, 1.2285, -0.100708, 1.2285, -1.5343511, 1.2285, -2.6564887, 1.2285, -1.8244275
0.1453235, -0.0048676, 1.23525, -0.0008545, 1.23525, -1.007019, 1.23525, -0.1010742, 1.23525, -1.3816794, 1.23525, -2.4885497, 1.23525, -1.8473282
0.1461176, -0.0041962, 1.242, 0.0043335, 1.242, -1.008606, 1.242, -0.1020508, 1.242, -1.480916, 1.242, -2.2366412, 1.242, -1.9312977
0.1469118, -0.0060426, 1.24875, 0.0053101, 1.24875, -1.0119019, 1.24875, -0.1049194, 1.24875, -1.3129771, 1.24875, -1.7633588, 1.24875, -2.0229008
0.1477059, -0.0048676, 1.2555, 0.0021973, 1.2555, -1.0091553, 1.2555, -0.1052856, 1.2555, -1.3206106, 1.2555, -1.091603, 1.2555, -2.0763359
0.1485, -0.008896, 1.26225, -0.0013428, 1.26225, -1.0091553, 1.26225, -0.1072388, 1.26225, -1.0763359, 1.26225, -0.4656489, 1.26225, -1.9694656
0.1492941, -0.0068818, 1.269, -0.0028687, 1.269, -1.0080566, 1.269, -0.105896, 1.269, -1.0534351, 1.269, 0.0610687, 1.269, -1.9236641
0.1500882, -0.0041962, 1.27575, -0.00177, 1.27575, -1.010437, 1.27575, -0.1065674, 1.27575, -1.1145039, 1.27575, 0.2824427, 1.27575, -1.9389313
0.1508824, -0.0058747, 1.2825, -0.0031128, 1.2825, -1.0111084, 1.2825, -0.1036377, 1.2825, -0.8091603, 1.2825, 0.4503817, 1.2825, -2.0229008
0.1516765, -0.0095674, 1.28925, -0.0026245, 1.28925, -1.012207, 1.28925, -0.1072388, 1.28925, -0.8091603, 1.28925, 0.6870229, 1.28925, -2.1832061
0.1524706, -0.0132601, 1.296, -0.0045776, 1.296, -1.0096436, 1.296, -0.1028442, 1.296, -0.8854962, 1.296, 0.7938932, 1.296, -2.1450381
0.1532647, -0.0135958, 1.30275, -0.0072021, 1.30275, -1.0098877, 1.30275, -0.1018066, 1.30275, -0.6946565, 1.30275, 0.9312977, 1.30275, -2.1221373
0.1540588, -0.0186313, 1.3095, -0.007019, 1.3095, -1.0037842, 1.3095, -0.102356, 1.3095, -0.7328244, 1.3095, 0.9770992, 1.3095, -2.2977099
0.1548529, -0.0209812, 1.31625, -0.0093384, 1.31625, -1.0074463, 1.31625, -0.1016846, 1.31625, -0.6946565, 1.31625, 1, 1.31625, -2.5267177
0.1556471, -0.0206455, 1.323, -0.0129395, 1.323, -1.0101318, 1.323, -0.0983887, 1.323, -0.7557252, 1.323, 1.1068702, 1.323, -2.5114503
0.1564412, -0.0216526, 1.32975, -0.008606, 1.32975, -1.0093384, 1.32975, -0.0956421, 1.32975, -0.5343512, 1.32975, 1.1068702, 1.32975, -2.6335878
0.1572353, -0.0216526, 1.3365, -0.0094604, 1.3365, -1.0102539, 1.3365, -0.0947266, 1.3365, -0.3664122, 1.3365, 1.0229008, 1.3365, -2.8244274
0.1580294, -0.0240024, 1.34325, -0.0063477, 1.34325, -1.008728, 1.34325, -0.0940552, 1.34325, -0.3358779, 1.34325, 1.1526718, 1.34325, -2.8167939
0.1588235, -0.0209812, 1.35, -0.0078125, 1.35, -1.0111084, 1.35, -0.0935059, 1.35, -0.2900763, 1.35, 1.4274809, 1.35, -2.778626
0.1596176, -0.0176242, 1.35675, -0.0095825, 1.35675, -1.012085, 1.35675, -0.0942383, 1.35675, -0.3358779, 1.35675, 1.3206106, 1.35675, -2.9770992
0.1604118, -0.0172885, 1.3635, -0.0090942, 1.3635, -1.0123291, 1.3635, -0.0953369, 1.3635, -0.1984733, 1.3635, 1.480916, 1.3635, -3.1603053
0.1612059, -0.0152743, 1.37025, -0.0046997, 1.37025, -1.0092773, 1.37025, -0.095459, 1.37025, -0.2366412, 1.37025, 1.6564885, 1.37025, -3.0152671
0.162, -0.0203098, 1.377, -0.0075073, 1.377, -1.0099487, 1.377, -0.0947266, 1.377, -0.4351145, 1.377, 1.351145, 1.377, -3.2519083
0.1627941, -0.0191348, 1.38375, -0.0085449, 1.38375, -1.0128784, 1.38375, -0.0951538, 1.38375, -0.259542, 1.38375, 1.2748091, 1.38375, -3.2290077
0.1635882, -0.0182956, 1.3905, -0.0063477, 1.3905, -1.0088501, 1.3905, -0.0982056, 1.3905, -0.2977099, 1.3905, 1.1450381, 1.3905, -3.2366412
0.1643824, -0.0169528, 1.39725, -0.006958, 1.39725, -1.0072632, 1.39725, -0.0986328, 1.39725, -0.2671756, 1.39725, 0.8091603, 1.39725, -3.2290077
0.1651765, -0.0092317, 1.404, -0.0042725, 1.404, -1.0068359, 1.404, -0.1029663, 1.404, -0.3129771, 1.404, 1.038168, 1.404, -3.5114503
0.1659706, -0.0092317, 1.41075, -0.0079346, 1.41075, -1.0068359, 1.41075, -0.1011353, 1.41075, -0.4732825, 1.41075, 0.8625954, 1.41075, -3.5572519
0.1667647, -0.0135958, 1.4175, -0.0073853, 1.4175, -1.010437, 1.4175, -0.0997314, 1.4175, -0.4045801, 1.4175, 0.9465649, 1.4175, -3.6412213
0.1675588, -0.0140993, 1.42425, -0.0089111, 1.42425, -1.0094604, 1.42425, -0.1069946, 1.42425, -0.3206107, 1.42425, 0.7099237, 1.42425, -3.8015268
0.1683529, -0.0139315, 1.431, -0.0046997, 1.431, -1.0088501, 1.431, -0.1038208, 1.431, -0.2366412, 1.431, 0.6641222, 1.431, -3.9694657
0.1691471, -0.0162814, 1.43775, -0.0037842, 1.43775, -1.0097656, 1.43775, -0.1038208, 1.43775, -0.1755725, 1.43775, 0.8396947, 1.43775, -3.8167939
0.1699412, -0.0172885, 1.4445, -0.0059814, 1.4445, -1.0081787, 1.4445, -0.1080933, 1.4445, -0.1679389, 1.4445, 1.0076336, 1.4445, -3.7709923
0.1707353, -0.0198062, 1.45125, -0.003418, 1.45125, -1.0083008, 1.45125, -0.107666, 1.45125, -0.3358779, 1.45125, 1.2824427, 1.45125, -4
0.1715294, -0.0229953, 1.458, -0.0029907, 1.458, -1.0095215, 1.458, -0.1066895, 1.458, -0.2671756, 1.458, 1.4580153, 1.458, -4.038168
0.1723235, -0.0243381, 1.46475, -0.0023804, 1.46475, -1.0095215, 1.46475, -0.104187, 1.46475, -0.1755725, 1.46475, 1.5801526, 1.46475, -4.0305343
0.1731176, -0.0229953, 1.4715, -0.0018311, 1.4715, -1.0073242, 1.4715, -0.1051636, 1.4715, -0.1221374, 1.4715, 2.0458016, 1.4715, -4.0763359
0.1739118, -0.0209812, 1.47825, -0.0008545, 1.47825, -1.0112305, 1.47825, -0.1068726, 1.47825, -0.0076336, 1.47825, 2.0763359, 1.47825, -4.1603055
0.1747059, -0.0172885, 1.485, -0.0015869, 1.485, -1.0075073, 1.485, -0.1108398, 1.485, -0.0381679, 1.485, 2.1374047, 1.485, -4.1068702
0.1755, -0.0139315, 1.49175, -0.0015869, 1.49175, -1.0101929, 1.49175, -0.1061401, 1.49175, 0.0763359, 1.49175, 2.2366412, 1.49175, -4.1984735
0.1762941, -0.0137636, 1.4985, -0.0007324, 1.4985, -1.0088501, 1.4985, -0.1088867, 1.4985, 0.0916031, 1.4985, 2.2671757, 1.4985, -4.0458016
0.1770882, -0.0152743, 1.50525, -0.0010986, 1.50525, -1.0100708, 1.50525, -0.1091309, 1.50525, 0.2824427, 1.50525, 2.6259542, 1.50525, -4.1679387
0.1778824, -0.012253, 1.512, 0.0014038, 1.512, -1.0089111, 1.512, -0.1085815, 1.512, 0.221374, 1.512, 2.480916, 1.512, -4.0839696
0.1786765, -0.0095674, 1.51875, 0.0016479, 1.51875, -1.0098267, 1.51875, -0.1097412, 1.51875, 0.5648855, 1.51875, 2.5801528, 1.51875, -4.1984735
0.1794706, -0.012253, 1.5255, -0.00177, 1.5255, -1.0114136, 1.5255, -0.1105957, 1.5255, 0.7251908, 1.5255, 2.648855, 1.5255, -4.2824426
0.1802647, -0.0135958, 1.53225, -0.0025635, 1.53225, -1.0081177, 1.53225, -0.1088257, 1.53225, 0.7175573, 1.53225, 2.5419848, 1.53225, -4.1832061
0.1810588, -0.0169528, 1.539, -0.0019531, 1.539, -1.0090942, 1.539, -0.1135254, 1.539, 0.9923664, 1.539, 2.1603053, 1.539, -4.1755724
0.1818529, -0.0152743, 1.54575, 0.0031738, 1.54575, -1.0112915, 1.54575, -0.1118774, 1.54575, 1.129771, 1.54575, 2.0076337, 1.54575, -4.3511453
0.1826471, -0.01561, 1.5525, 0.0047607, 1.5525, -1.0082397, 1.5525, -0.1099854, 1.5525, 1.1984733, 1.5525, 1.8167939, 1.5525, -4.3816795
0.1834412, -0.018967, 1.55925, 0.0036011, 1.55925, -1.0100708, 1.55925, -0.1107178, 1.55925, 1.221374, 1.55925, 1.8091604, 1.55925, -4.3587785
0.1842353, -0.0193027, 1.566, 0.0031128, 1.566, -1.0074463, 1.566, -0.1101685, 1.566, 1.4122137, 1.566, 1.961832, 1.566, -4.3053436
0.1850294, -0.018967, 1.57275, 0.0048218, 1.57275, -1.0065918, 1.57275, -0.1090698, 1.57275, 1.6183206, 1.57275, 2.2442749, 1.57275, -4.4427481
0.1858235, -0.0203098, 1.5795, 0.0004272, 1.5795, -1.0075073, 1.5795, -0.1070557, 1.5795, 1.5725191, 1.5795, 2.6030533, 1.5795, -4.4656487
0.1866176, -0.0182956, 1.58625, -0.0001221, 1.58625, -1.008728, 1.58625, -0.1080322, 1.58625, 1.6793894, 1.58625, 2.2519083, 1.58625, -4.4885497
0.1874118, -0.0223239, 1.593, -0.0068359, 1.593, -1.0062866, 1.593, -0.105896, 1.593, 1.648855, 1.593, 2.0992367, 1.593, -4.6183205
0.1882059, -0.0246738, 1.59975, -0.0033569, 1.59975, -1.0067139, 1.59975, -0.1047974, 1.59975, 1.6412214, 1.59975, 2.0152671, 1.59975, -4.3969464
0.189, -0.0263523, 1.6065, -0.0001221, 1.6065, -1.0081787, 1.6065, -0.1029053, 1.6065, 1.5038168, 1.6065, 1.9007634, 1.6065, -4.5343513
0.1897941, -0.0275273, 1.61325, 0.0018921, 1.61325, -1.0070801, 1.61325, -0.1028442, 1.61325, 1.5572519, 1.61325, 1.7557251, 1.61325, -4.3893127
0.1905882, -0.027863, 1.62, 0.0042114, 1.62, -1.0067139, 1.62, -0.1031494, 1.62, 1.7557251, 1.62, 1.8549619, 1.62, -4.4045801
0.1913824, -0.0250095, 1.62675, 0.0053711, 1.62675, -1.0081787, 1.62675, -0.1021118, 1.62675, 1.5877863, 1.62675, 1.9160305, 1.62675, -4.3816795
0.1921765, -0.0231632, 1.6335, 0.0027466, 1.6335, -1.0056152, 1.6335, -0.1040039, 1.6335, 1.8473282, 1.6335, 1.8625954, 1.6335, -4.5496182
0.1929706, -0.0203098, 1.64025, -0.0007324, 1.64025, -1.0074463, 1.64025, -0.1015625, 1.64025, 1.4885496, 1.64025, 1.6946565, 1.64025, -4.3664122
0.1937647, -0.0193027, 1.647, 0.0007324, 1.647, -1.008667, 1.647, -0.0978394, 1.647, 1.5801526, 1.647, 1.2900764, 1.647, -4.4580154
0.1945588, -0.0203098, 1.65375, 0.0021973, 1.65375, -1.0063477, 1.65375, -0.0996704, 1.65375, 1.6412214, 1.65375, 1.0534351, 1.65375, -4.3893127
0.1953529, -0.0191348, 1.6605, 0.0028687, 1.6605, -1.0067139, 1.6605, -0.0997314, 1.6605, 1.6641221, 1.6605, 1.1984733, 1.6605, -4.3740458
0.1961471, -0.0149386, 1.66725, 0.0032349, 1.66725, -1.0071411, 1.66725, -0.0979004, 1.66725, 1.6870229, 1.66725, 0.9465649, 1.66725, -4.3664122
0.1969412, -0.0099031, 1.674, 0.0064087, 1.674, -1.0079956, 1.674, -0.0963745, 1.674, 1.6259542, 1.674, 1.0305344, 1.674, -4.2442746
0.1977353, -0.0082246, 1.68075, 0.0062866, 1.68075, -1.0071411, 1.68075, -0.0951538, 1.68075, 1.6870229, 1.68075, 1.2824427, 1.68075, -4.1755724
0.1985294, -0.0045319, 1.6875, 0.0049438, 1.6875, -1.0071411, 1.6875, -0.0962524, 1.6875, 1.6259542, 1.6875, 1.2671756, 1.6875, -4.3816795
0.1993235, -0.0082246, 1.69425, 0.0042114, 1.69425, -1.0047607, 1.69425, -0.0974121, 1.69425, 1.6717557, 1.69425, 1.3129771, 1.69425, -4.1984735
0.2001176, -0.0102388, 1.701, 0.0013428, 1.701, -1.0060425, 1.701, -0.0975342, 1.701, 1.4427481, 1.701, 1.1832061, 1.701, -4.3740458
0.2009118, -0.0132601, 1.70775, 0.0030518, 1.70775, -1.0064697, 1.70775, -0.0965576, 1.70775, 1.648855, 1.70775, 1.1526718, 1.70775, -4.1221375
0.2017059, -0.0142672, 1.7145, 0.0032349, 1.7145, -1.0084839, 1.7145, -0.0959473, 1.7145, 1.4885496, 1.7145, 1.0076336, 1.7145, -4.1145039
0.2025, -0.0135958, 1.72125, 0.0048218, 1.72125, -1.0057373, 1.72125, -0.0948486, 1.72125, 1.4885496, 1.72125, 0.9847328, 1.72125, -4.0687022
0.2032941, -0.0191348, 1.728, 0.0064087, 1.728, -1.0073242, 1.728, -0.0947266, 1.728, 1.2366412, 1.728, 0.8549618, 1.728, -4
0.2040882, -0.0206455, 1.73475, 0.0073853, 1.73475, -1.0058594, 1.73475, -0.1011353, 1.73475, 1.259542, 1.73475, 0.8320611, 1.73475, -4.0534353
0.2048824, -0.0179599, 1.7415, 0.0090332, 1.7415, -1.0087891, 1.7415, -0.1016846, 1.7415, 1.1526718, 1.7415, 0.7557252, 1.7415, -3.8396947
0.2056765, -0.0149386, 1.74825, 0.0070801, 1.74825, -1.0076294, 1.74825, -0.0993652, 1.74825, 1.0992366, 1.74825, 0.9236641, 1.74825, -4.0229006
0.2064706, -0.0176242, 1.755, 0.0063477, 1.755, -1.0083618, 1.755, -0.0971069, 1.755, 1.0534351, 1.755, 0.9694657, 1.755, -3.8625953
0.2072647, -0.0172885, 1.76175, 0.0074463, 1.76175, -1.0053101, 1.76175, -0.0994263, 1.76175, 1.1603054, 1.76175, 0.9770992, 1.76175, -3.9389312
0.2080588, -0.0151064, 1.7685, 0.0036621, 1.7685, -1.0059814, 1.7685, -0.0965576, 1.7685, 1.1145039, 1.7685, 0.8778626, 1.7685, -3.9694657
0.2088529, -0.012253, 1.77525, 0.0042114, 1.77525, -1.0074463, 1.77525, -0.0963745, 1.77525, 1.1068702, 1.77525, 0.4732825, 1.77525, -3.8625953
0.2096471, -0.0115816, 1.782, 0.0094604, 1.782, -1.0106812, 1.782, -0.097229, 1.782, 1.0305344, 1.782, 0.3816794, 1.782, -3.778626
0.2104412, -0.008896, 1.78875, 0.0114136, 1.78875, -1.0072632, 1.78875, -0.0941772, 1.78875, 1.1374046, 1.78875, 0.5877863, 1.78875, -3.7022901
0.2112353, -0.0063783, 1.7955, 0.0079346, 1.7955, -1.0061646, 1.7955, -0.09552, 1.7955, 1.1374046, 1.7955, 0.7709923, 1.7955, -3.6793892
0.2120294, -0.0041962, 1.80225, 0.0055542, 1.80225, -1.0073853, 1.80225, -0.0987549, 1.80225, 0.9770992, 1.80225, 0.8549618, 1.80225, -3.5267177
0.2128235, -0.0058747, 1.809, 0.0039062, 1.809, -1.0064697, 1.809, -0.0999756, 1.809, 0.8778626, 1.809, 0.5725191, 1.809, -3.5648854
0.2136176, -0.0082246, 1.81575, 0.0067139, 1.81575, -1.0057983, 1.81575, -0.0994263, 1.81575, 1.0152671, 1.81575, 0.4351145, 1.81575, -3.6641221
0.2144118, -0.0072175, 1.8225, 0.0090332, 1.8225, -1.0063477, 1.8225, -0.098999, 1.8225, 1.091603, 1.8225, 0.4732825, 1.8225, -3.6946564
0.2152059, -0.0068818, 1.82925, 0.0112305, 1.82925, -1.008728, 1.82925, -0.0982056, 1.82925, 1.3358779, 1.82925, 0.6717557, 1.82925, -3.4503818
0.216, -0.0075532, 1.836, 0.0089722, 1.836, -1.0072632, 1.836, -0.1017456, 1.836, 1.1374046, 1.836, 0.6412213, 1.836, -3.4580152
0.2167941, -0.0068818, 1.84275, 0.0063477, 1.84275, -1.008667, 1.84275, -0.0995483, 1.84275, 1.129771, 1.84275, 0.6641222, 1.84275, -3.4503818
0.2175882, -0.0058747, 1.8495, 0.0079346, 1.8495, -1.0073853, 1.8495, -0.0980225, 1.8495, 1.0229008, 1.8495, 0.6030535, 1.8495, -3.4427481
0.2183824, -0.008896, 1.85625, 0.0073853, 1.85625, -1.0090332, 1.85625, -0.0950928, 1.85625, 1, 1.85625, 0.3435115, 1.85625, -3.3053436
0.2191765, -0.0104067, 1.863, 0.0093384, 1.863, -1.0061035, 1.863, -0.0952759, 1.863, 0.9007633, 1.863, 0.2671756, 1.863, -3.2977099
0.2199706, -0.0125887, 1.86975, 0.0109253, 1.86975, -1.0077515, 1.86975, -0.097168, 1.86975, 0.9770992, 1.86975, 0.1908397, 1.86975, -3.3282442
0.2207647, -0.0149386, 1.8765, 0.0083618, 1.8765, -1.0054321, 1.8765, -0.1011353, 1.8765, 0.8625954, 1.8765, 0.2519084, 1.8765, -3.3740458
0.2215588, -0.0172885, 1.88325, 0.0059814, 1.88325, -1.0073853, 1.88325, -0.0995483, 1.88325, 0.8549618, 1.88325, -0.0916031, 1.88325, -3.1145039
0.2223529, -0.0199741, 1.89, 0.0076904, 1.89, -1.0064697, 1.89, -0.0942993, 1.89, 0.7633588, 1.89, 0, 1.89, -3.3740458
0.2231471, -0.0196384, 1.89675, 0.0062256, 1.89675, -1.0065308, 1.89675, -0.098999, 1.89675, 0.8320611, 1.89675, -0.1221374, 1.89675, -3.2061069
0.2239412, -0.0204776, 1.9035, 0.0029907, 1.9035, -1.0067749, 1.9035, -0.098877, 1.9035, 0.8167939, 1.9035, -0.1984733, 1.9035, -3.0839694
0.2247353, -0.0203098, 1.91025, 0.0043945, 1.91025, -1.010376, 1.91025, -0.0969849, 1.91025, 0.7328244, 1.91025, -0.3358779, 1.91025, -2.8931298
0.2255294, -0.0149386, 1.917, 0.0065918, 1.917, -1.0075073, 1.917, -0.0975952, 1.917, 0.7709923, 1.917, -0.3816794, 1.917, -3.1755726
0.2263235, -0.0166171, 1.92375, 0.008667, 1.92375, -1.0081177, 1.92375, -0.1005249, 1.92375, 0.7633588, 1.92375, -0.4580153, 1.92375, -3.2900763
0.2271176, -0.0172885, 1.9305, 0.0133667, 1.9305, -1.0064697, 1.9305, -0.0987549, 1.9305, 0.6335878, 1.9305, -0.1526718, 1.9305, -2.9770992
0.2279118, -0.012253, 1.93725, 0.0105591, 1.93725, -1.0064087, 1.93725, -0.1010132, 1.93725, 0.6793893, 1.93725, -0.0534351, 1.93725, -3.038168
0.2287059, -0.0109102, 1.944, 0.0108032, 1.944, -1.0070801, 1.944, -0.1009521, 1.944, 0.6793893, 1.944, 0.0992366, 1.944, -2.8854961
0.2295, -0.0095674, 1.95075, 0.0112305, 1.95075, -1.0083618, 1.95075, -0.1017456, 1.95075, 0.5801527, 1.95075, 0.1526718, 1.95075, -2.8244274
0.2302941, -0.0092317, 1.9575, 0.0075073, 1.9575, -1.0093994, 1.9575, -0.104187, 1.9575, 0.7633588, 1.9575, 0.1068702, 1.9575, -2.8549619
0.2310882, -0.0099031, 1.96425, 0.0088501, 1.96425, -1.0090332, 1.96425, -0.1037598, 1.96425, 0.7480916, 1.96425, 0.1526718, 1.96425, -2.8778627
0.2318824, -0.0104067, 1.971, 0.0097046, 1.971, -1.0083008, 1.971, -0.1055908, 1.971, 0.8778626, 1.971, -0.0229008, 1.971, -2.9465649
0.2326765, -0.0109102, 1.97775, 0.0099487, 1.97775, -1.0092163, 1.97775, -0.1099243, 1.97775, 0.7328244, 1.97775, -0.1221374, 1.97775, -2.9389312
0.2334706, -0.0129244, 1.9845, 0.0133057, 1.9845, -1.0090332, 1.9845, -0.1083374, 1.9845, 0.9007633, 1.9845, 0.0229008, 1.9845, -2.8549619
0.2342647, -0.0142672, 1.99125, 0.0108643, 1.99125, -1.0126953, 1.99125, -0.1051636, 1.99125, 0.9541985, 1.99125, 0.129771, 1.99125, -2.8167939
0.2350588, -0.0142672, 1.998, 0.0057983, 1.998, -1.0072632, 1.998, -0.105835, 1.998, 0.9389313, 1.998, 0.2137405, 1.998, -2.7251909
0.2358529, -0.0152743, 2.00475, 0.0067749, 2.00475, -1.003479, 2.00475, -0.1022949, 2.00475, 1.0229008, 2.00475, 0.0763359, 2.00475, -2.7175572
0.2366471, -0.0162814, 2.0115, 0.0070801, 2.0115, -1.0056152, 2.0115, -0.1039429, 2.0115, 0.9541985, 2.0115, -0.0152672, 2.0115, -2.4732823
0.2374412, -0.0169528, 2.01825, 0.0058594, 2.01825, -1.0075684, 2.01825, -0.1010132, 2.01825, 1.038168, 2.01825, -0.0687023, 2.01825, -2.5572519
0.2382353, -0.0172885, 2.025, 0.0048828, 2.025, -1.0042114, 2.025, -0.1020508, 2.025, 1.1221374, 2.025, -0.0305344, 2.025, -2.5954199
0.2390294, -0.0203098, 2.03175, 0.0053101, 2.03175, -1.0081787, 2.03175, -0.1016235, 2.03175, 1.1374046, 2.03175, -0.0076336, 2.03175, -2.5877862
0.2398235, -0.021149, 2.0385, 0.005249, 2.0385, -1.0081177, 2.0385, -0.1011963, 2.0385, 1.0839695, 2.0385, 0.0076336, 2.0385, -2.389313
0.2406176, -0.0203098, 2.04525, 0.0058594, 2.04525, -1.0103149, 2.04525, -0.1022949, 2.04525, 1.0229008, 2.04525, 0.0687023, 2.04525, -2.5801528
0.2414118, -0.0209812, 2.052, 0.0056763, 2.052, -1.0095215, 2.052, -0.0973511, 2.052, 1.0152671, 2.052, 0.1526718, 2.052, -2.4961832
0.2422059, -0.0213169, 2.05875, 0.0039673, 2.05875, -1.005188, 2.05875, -0.1016235, 2.05875, 0.9923664, 2.05875, 0.2061069, 2.05875, -2.5038168
0.243, -0.0152743, 2.0655, 0.0032349, 2.0655, -1.0084839, 2.0655, -0.0997314, 2.0655, 1.0687023, 2.0655, 0.0687023, 2.0655, -2.5496182
0.2437941, -0.01561, 2.07225, 0.0018921, 2.07225, -1.0103149, 2.07225, -0.1013184, 2.07225, 0.9236641, 2.07225, 0.0458015, 2.07225, -2.4732823
0.2445882, -0.0162814, 2.079, 0.0040894, 2.079, -1.0083618, 2.079, -0.0997314, 2.079, 0.9160305, 2.079, -0.1603053, 2.079, -2.3664122
0.2453824, -0.0137636, 2.08575, 0.0018921, 2.08575, -1.0078735, 2.08575, -0.1010742, 2.08575, 0.908397, 2.08575, -0.1221374, 2.08575, -2.5954199
0.2461765, -0.0129244, 2.0925, 0.0018921, 2.0925, -1.0101929, 2.0925, -0.100769, 2.0925, 1.0152671, 2.0925, -0.2900763, 2.0925, -2.8091602
0.2469706, -0.0109102, 2.09925, 0.0061646, 2.09925, -1.0070801, 2.09925, -0.1021729, 2.09925, 0.9236641, 2.09925, -0.3740458, 2.09925, -2.7022901
0.2477647, -0.0090639, 2.106, 0.005188, 2.106, -1.0070801, 2.106, -0.1036987, 2.106, 0.908397, 2.106, -0.259542, 2.106, -2.4198472
0.2485588, -0.0102388, 2.11275, 0.0091553, 2.11275, -1.0064697, 2.11275, -0.1038208, 2.11275, 0.870229, 2.11275, -0.0305344, 2.11275, -2.6030533
0.2493529, -0.011078, 2.1195, 0.0067139, 2.1195, -1.006897, 2.1195, -0.1016235, 2.1195, 1.0152671, 2.1195, 0.1832061, 2.1195, -2.5954199
0.2501471, -0.0105745, 2.12625, 0.0022583, 2.12625, -1.0066528, 2.12625, -0.100647, 2.12625, 0.9923664, 2.12625, 0.0152672, 2.12625, -2.6030533
0.2509412, -0.0109102, 2.133, 0.0012817, 2.133, -1.0076904, 2.133, -0.1033325, 2.133, 1.0687023, 2.133, -0.1068702, 2.133, -2.6946564
0.2517353, -0.0132601, 2.13975, 0.0032959, 2.13975, -1.0066528, 2.13975, -0.1026001, 2.13975, 0.9541985, 2.13975, -0.2824427, 2.13975, -2.648855
0.2525294, -0.0172885, 2.1465, 0.0015259, 2.1465, -1.0083618, 2.1465, -0.1047363, 2.1465, 0.9312977, 2.1465, -0.129771, 2.1465, -2.5496182
0.2533235, -0.0216526, 2.15325, -0.0001221, 2.15325, -1.008606, 2.15325, -0.1013184, 2.15325, 1.038168, 2.15325, -0.0916031, 2.15325, -2.6717558
0.2541176, -0.0209812, 2.16, 0.0006714, 2.16, -1.0084229, 2.16, -0.1018677, 2.16, 0.8396947, 2.16, -0.0381679, 2.16, -2.3587787
0.2549118, -0.0203098, 2.16675, -0.0007935, 2.16675, -1.0097656, 2.16675, -0.1062012, 2.16675, 0.8854962, 2.16675, -0.3282443, 2.16675, -2.4198472
0.2557059, -0.0224918, 2.1735, 0.00177, 2.1735, -1.0120239, 2.1735, -0.1010742, 2.1735, 1.1832061, 2.1735, -0.1374046, 2.1735, -2.6717558
0.2565, -0.0263523, 2.18025, 0.0012207, 2.18025, -1.0113525, 2.18025, -0.098938, 2.18025, 1.1679389, 2.18025, -0.0610687, 2.18025, -2.8091602
0.2572941, -0.0251774, 2.187, 0.0009155, 2.187, -1.0072632, 2.187, -0.1027222, 2.187, 1.0458015, 2.187, 0, 2.187, -2.8091602
0.2580882, -0.0261845, 2.19375, -0.0018311, 2.19375, -1.0056152, 2.19375, -0.1030884, 2.19375, 0.8931298, 2.19375, 0.1221374, 2.19375, -2.740458
0.2588824, -0.0246738, 2.2005, 0.0011597, 2.2005, -1.0072632, 2.2005, -0.1004639, 2.2005, 1.0763359, 2.2005, 0.0916031, 2.2005, -2.6335878
0.2596765, -0.0203098, 2.20725, 0.0012207, 2.20725, -1.0092163, 2.20725, -0.0980835, 2.20725, 1.2061069, 2.20725, 0.0687023, 2.20725, -2.778626
0.2604706, -0.0209812, 2.214, 0.0015259, 2.214, -1.0068359, 2.214, -0.1026001, 2.214, 1.1526718, 2.214, 0.1221374, 2.214, -2.9694657
0.2612647, -0.0209812, 2.22075, 0.0042725, 2.22075, -1.0063477, 2.22075, -0.1008911, 2.22075, 1.1526718, 2.22075, 0.1374046, 2.22075, -2.7709923
0.2620588, -0.0157778, 2.2275, 0.0053711, 2.2275, -1.0084839, 2.2275, -0.098999, 2.2275, 1.0458015, 2.2275, 0.1908397, 2.2275, -2.8396947
0.2628529, -0.01561, 2.23425, 0.0079346, 2.23425, -1.0101318, 2.23425, -0.1046143, 2.23425, 1.2061069, 2.23425, 0.3816794, 2.23425, -2.8396947
0.2636471, -0.0152743, 2.241, 0.0081787, 2.241, -1.0094604, 2.241, -0.1029053, 2.241, 1.2290076, 2.241, 0.5343512, 2.241, -2.961832
0.2644412, -0.0157778, 2.24775, 0.0064697, 2.24775, -1.005188, 2.24775, -0.1032104, 2.24775, 1.1755725, 2.24775, 0.8931298, 2.24775, -2.6870229
0.2652353, -0.0152743, 2.2545, 0.0047607, 2.2545, -1.0046997, 2.2545, -0.1016846, 2.2545, 1.0839695, 2.2545, 1.0458015, 2.2545, -2.7480917
0.2660294, -0.0135958, 2.26125, 0.0022583, 2.26125, -1.0043945, 2.26125, -0.1039429, 2.26125, 1.2900764, 2.26125, 1.0458015, 2.26125, -2.778626
0.2668235, -0.0129244, 2.268, -0.0006104, 2.268, -1.0068359, 2.268, -0.104248, 2.268, 1.3358779, 2.268, 0.8778626, 2.268, -2.648855
0.2676176, -0.0095674, 2.27475, -0.0001221, 2.27475, -1.0079346, 2.27475, -0.1039429, 2.27475, 1.259542, 2.27475, 0.7328244, 2.27475, -2.5725191
0.2684118, -0.0095674, 2.2815, 0.0005493, 2.2815, -1.0085449, 2.2815, -0.1005859, 2.2815, 1.3129771, 2.2815, 0.4351145, 2.2815, -2.6641221
0.2692059, -0.0117494, 2.28825, 0.0020752, 2.28825, -1.0077515, 2.28825, -0.0993042, 2.28825, 1.2290076, 2.28825, 0.3816794, 2.28825, -2.6641221
0.27, -0.0142672, 2.295, 0.0056152, 2.295, -1.0090942, 2.295, -0.0991821, 2.295, 1.2290076, 2.295, 0.5877863, 2.295, -2.6870229
0.2707941, -0.012253, 2.30175, 0.0050659, 2.30175, -1.0097046, 2.30175, -0.0988159, 2.30175, 1.2290076, 2.30175, 0.8396947, 2.30175, -2.7328243
0.2715882, -0.0135958, 2.3085, 0.0016479, 2.3085, -1.0092163, 2.3085, -0.0960693, 2.3085, 1.2366412, 2.3085, 0.9389313, 2.3085, -2.961832
0.2723824, -0.0159457, 2.31525, 0.0028076, 2.31525, -1.0089722, 2.31525, -0.098938, 2.31525, 1.2137405, 2.31525, 1.1603054, 2.31525, -2.8778627
0.2731765, -0.0172885, 2.322, -0.0007935, 2.322, -1.0081177, 2.322, -0.0973511, 2.322, 1.1832061, 2.322, 1.1374046, 2.322, -2.8549619
0.2739706, -0.018967, 2.32875, -0.0004272, 2.32875, -1.0097046, 2.32875, -0.0960693, 2.32875, 1.2366412, 2.32875, 1.2366412, 2.32875, -2.9389312
0.2747647, -0.0182956, 2.3355, 0.0018311, 2.3355, -1.0083618, 2.3355, -0.0933228, 2.3355, 0.9312977, 2.3355, 1.1221374, 2.3355, -2.7557251
0.2755588, -0.0135958, 2.34225, 0.0013428, 2.34225, -1.0122681, 2.34225, -0.0979004, 2.34225, 1.1679389, 2.34225, 1.0534351, 2.34225, -2.778626
0.2763529, -0.0139315, 2.349, 0.0021973, 2.349, -1.0110474, 2.349, -0.0982666, 2.349, 1.1908396, 2.349, 1.2366412, 2.349, -2.8244274
0.2771471, -0.0149386, 2.35575, 0.0012207, 2.35575, -1.0120239, 2.35575, -0.0995483, 2.35575, 1.091603, 2.35575, 1.2748091, 2.35575, -2.7175572
0.2779412, -0.0162814, 2.3625, 0.0001831, 2.3625, -1.0084839, 2.3625, -0.0966187, 2.3625, 1.038168, 2.3625, 1.1526718, 2.3625, -2.8320611
0.2787353, -0.0149386, 2.36925, -0.0012817, 2.36925, -1.0098267, 2.36925, -0.0994263, 2.36925, 0.9694657, 2.36925, 1.2290076, 2.36925, -2.9923663
0.2795294, -0.0115816, 2.376, -0.0026245, 2.376, -1.0079956, 2.376, -0.098877, 2.376, 1.1068702, 2.376, 1.1679389, 2.376, -3.0076337
0.2803235, -0.0115816, 2.38275, -0.0015259, 2.38275, -1.0043335, 2.38275, -0.1000366, 2.38275, 1.1450381, 2.38275, 1.038168, 2.38275, -2.8549619
0.2811176, -0.0099031, 2.3895, -0.0012207, 2.3895, -1.0050659, 2.3895, -0.0967407, 2.3895, 0.9847328, 2.3895, 0.9312977, 2.3895, -2.8854961
0.2819118, -0.0082246, 2.39625, -0.0015259, 2.39625, -1.0073853, 2.39625, -0.0973511, 2.39625, 1.0839695, 2.39625, 1.0534351, 2.39625, -3.1145039
0.2827059, -0.0068818, 2.403, -0.0018921, 2.403, -1.0068359, 2.403, -0.0973511, 2.403, 1.1068702, 2.403, 0.8549618, 2.403, -2.9923663
0.2835, -0.0109102, 2.40975, -0.0023804, 2.40975, -1.0067749, 2.40975, -0.0987549, 2.40975, 0.9312977, 2.40975, 0.6793893, 2.40975, -3.0076337
0.2842941, -0.0085603, 2.4165, 0.0029297, 2.4165, -1.0062256, 2.4165, -0.0993042, 2.4165, 0.8931298, 2.4165, 0.6641222, 2.4165, -3.1603053
0.2850882, -0.0146029, 2.42325, 0.0045776, 2.42325, -1.0081787, 2.42325, -0.0995483, 2.42325, 0.9312977, 2.42325, 0.7328244, 2.42325, -3.0305343
0.2858824, -0.0159457, 2.43, 0.0026855, 2.43, -1.0089111, 2.43, -0.1004028, 2.43, 0.908397, 2.43, 0.9160305, 2.43, -2.9770992
0.2866765, -0.0152743, 2.43675, -0.0010986, 2.43675, -1.0072021, 2.43675, -0.098938, 2.43675, 0.9465649, 2.43675, 1.0152671, 2.43675, -2.9389312
0.2874706, -0.018967, 2.4435, -0.0011597, 2.4435, -1.0092773, 2.4435, -0.0991821, 2.4435, 0.7099237, 2.4435, 0.8320611, 2.4435, -3.0687022
0.2882647, -0.0184634, 2.45025, -0.0040283, 2.45025, -1.008667, 2.45025, -0.0991211, 2.45025, 0.8320611, 2.45025, 0.4656489, 2.45025, -3.0458016
0.2890588, -0.0231632, 2.457, -0.0006104, 2.457, -1.0059814, 2.457, -0.102417, 2.457, 1.0534351, 2.457, 0.5725191, 2.457, -3.0458016
0.2898529, -0.0196384, 2.46375, 0.00177, 2.46375, -1.0095825, 2.46375, -0.0984497, 2.46375, 1.0076336, 2.46375, 0.7862595, 2.46375, -3.1221373
0.2906471, -0.0186313, 2.4705, 0.0045166, 2.4705, -1.0081177, 2.4705, -0.09729, 2.4705, 1.0229008, 2.4705, 0.7175573, 2.4705, -3.1679389
0.2914412, -0.0203098, 2.47725, -0.0006104, 2.47725, -1.0081787, 2.47725, -0.0967407, 2.47725, 1, 2.47725, 0.6870229, 2.47725, -3.1450381
0.2922353, -0.0203098, 2.484, -0.0026855, 2.484, -1.0095825, 2.484, -0.0999756, 2.484, 1.2137405, 2.484, 0.8167939, 2.484, -3.3664122
0.2930294, -0.0226596, 2.49075, -0.0042114, 2.49075, -1.0073242, 2.49075, -0.0964355, 2.49075, 0.9847328, 2.49075, 0.6183206, 2.49075, -3.2748091
0.2938235, -0.0236667, 2.4975, -0.0032349, 2.4975, -1.0072021, 2.4975, -0.0999756, 2.4975, 1.0229008, 2.4975, 0.5725191, 2.4975, -3.1526718
0.2946176, -0.0186313, 2.50425, -0.0007324, 2.50425, -1.0087891, 2.50425, -0.0993652, 2.50425, 1.0534351, 2.50425, 0.3282443, 2.50425, -3.2290077
0.2954118, -0.0169528, 2.511, 0.0009766, 2.511, -1.0094604, 2.511, -0.1002808, 2.511, 1.1374046, 2.511, 0.1832061, 2.511, -3.389313
0.2962059, -0.0159457, 2.51775, 0.0045166, 2.51775, -1.0068359, 2.51775, -0.1027832, 2.51775, 1.1221374, 2.51775, 0.5267175, 2.51775, -3.1755726
0.297, -0.0129244, 2.5245, 0.0020142, 2.5245, -1.0078735, 2.5245, -0.102478, 2.5245, 1.1755725, 2.5245, 0.8015267, 2.5245, -3.1603053
0.2977941, -0.0097353, 2.53125, 0.0012207, 2.53125, -1.0098877, 2.53125, -0.104248, 2.53125, 1.129771, 2.53125, 0.8778626, 2.53125, -3.3053436
0.2985882, -0.0083925, 2.538, -0.0008545, 2.538, -1.0083008, 2.538, -0.1009521, 2.538, 1.1908396, 2.538, 1, 2.538, -3.1984732
0.2993824, -0.0095674, 2.54475, 0.0013428, 2.54475, -1.0079346, 2.54475, -0.105957, 2.54475, 0.9389313, 2.54475, 0.8244275, 2.54475, -3.1679389
0.3001765, -0.0068818, 2.5515, -0.0010986, 2.5515, -1.0054932, 2.5515, -0.1054077, 2.5515, 1.2748091, 2.5515, 0.648855, 2.5515, -3.0992367
0.3009706, -0.0036927, 2.55825, -0.0012207, 2.55825, -1.0064697, 2.55825, -0.1048584, 2.55825, 1.3816794, 2.55825, 0.7022901, 2.55825, -3.3206108
0.3017647, -0.0038605, 2.565, 0.0029297, 2.565, -1.0092773, 2.565, -0.1047363, 2.565, 1.3740458, 2.565, 0.5496183, 2.565, -3.3129771
0.3025588, -0.0102388, 2.57175, 0.0012207, 2.57175, -1.0056152, 2.57175, -0.1029663, 2.57175, 1.3206106, 2.57175, 0.6717557, 2.57175, -3.3282442
0.3033529, -0.012253, 2.5785, 0.0020752, 2.5785, -1.0074463, 2.5785, -0.1003418, 2.5785, 1.259542, 2.5785, 0.8854962, 2.5785, -3.3587787
0.3041471, -0.011078, 2.58525, 0.0004883, 2.58525, -1.0079346, 2.58525, -0.1030884, 2.58525, 1.2748091, 2.58525, 0.7709923, 2.58525, -3.4503818
0.3049412, -0.01561, 2.592, -0.0024414, 2.592, -1.0068359, 2.592, -0.1010742, 2.592, 1.2900764, 2.592, 0.8473282, 2.592, -3.3587787
0.3057353, -0.0149386, 2.59875, -0.0013428, 2.59875, -1.0075073, 2.59875, -0.0991211, 2.59875, 1.3282443, 2.59875, 0.740458, 2.59875, -3.3282442
0.3065294, -0.0139315, 2.6055, 0.0006714, 2.6055, -1.0107422, 2.6055, -0.1002197, 2.6055, 1.2061069, 2.6055, 0.6564885, 2.6055, -3.2977099
0.3073235, -0.0149386, 2.61225, 0.0023193, 2.61225, -1.0085449, 2.61225, -0.0986938, 2.61225, 1.4122137, 2.61225, 0.7862595, 2.61225, -3.3740458
0.3081176, -0.0182956, 2.619, 0.0031738, 2.619, -1.0079956, 2.619, -0.1018677, 2.619, 1.519084, 2.619, 0.6717557, 2.619, -3.3664122
0.3089118, -0.0203098, 2.62575, 0.0043945, 2.62575, -1.0081177, 2.62575, -0.1005859, 2.62575, 1.2290076, 2.62575, 0.8015267, 2.62575, -3.3816793
0.3097059, -0.0176242, 2.6325, 0.0032959, 2.6325, -1.0083008, 2.6325, -0.0984497, 2.6325, 1.1832061, 2.6325, 1.038168, 2.6325, -3.3435113
0.3105, -0.01561, 2.63925, 0.0022583, 2.63925, -1.0077515, 2.63925, -0.0998535, 2.63925, 1.2900764, 2.63925, 1.2366412, 2.63925, -3.3969467
0.3112941, -0.0169528, 2.646, -0.0003052, 2.646, -1.0084839, 2.646, -0.0990601, 2.646, 1.3358779, 2.646, 1.0992366, 2.646, -3.3129771
0.3120882, -0.0149386, 2.65275, 0.0006714, 2.65275, -1.0075684, 2.65275, -0.0963745, 2.65275, 1.2900764, 2.65275, 0.9236641, 2.65275, -3.2671757
0.3128824, -0.0142672, 2.6595, -0.0001831, 2.6595, -1.0082397, 2.6595, -0.0942993, 2.6595, 1.4045801, 2.6595, 1.0305344, 2.6595, -3.4274809
0.3136765, -0.0132601, 2.66625, 0.0018311, 2.66625, -1.0065918, 2.66625, -0.0933838, 2.66625, 1.1221374, 2.66625, 0.8854962, 2.66625, -3.2137403
0.3144706, -0.0135958, 2.673, 0.0023193, 2.673, -1.0056763, 2.673, -0.0932007, 2.673, 1.2061069, 2.673, 0.7480916, 2.673, -3.4198472
0.3152647, -0.012253, 2.67975, -0.0010986, 2.67975, -1.0067139, 2.67975, -0.0983887, 2.67975, 1.2671756, 2.67975, 0.8549618, 2.67975, -3.221374
0.3160588, -0.0105745, 2.6865, 0.0016479, 2.6865, -1.0073853, 2.6865, -0.0984497, 2.6865, 1.3587786, 2.6865, 1, 2.6865, -3.4732823
0.3168529, -0.0149386, 2.69325, 0.0021973, 2.69325, -1.0065918, 2.69325, -0.0994873, 2.69325, 1.2061069, 2.69325, 1.038168, 2.69325, -3.4732823
0.3176471, -0.0171206, 2.7, 0.0056763, 2.7, -1.0089722, 2.7, -0.0991821, 2.7, 0.9694657, 2.7, 0.9007633, 2.7, -3.2061069
0.3184412, -0.0166171, 2.70675, 0.0059204, 2.70675, -1.0084839, 2.70675, -0.1002197, 2.70675, 1.091603, 2.70675, 1.1221374, 2.70675, -3.3664122
0.3192353, -0.0203098, 2.7135, 0.0040894, 2.7135, -1.0098267, 2.7135, -0.0997925, 2.7135, 1.1832061, 2.7135, 1.1679389, 2.7135, -3.4732823
0.3200294, -0.0216526, 2.72025, 0.0015869, 2.72025, -1.0059204, 2.72025, -0.0980225, 2.72025, 1.0763359, 2.72025, 1.389313, 2.72025, -3.2442749
0.3208235, -0.0203098, 2.727, 0.0010376, 2.727, -1.0061646, 2.727, -0.1010132, 2.727, 1.2137405, 2.727, 1.3435115, 2.727, -3.1832061
0.3216176, -0.0184634, 2.73375, 0.0014038, 2.73375, -1.0081177, 2.73375, -0.0996094, 2.73375, 1.2671756, 2.73375, 1.3587786, 2.73375, -3.2824428
0.3224118, -0.0199741, 2.7405, -0.0005493, 2.7405, -1.008606, 2.7405, -0.0994263, 2.7405, 1.1374046, 2.7405, 1.3206106, 2.7405, -3.1526718
0.3232059, -0.0209812, 2.74725, 0.0003662, 2.74725, -1.0059204, 2.74725, -0.0985718, 2.74725, 1.2442749, 2.74725, 1.2061069, 2.74725, -3.351145
0.324, -0.0193027, 2.754, 0.0003052, 2.754, -1.0058594, 2.754, -0.0994873, 2.754, 1.1679389, 2.754, 0.9312977, 2.754, -3.2061069
0.3247941, -0.0196384, 2.76075, -0.0018921, 2.76075, -1.0059204, 2.76075, -0.0982056, 2.76075, 1.3053435, 2.76075, 0.7709923, 2.76075, -3.5267177
0.3255882, -0.0204776, 2.7675, -0.0001221, 2.7675, -1.0071411, 2.7675, -0.0995483, 2.7675, 1.1908396, 2.7675, 0.740458, 2.7675, -3.5343511
0.3263824, -0.0166171, 2.77425, 0.0021362, 2.77425, -1.0064087, 2.77425, -0.100769, 2.77425, 1.1526718, 2.77425, 0.9847328, 2.77425, -3.3816793
0.3271765, -0.0142672, 2.781, 0.0032349, 2.781, -1.0075684, 2.781, -0.1021729, 2.781, 1.1068702, 2.781, 0.961832, 2.781, -3.2900763
0.3279706, -0.0149386, 2.78775, 0.0042725, 2.78775, -1.0085449, 2.78775, -0.1011353, 2.78775, 1.1068702, 2.78775, 0.9465649, 2.78775, -3.1984732
0.3287647, -0.0099031, 2.7945, 0.0030518, 2.7945, -1.0057983, 2.7945, -0.1010742, 2.7945, 1.2519084, 2.7945, 0.7938932, 2.7945, -3.1145039
0.3295588, -0.010071, 2.80125, 0.00354, 2.80125, -1.005188, 2.80125, -0.100708, 2.80125, 1.1374046, 2.80125, 0.9389313, 2.80125, -3.3053436
0.3303529, -0.0134279, 2.808, 0.0046997, 2.808, -1.0097656, 2.808, -0.1011963, 2.808, 1.1984733, 2.808, 0.9770992, 2.808, -3.1832061
0.3311471, -0.0117494, 2.81475, 0.0025635, 2.81475, -1.0091553, 2.81475, -0.0998535, 2.81475, 1.129771, 2.81475, 1.0992366, 2.81475, -3.221374
0.3319412, -0.0109102, 2.8215, 0.0031128, 2.8215, -1.010376, 2.8215, -0.0994263, 2.8215, 1.1450381, 2.8215, 0.9694657, 2.8215, -3.2977099
0.3327353, -0.0146029, 2.82825, 0.0025024, 2.82825, -1.0044556, 2.82825, -0.1003418, 2.82825, 1.038168, 2.82825, 0.7099237, 2.82825, -3.4274809
0.3335294, -0.0162814, 2.835, 0.0007935, 2.835, -1.0061646, 2.835, -0.0983276, 2.835, 1.2671756, 2.835, 0.6335878, 2.835, -3.2748091
0.3343235, -0.0176242, 2.84175, 0.0025635, 2.84175, -1.0048828, 2.84175, -0.097229, 2.84175, 1.1679389, 2.84175, 0.6259542, 2.84175, -3.389313
0.3351176, -0.0124208, 2.8485, 0.0026245, 2.8485, -1.007019, 2.8485, -0.0982056, 2.8485, 1.1984733, 2.8485, 0.4885496, 2.8485, -3.1755726
0.3359118, -0.012253, 2.85525, 0.0036011, 2.85525, -1.008728, 2.85525, -0.098999, 2.85525, 1.0687023, 2.85525, 0.480916, 2.85525, -3.3816793
0.3367059, -0.01561, 2.862, 0.0016479, 2.862, -1.0082397, 2.862, -0.098877, 2.862, 1.0305344, 2.862, 0.5648855, 2.862, -3.1908398
0.3375, -0.018967, 2.86875, 0.0032349, 2.86875, -1.010498, 2.86875, -0.0951538, 2.86875, 1.0534351, 2.86875, 0.6259542, 2.86875, -3.1374047
0.3382941, -0.017792, 2.8755, 0.0018311, 2.8755, -1.0072632, 2.8755, -0.0988159, 2.8755, 0.9770992, 2.8755, 0.7022901, 2.8755, -3.0839694
0.3390882, -0.0196384, 2.88225, 0.0016479, 2.88225, -1.006897, 2.88225, -0.0974121, 2.88225, 1.0305344, 2.88225, 0.7175573, 2.88225, -3.2824428
0.3398824, -0.018967, 2.889, -0.0007324, 2.889, -1.0065308, 2.889, -0.0975952, 2.889, 1.0152671, 2.889, 0.5877863, 2.889, -3.2442749
0.3406765, -0.0176242, 2.89575, 0.0012817, 2.89575, -1.0075073, 2.89575, -0.0952148, 2.89575, 1.0610687, 2.89575, 0.4198473, 2.89575, -3.3129771
0.3414706, -0.0172885, 2.9025, 0.0026855, 2.9025, -1.0101929, 2.9025, -0.097168, 2.9025, 1.0305344, 2.9025, 0.4732825, 2.9025, -3.3129771
0.3422647, -0.0157778, 2.90925, 0.00177, 2.90925, -1.006897, 2.90925, -0.0966797, 2.90925, 1.0839695, 2.90925, 0.1984733, 2.90925, -3.389313
0.3430588, -0.0139315, 2.916, 0.0012207, 2.916, -1.0081177, 2.916, -0.0991821, 2.916, 0.8778626, 2.916, 0.1526718, 2.916, -3.2442749
0.3438529, -0.011078, 2.92275, 0.0031128, 2.92275, -1.0097656, 2.92275, -0.1000366, 2.92275, 0.8625954, 2.92275, 0.1755725, 2.92275, -3.221374
0.3446471, -0.0115816, 2.9295, 0.0046997, 2.9295, -1.008667, 2.9295, -0.1038208, 2.9295, 1, 2.9295, 0.221374, 2.9295, -3.1603053
0.3454412, -0.0117494, 2.93625, 0.0014038, 2.93625, -1.0060425, 2.93625, -0.1004028, 2.93625, 1.0763359, 2.93625, 0.4122137, 2.93625, -3.1755726
0.3462353, -0.0146029, 2.943, 0.0046387, 2.943, -1.0082397, 2.943, -0.0986938, 2.943, 0.9007633, 2.943, 0.4198473, 2.943, -3.2442749
0.3470294, -0.011078, 2.94975, 0.0029907, 2.94975, -1.0075684, 2.94975, -0.0997925, 2.94975, 1.0610687, 2.94975, 0.6641222, 2.94975, -3.0839694
0.3478235, -0.012253, 2.9565, 0.0022583, 2.9565, -1.0065918, 2.9565, -0.0985718, 2.9565, 0.9312977, 2.9565, 0.6717557, 2.9565, -3.259542
0.3486176, -0.0109102, 2.96325, 0.0043335, 2.96325, -1.0083008, 2.96325, -0.0977173, 2.96325, 1.0152671, 2.96325, 0.7022901, 2.96325, -3.0076337
0.3494118, -0.0102388, 2.97, 0.0050659, 2.97, -1.0071411, 2.97, -0.1040039, 2.97, 1.038168, 2.97, 0.6793893, 2.97, -3.1374047
0.3502059, -0.0140993, 2.97675, 0.0032349, 2.97675, -1.0062866, 2.97675, -0.0998535, 2.97675, 1.0305344, 2.97675, 0.8244275, 2.97675, -3.1450381
0.351, -0.0162814, 2.9835, 0.0023804, 2.9835, -1.0049438, 2.9835, -0.0985107, 2.9835, 0.9694657, 2.9835, 0.610687, 2.9835, -2.9389312
0.3517941, -0.0146029, 2.99025, 0.0055542, 2.99025, -1.0094604, 2.99025, -0.0998535, 2.99025, 0.870229, 2.99025, 0.6946565, 2.99025, -3.038168
0.3525882, -0.01561, 2.997, 0.00177, 2.997, -1.0041504, 2.997, -0.0974121, 2.997, 1.0687023, 2.997, 0.6641222, 2.997, -3.091603
0.3533824, -0.0206455, 3.00375, -0.0045166, 3.00375, -1.0076294, 3.00375, -0.0991211, 3.00375, 0.9007633, 3.00375, 0.6793893, 3.00375, -3.221374
0.3541765, -0.0186313, 3.0105, 0.0010376, 3.0105, -1.0094604, 3.0105, -0.0964355, 3.0105, 0.9770992, 3.0105, 0.6259542, 3.0105, -3.1755726
0.3549706, -0.0223239, 3.01725, 0.0018921, 3.01725, -1.0079346, 3.01725, -0.0975342, 3.01725, 0.9236641, 3.01725, 0.4351145, 3.01725, -3.1145039
0.3557647, -0.0256809, 3.024, 0.0010986, 3.024, -1.0044556, 3.024, -0.0997925, 3.024, 0.9007633, 3.024, 0.4427481, 3.024, -3.3358779
0.3565588, -0.0243381, 3.03075, 0.0018921, 3.03075, -1.0072632, 3.03075, -0.0993042, 3.03075, 0.9160305, 3.03075, 0.4274809, 3.03075, -3.0229008
0.3573529, -0.0256809, 3.0375, 0.0040283, 3.0375, -1.012207, 3.0375, -0.1026611, 3.0375, 0.8778626, 3.0375, 0.5801527, 3.0375, -3.2137403
0.3581471, -0.0236667, 3.04425, 0.0041504, 3.04425, -1.0105591, 3.04425, -0.1036377, 3.04425, 1.0305344, 3.04425, 0.7938932, 3.04425, -3.129771
0.3589412, -0.0206455, 3.051, 0.0053101, 3.051, -1.0120239, 3.051, -0.1047363, 3.051, 1, 3.051, 0.778626, 3.051, -2.9923663
0.3597353, -0.018967, 3.05775, 0.0048828, 3.05775, -1.0128784, 3.05775, -0.1037598, 3.05775, 0.9847328, 3.05775, 1, 3.05775, -2.9541984
0.3605294, -0.0191348, 3.0645, 0.0044556, 3.0645, -1.0097656, 3.0645, -0.1037598, 3.0645, 1.038168, 3.0645, 1.2290076, 3.0645, -3.1755726
0.3613235, -0.0191348, 3.07125, 0.0021362, 3.07125, -1.008606, 3.07125, -0.1022339, 3.07125, 1.1450381, 3.07125, 1.3282443, 3.07125, -3.1145039
0.3621176, -0.0149386, 3.078, -0.0005493, 3.078, -1.0079956, 3.078, -0.100647, 3.078, 1.091603, 3.078, 1.2366412, 3.078, -3
0.3629118, -0.0127565, 3.08475, -0.0014648, 3.08475, -1.0091553, 3.08475, -0.0988159, 3.08475, 1.1526718, 3.08475, 0.8854962, 3.08475, -3.0992367
0.3637059, -0.012253, 3.0915, 0.0010986, 3.0915, -1.0068359, 3.0915, -0.0996704, 3.0915, 1.3129771, 3.0915, 0.7099237, 3.0915, -3.0687022
0.3645, -0.0078889, 3.09825, -0.0020142, 3.09825, -1.0093994, 3.09825, -0.0983887, 3.09825, 1.2061069, 3.09825, 0.6335878, 3.09825, -3.1755726
0.3652941, -0.0097353, 3.105, -0.0029297, 3.105, -1.0074463, 3.105, -0.0982666, 3.105, 1.2061069, 3.105, 0.4122137, 3.105, -3.0229008
0.3660882, -0.0095674, 3.11175, 0.0011597, 3.11175, -1.0108032, 3.11175, -0.0967407, 3.11175, 1.2442749, 3.11175, 0.3587786, 3.11175, -3.1450381
0.3668824, -0.0095674, 3.1185, 0.0047607, 3.1185, -1.007019, 3.1185, -0.1005249, 3.1185, 1.129771, 3.1185, 0.3816794, 3.1185, -3.0763359
0.3676765, -0.0092317, 3.12525, 0.0055542, 3.12525, -1.0072021, 3.12525, -0.0999756, 3.12525, 1.2442749, 3.12525, 0.6641222, 3.12525, -3.0152671
0.3684706, -0.0102388, 3.132, 0.0028687, 3.132, -1.006958, 3.132, -0.0997925, 3.132, 1.1068702, 3.132, 0.8015267, 3.132, -2.8549619
0.3692647, -0.0129244, 3.13875, 0.001709, 3.13875, -1.0056763, 3.13875, -0.0957642, 3.13875, 1.2290076, 3.13875, 0.9312977, 3.13875, -2.9770992
0.3700588, -0.0142672, 3.1455, -0.0019531, 3.1455, -1.0060425, 3.1455, -0.0992432, 3.1455, 1.2900764, 3.1455, 0.8854962, 3.1455, -3.0458016
0.3708529, -0.0182956, 3.15225, -0.0031128, 3.15225, -1.0076904, 3.15225, -0.0988159, 3.15225, 1.2137405, 3.15225, 0.6564885, 3.15225, -3.0763359
0.3716471, -0.0236667, 3.159, 0.0002441, 3.159, -1.0048218, 3.159, -0.100708, 3.159, 1.4122137, 3.159, 0.3816794, 3.159, -3
0.3724412, -0.0216526, 3.16575, 0.0015869, 3.16575, -1.0076294, 3.16575, -0.1038208, 3.16575, 1.2290076, 3.16575, 0.3740458, 3.16575, -3.0992367
0.3732353, -0.0206455, 3.1725, 0.0062866, 3.1725, -1.0107422, 3.1725, -0.1008301, 3.1725, 1.2824427, 3.1725, 0.4274809, 3.1725, -2.961832
0.3740294, -0.0218204, 3.17925, 0.0065918, 3.17925, -1.0101929, 3.17925, -0.1010132, 3.17925, 1.3129771, 3.17925, 0.4122137, 3.17925, -2.9847329
0.3748235, -0.0203098, 3.186, 0.0040894, 3.186, -1.0077515, 3.186, -0.1010742, 3.186, 1.389313, 3.186, 0.5954198, 3.186, -2.9312978
0.3756176, -0.0167849, 3.19275, 0.00354, 3.19275, -1.0091553, 3.19275, -0.0996704, 3.19275, 1.4198474, 3.19275, 0.778626, 3.19275, -2.9236641
0.3764118, -0.0196384, 3.1995, 0.0012817, 3.1995, -1.0083008, 3.1995, -0.1005859, 3.1995, 1.3129771, 3.1995, 0.7862595, 3.1995, -3.1068702
0.3772059, -0.0184634, 3.20625, 0.0012207, 3.20625, -1.0097656, 3.20625, -0.0999756, 3.20625, 1.4580153, 3.20625, 0.8854962, 3.20625, -3.091603
0.378, -0.0162814, 3.213, 0.0027466, 3.213, -1.0112305, 3.213, -0.1011963, 3.213, 1.4427481, 3.213, 0.8320611, 3.213, -2.9312978
0.3787941, -0.0129244, 3.21975, 0.0044556, 3.21975, -1.008606, 3.21975, -0.1040039, 3.21975, 1.5801526, 3.21975, 0.9312977, 3.21975, -2.9465649
0.3795882, -0.0135958, 3.2265, 0.0050049, 3.2265, -1.008728, 3.2265, -0.1002197, 3.2265, 1.4885496, 3.2265, 1.0687023, 3.2265, -2.9389312
0.3803824, -0.011078, 3.23325, 0.001709, 3.23325, -1.0076294, 3.23325, -0.102356, 3.23325, 1.4503816, 3.23325, 1.038168, 3.23325, -2.8549619
0.3811765, -0.0119173, 3.24, -0.0004272, 3.24, -1.0109863, 3.24, -0.105896, 3.24, 1.5572519, 3.24, 1.0610687, 3.24, -2.9389312
0.3819706, -0.0149386, 3.24675, 0.0030518, 3.24675, -1.0081177, 3.24675, -0.1002197, 3.24675, 1.5496184, 3.24675, 1, 3.24675, -2.9007633
0.3827647, -0.0149386, 3.2535, 0.0026245, 3.2535, -1.0078125, 3.2535, -0.1016846, 3.2535, 1.4885496, 3.2535, 1.1832061, 3.2535, -2.8167939
0.3835588, -0.01561, 3.26025, -0.0009155, 3.26025, -1.008667, 3.26025, -0.1019897, 3.26025, 1.4503816, 3.26025, 1.0992366, 3.26025, -2.9770992
0.3843529, -0.018967, 3.267, -0.0023804, 3.267, -1.0068359, 3.267, -0.0983276, 3.267, 1.3664122, 3.267, 0.9389313, 3.267, -3.0229008
0.3851471, -0.012253, 3.27375, -0.0043335, 3.27375, -1.0054932, 3.27375, -0.0961914, 3.27375, 1.6793894, 3.27375, 0.9541985, 3.27375, -3.0534351
0.3859412, -0.0132601, 3.2805, -0.0030518, 3.2805, -1.0067749, 3.2805, -0.0971069, 3.2805, 1.4656489, 3.2805, 0.7938932, 3.2805, -3.129771
0.3867353, -0.0152743, 3.28725, -0.0028076, 3.28725, -1.0065308, 3.28725, -0.0979004, 3.28725, 1.6335878, 3.28725, 0.5877863, 3.28725, -3.091603
0.3875294, -0.0142672, 3.294, -0.0021973, 3.294, -1.006897, 3.294, -0.0982666, 3.294, 1.5343511, 3.294, 0.4351145, 3.294, -3.0992367
0.3883235, -0.0149386, 3.30075, 0.0003052, 3.30075, -1.0077515, 3.30075, -0.0977783, 3.30075, 1.4274809, 3.30075, 0.6641222, 3.30075, -3.1145039
0.3891176, -0.0162814, 3.3075, 0.0004272, 3.3075, -1.0075684, 3.3075, -0.0947876, 3.3075, 1.389313, 3.3075, 0.7022901, 3.3075, -3
0.3899118, -0.0166171, 3.31425, 0.0045166, 3.31425, -1.0100098, 3.31425, -0.0985107, 3.31425, 1.480916, 3.31425, 0.8091603, 3.31425, -3.0152671
0.3907059, -0.0176242, 3.321, 0.0006104, 3.321, -1.0075684, 3.321, -0.0970459, 3.321, 1.4961832, 3.321, 0.8778626, 3.321, -3.0839694
0.3915, -0.0142672, 3.32775, 0.0025024, 3.32775, -1.0080566, 3.32775, -0.0985107, 3.32775, 1.5267175, 3.32775, 1.0152671, 3.32775, -2.9923663
0.3922941, -0.0167849, 3.3345, 0.0009155, 3.3345, -1.0075073, 3.3345, -0.0982056, 3.3345, 1.351145, 3.3345, 1.1068702, 3.3345, -2.9160306
0.3930882, -0.0159457, 3.34125, 0.0012817, 3.34125, -1.0087891, 3.34125, -0.0980225, 3.34125, 1.2290076, 3.34125, 1.1450381, 3.34125, -3.1450381
0.3938824, -0.0152743, 3.348, 0.0014038, 3.348, -1.0090942, 3.348, -0.0979004, 3.348, 1.4122137, 3.348, 1.0687023, 3.348, -3.0610688
0.3946765, -0.0181277, 3.35475, -0.0014648, 3.35475, -1.0093994, 3.35475, -0.0976562, 3.35475, 1.4503816, 3.35475, 1.0763359, 3.35475, -3.0610688
0.3954706, -0.0130922, 3.3615, 0.0002441, 3.3615, -1.0084229, 3.3615, -0.0981445, 3.3615, 1.3587786, 3.3615, 0.8931298, 3.3615, -3.0229008
0.3962647, -0.0062104, 3.36825, 0.0040283, 3.36825, -1.0100098, 3.36825, -0.0987549, 3.36825, 1.5572519, 3.36825, 0.9694657, 3.36825, -2.9236641
0.3970588, -0.0062104, 3.375, 0.0001831, 3.375, -1.0083008, 3.375, -0.1008911, 3.375, 1.648855, 3.375, 0.8549618, 3.375, -3.1526718
0.3978529, -0.0078889, 3.38175, 0.0009766, 3.38175, -1.0078125, 3.38175, -0.0982666, 3.38175, 1.4885496, 3.38175, 0.9236641, 3.38175, -3.129771
0.3986471, -0.0065461, 3.3885, 0.0008545, 3.3885, -1.0073853, 3.3885, -0.0947876, 3.3885, 1.5725191, 3.3885, 0.9694657, 3.3885, -3.0229008
0.3994412, -0.005539, 3.39525, 0.0004272, 3.39525, -1.0095825, 3.39525, -0.0999146, 3.39525, 1.610687, 3.39525, 0.9160305, 3.39525, -3.1526718
0.4002353, -0.0068818, 3.402, -0.0007935, 3.402, -1.0083618, 3.402, -0.0986938, 3.402, 1.6412214, 3.402, 1, 3.402, -3.0763359
0.4010294, -0.0095674, 3.40875, 0.0001831, 3.40875, -1.0066528, 3.40875, -0.1000977, 3.40875, 1.4656489, 3.40875, 0.9465649, 3.40875, -3.0458016
0.4018235, -0.0095674, 3.4155, -0.0004272, 3.4155, -1.0065918, 3.4155, -0.0961304, 3.4155, 1.5419847, 3.4155, 0.7938932, 3.4155, -2.9923663
0.4026176, -0.0115816, 3.42225, 0.0004272, 3.42225, -1.0080566, 3.42225, -0.0983276, 3.42225, 1.5954199, 3.42225, 0.870229, 3.42225, -2.9312978
0.4034118, -0.0132601, 3.429, 0.0010376, 3.429, -1.0075073, 3.429, -0.1000366, 3.429, 1.6183206, 3.429, 0.9389313, 3.429, -3.0839694
0.4042059, -0.0149386, 3.43575, 0.0007935, 3.43575, -1.0100098, 3.43575, -0.1008301, 3.43575, 1.5725191, 3.43575, 1.2061069, 3.43575, -3.091603
0.405, -0.018967, 3.4425, 0.0004272, 3.4425, -1.0090332, 3.4425, -0.0994873, 3.4425, 1.8396946, 3.4425, 1.1374046, 3.4425, -3.0763359
0.4057941, -0.0172885, 3.44925, 0.0033569, 3.44925, -1.0098267, 3.44925, -0.0994873, 3.44925, 1.7328244, 3.44925, 1.3969465, 3.44925, -3.0229008
0.4065882, -0.0186313, 3.456, 0.0045166, 3.456, -1.010437, 3.456, -0.0969849, 3.456, 1.7251909, 3.456, 1.5496184, 3.456, -2.9389312
0.4073824, -0.0204776, 3.46275, 0.0009766, 3.46275, -1.0072632, 3.46275, -0.0999146, 3.46275, 1.8854961, 3.46275, 1.3816794, 3.46275, -2.9770992
0.4081765, -0.0198062, 3.4695, 0.0025635, 3.4695, -1.0100708, 3.4695, -0.1005859, 3.4695, 1.961832, 3.4695, 1.5725191, 3.4695, -2.9160306
0.4089706, -0.0193027, 3.47625, 0.0010986, 3.47625, -1.0098877, 3.47625, -0.1004639, 3.47625, 2.0229008, 3.47625, 1.4122137, 3.47625, -2.9694657
0.4097647, -0.0182956, 3.483, 0.0005493, 3.483, -1.0091553, 3.483, -0.0964966, 3.483, 2.0763359, 3.483, 1.4656489, 3.483, -3.0687022
0.4105588, -0.0142672, 3.48975, 0.0006714, 3.48975, -1.0066528, 3.48975, -0.0970459, 3.48975, 2.1374047, 3.48975, 1.519084, 3.48975, -2.8473282
0.4113529, -0.0137636, 3.4965, 0.0010986, 3.4965, -1.006958, 3.4965, -0.0997314, 3.4965, 2.2977099, 3.4965, 1.4274809, 3.4965, -2.8854961
0.4121471, -0.0109102, 3.50325, 0.0045166, 3.50325, -1.0066528, 3.50325, -0.1011353, 3.50325, 2.3435113, 3.50325, 1.3435115, 3.50325, -2.9236641
0.4129412, -0.0095674, 3.51, 0.0042114, 3.51, -1.0083008, 3.51, -0.100769, 3.51, 2.5725191, 3.51, 1.4045801, 3.51, -2.8549619
0.4137353, -0.0095674, 3.51675, 0.0010986, 3.51675, -1.0089111, 3.51675, -0.0985718, 3.51675, 2.4122138, 3.51675, 1.3587786, 3.51675, -3.1221373
0.4145294, -0.0139315, 3.5235, 0.0037842, 3.5235, -1.0067139, 3.5235, -0.0988159, 3.5235, 2.610687, 3.5235, 1.4198474, 3.5235, -2.9236641
0.4153235, -0.0104067, 3.53025, 0.0012207, 3.53025, -1.0059204, 3.53025, -0.0975342, 3.53025, 2.5038168, 3.53025, 1.5267175, 3.53025, -3.0458016
0.4161176, -0.012253, 3.537, 0.0025635, 3.537, -1.0089722, 3.537, -0.0993042, 3.537, 2.519084, 3.537, 1.6259542, 3.537, -2.9465649
0.4169118, -0.0162814, 3.54375, 0.0015869, 3.54375, -1.0076294, 3.54375, -0.0950928, 3.54375, 2.4274809, 3.54375, 1.6259542, 3.54375, -2.8167939
0.4177059, -0.0139315, 3.5505, -0.0005493, 3.5505, -1.0093994, 3.5505, -0.0958252, 3.5505, 2.5267177, 3.5505, 1.5801526, 3.5505, -2.908397
0.4185, -0.012253, 3.55725, -0.0016479, 3.55725, -1.0096436, 3.55725, -0.0939941, 3.55725, 2.648855, 3.55725, 1.480916, 3.55725, -2.8320611
0.4192941, -0.0130922, 3.564, -0.0019531, 3.564, -1.0053101, 3.564, -0.09198, 3.564, 2.5725191, 3.564, 1.3206106, 3.564, -2.8244274
0.4200882, -0.0176242, 3.57075, -0.0021973, 3.57075, -1.0042114, 3.57075, -0.0938721, 3.57075, 2.6183207, 3.57075, 1.2366412, 3.57075, -2.7709923
0.4208824, -0.0172885, 3.5775, -0.0009766, 3.5775, -1.0093384, 3.5775, -0.0914917, 3.5775, 2.6335878, 3.5775, 1.2366412, 3.5775, -2.7938931
0.4216765, -0.0159457, 3.58425, -0.0023804, 3.58425, -1.008606, 3.58425, -0.0899048, 3.58425, 2.5877862, 3.58425, 1.0992366, 3.58425, -2.8473282
0.4224706, -0.0157778, 3.591, -0.0006714, 3.591, -1.0090332, 3.591, -0.0945435, 3.591, 2.5877862, 3.591, 0.8778626, 3.591, -3
0.4232647, -0.0139315, 3.59775, -0.0009766, 3.59775, -1.0093994, 3.59775, -0.0924072, 3.59775, 2.5114503, 3.59775, 0.740458, 3.59775, -2.8167939
0.4240588, -0.0176242, 3.6045, 0.0029907, 3.6045, -1.0089111, 3.6045, -0.0935059, 3.6045, 2.6183207, 3.6045, 0.7099237, 3.6045, -2.7557251
0.4248529, -0.0196384, 3.61125, -0.0003662, 3.61125, -1.0064697, 3.61125, -0.0962524, 3.61125, 2.7557251, 3.61125, 0.7251908, 3.61125, -2.7938931
0.4256471, -0.0162814, 3.618, -0.0004272, 3.618, -1.006958, 3.618, -0.0930786, 3.618, 2.6030533, 3.618, 0.8091603, 3.618, -2.740458
0.4264412, -0.0166171, 3.62475, 0.0012817, 3.62475, -1.0082397, 3.62475, -0.09198, 3.62475, 2.4885497, 3.62475, 0.8396947, 3.62475, -2.870229
0.4272353, -0.0169528, 3.6315, -6.1E-05, 3.6315, -1.0072021, 3.6315, -0.0928345, 3.6315, 2.5114503, 3.6315, 0.6641222, 3.6315, -2.8015268
0.4280294, -0.0137636, 3.63825, 0.0006714, 3.63825, -1.0057983, 3.63825, -0.0905762, 3.63825, 2.6183207, 3.63825, 0.4732825, 3.63825, -2.8549619
0.4288235, -0.012253, 3.645, 0.0014038, 3.645, -1.0097046, 3.645, -0.0912476, 3.645, 2.519084, 3.645, 0.4961832, 3.645, -2.7862597
0.4296176, -0.0083925, 3.65175, 0.0036621, 3.65175, -1.008606, 3.65175, -0.0939941, 3.65175, 2.5114503, 3.65175, 0.4198473, 3.65175, -2.8167939
0.4304118, -0.0082246, 3.6585, 0.0024414, 3.6585, -1.0092163, 3.6585, -0.0924683, 3.6585, 2.5648854, 3.6585, 0.5877863, 3.6585, -2.5877862
0.4312059, -0.012253, 3.66525, 0.0012817, 3.66525, -1.0074463, 3.66525, -0.0944824, 3.66525, 2.5648854, 3.66525, 0.778626, 3.66525, -2.6412213
0.432, -0.0099031, 3.672, 0.0030518, 3.672, -1.0108643, 3.672, -0.0933228, 3.672, 2.648855, 3.672, 0.7175573, 3.672, -2.7633588
0.4327941, -0.0075532, 3.67875, 0.0032349, 3.67875, -1.010376, 3.67875, -0.0905762, 3.67875, 2.5038168, 3.67875, 0.6793893, 3.67875, -2.9007633
0.4335882, -0.0142672, 3.6855, 0.0028076, 3.6855, -1.0095825, 3.6855, -0.0894775, 3.6855, 2.7175572, 3.6855, 0.5648855, 3.6855, -2.6183207
0.4343824, -0.0117494, 3.69225, 0.0022583, 3.69225, -1.0079956, 3.69225, -0.088562, 3.69225, 2.6183207, 3.69225, 0.3740458, 3.69225, -2.4885497
0.4351765, -0.0142672, 3.699, 0.0001831, 3.699, -1.007019, 3.699, -0.0901489, 3.699, 2.6259542, 3.699, 0.2748092, 3.699, -2.519084
0.4359706, -0.0209812, 3.70575, -0.0003052, 3.70575, -1.0075684, 3.70575, -0.0914307, 3.70575, 2.7251909, 3.70575, 0.2061069, 3.70575, -2.7480917
0.4367647, -0.0196384, 3.7125, 0.0003052, 3.7125, -1.0067139, 3.7125, -0.0897827, 3.7125, 2.610687, 3.7125, 0.0610687, 3.7125, -2.6030533
0.4375588, -0.0206455, 3.71925, 0.0031128, 3.71925, -1.0087891, 3.71925, -0.0886841, 3.71925, 2.7175572, 3.71925, 0.0305344, 3.71925, -2.6030533
0.4383529, -0.0236667, 3.726, -0.0010986, 3.726, -1.0091553, 3.726, -0.0944214, 3.726, 2.6946564, 3.726, 0.2824427, 3.726, -2.6870229
0.4391471, -0.0223239, 3.73275, 0.0028076, 3.73275, -1.0089111, 3.73275, -0.0963135, 3.73275, 2.6335878, 3.73275, 0.4351145, 3.73275, -2.5954199
0.4399412, -0.0203098, 3.7395, 0.0018311, 3.7395, -1.0073853, 3.7395, -0.0925293, 3.7395, 2.7251909, 3.7395, 0.7099237, 3.7395, -2.3053436
0.4407353, -0.0209812, 3.74625, 0.0004883, 3.74625, -1.0078735, 3.74625, -0.0939331, 3.74625, 2.7862597, 3.74625, 1.0610687, 3.74625, -2.5114503
0.4415294, -0.0176242, 3.753, 0.0008545, 3.753, -1.0078735, 3.753, -0.0894165, 3.753, 2.6259542, 3.753, 1.1526718, 3.753, -2.5877862
0.4423235, -0.0169528, 3.75975, -0.0012817, 3.75975, -1.0100098, 3.75975, -0.0893555, 3.75975, 2.648855, 3.75975, 1.5038168, 3.75975, -2.6030533
0.4431176, -0.01561, 3.7665, -0.0024414, 3.7665, -1.008606, 3.7665, -0.0861816, 3.7665, 2.7022901, 3.7665, 1.610687, 3.7665, -2.5343511
0.4439118, -0.0186313, 3.77325, 0.0015259, 3.77325, -1.0115967, 3.77325, -0.0855713, 3.77325, 2.7709923, 3.77325, 1.4580153, 3.77325, -2.5267177
0.4447059, -0.0162814, 3.78, -0.0018311, 3.78, -1.005249, 3.78, -0.086792, 3.78, 2.7938931, 3.78, 1.5725191, 3.78, -2.5877862
0.4455, -0.0157778, 3.78675, 0, 3.78675, -1.0078125, 3.78675, -0.0859375, 3.78675, 2.8549619, 3.78675, 1.4732825, 3.78675, -2.5572519
0.4462941, -0.0149386, 3.7935, -0.0033569, 3.7935, -1.0082397, 3.7935, -0.083374, 3.7935, 2.6259542, 3.7935, 1.2366412, 3.7935, -2.5343511
0.4470882, -0.0142672, 3.80025, -0.0043335, 3.80025, -1.0076294, 3.80025, -0.0824585, 3.80025, 2.648855, 3.80025, 0.9541985, 3.80025, -2.610687
0.4478824, -0.0146029, 3.807, -0.00177, 3.807, -1.0053101, 3.807, -0.0841675, 3.807, 2.610687, 3.807, 0.8015267, 3.807, -2.648855
0.4486765, -0.0149386, 3.81375, -0.0054932, 3.81375, -1.0063477, 3.81375, -0.0823975, 3.81375, 2.6335878, 3.81375, 0.6946565, 3.81375, -2.648855
0.4494706, -0.0162814, 3.8205, -0.0044556, 3.8205, -1.0061646, 3.8205, -0.0786743, 3.8205, 2.5877862, 3.8205, 0.7099237, 3.8205, -2.740458
0.4502647, -0.0161135, 3.82725, -0.0065918, 3.82725, -1.0072021, 3.82725, -0.079834, 3.82725, 2.6641221, 3.82725, 0.5648855, 3.82725, -2.6946564
0.4510588, -0.0171206, 3.834, -0.0054321, 3.834, -1.0101318, 3.834, -0.0831909, 3.834, 2.4580152, 3.834, 0.6946565, 3.834, -2.7022901
0.4518529, -0.0172885, 3.84075, -0.0088501, 3.84075, -1.0095215, 3.84075, -0.0809937, 3.84075, 2.4656489, 3.84075, 0.778626, 3.84075, -2.6335878
0.4526471, -0.0169528, 3.8475, -0.0058594, 3.8475, -1.0061646, 3.8475, -0.0822754, 3.8475, 2.3358779, 3.8475, 0.870229, 3.8475, -2.7251909
0.4534412, -0.0162814, 3.85425, -0.0070801, 3.85425, -1.0065918, 3.85425, -0.0809937, 3.85425, 2.2824428, 3.85425, 0.8549618, 3.85425, -2.7022901
0.4542353, -0.0199741, 3.861, -0.0060425, 3.861, -1.0059814, 3.861, -0.0846558, 3.861, 1.9923664, 3.861, 0.9007633, 3.861, -2.870229
0.4550294, -0.0164492, 3.86775, -0.0040283, 3.86775, -1.0064087, 3.86775, -0.0834351, 3.86775, 2.1679389, 3.86775, 0.9312977, 3.86775, -2.7709923
0.4558235, -0.0169528, 3.8745, -0.0039673, 3.8745, -1.0072021, 3.8745, -0.0866699, 3.8745, 2.2442749, 3.8745, 1.0687023, 3.8745, -2.7938931
0.4566176, -0.0167849, 3.88125, -0.0021973, 3.88125, -1.008606, 3.88125, -0.0847778, 3.88125, 2.1068702, 3.88125, 1.1145039, 3.88125, -2.7099237
0.4574118, -0.0139315, 3.888, -0.0018311, 3.888, -1.0100098, 3.888, -0.0852051, 3.888, 2.038168, 3.888, 1.2671756, 3.888, -2.7480917
0.4582059, -0.0142672, 3.89475, -0.0029297, 3.89475, -1.0053711, 3.89475, -0.0846558, 3.89475, 2.0839694, 3.89475, 1.1068702, 3.89475, -2.8625953
0.459, -0.0149386, 3.9015, -0.0055542, 3.9015, -1.0054321, 3.9015, -0.0875854, 3.9015, 2.1679389, 3.9015, 0.9847328, 3.9015, -2.7862597
0.4597941, -0.0135958, 3.90825, -0.0076904, 3.90825, -1.006897, 3.90825, -0.0864258, 3.90825, 2.1526718, 3.90825, 0.8244275, 3.90825, -2.8320611
0.4605882, -0.0169528, 3.915, -0.0048828, 3.915, -1.0074463, 3.915, -0.0825195, 3.915, 2.3282442, 3.915, 0.7633588, 3.915, -2.7862597
0.4613824, -0.0149386, 3.92175, -0.0068359, 3.92175, -1.0038452, 3.92175, -0.0753174, 3.92175, 2.8854961, 3.92175, 1.2748091, 3.92175, -2.7480917
0.4621765, -0.0099031, 3.9285, -0.0059204, 3.9285, -1.0074463, 3.9285, -0.0757446, 3.9285, 3.0839694, 3.9285, 1.6030535, 3.9285, -2.8167939
0.4629706, -0.0129244, 3.93525, -0.0003662, 3.93525, -1.0111694, 3.93525, -0.0792236, 3.93525, 3.6259542, 3.93525, 2.2671757, 3.93525, -2.8396947
0.4637647, -0.0109102, 3.942, -6.1E-05, 3.942, -1.0084229, 3.942, -0.0774536, 3.942, 3.7328243, 3.942, 2.3816793, 3.942, -2.6564887
0.4645588, -0.0095674, 3.94875, -0.0028687, 3.94875, -1.0053711, 3.94875, -0.0801392, 3.94875, 3.9160306, 3.94875, 2.6030533, 3.94875, -2.6793892
0.4653529, -0.0092317, 3.9555, -0.0057373, 3.9555, -1.0058594, 3.9555, -0.083313, 3.9555, 3.5648854, 3.9555, 2.5954199, 3.9555, -2.7251909
0.4661471, -0.0085603, 3.96225, -0.0043335, 3.96225, -1.0088501, 3.96225, -0.0808105, 3.96225, 3.2824428, 3.96225, 2.351145, 3.96225, -2.740458
0.4669412, -0.0090639, 3.969, -0.0061035, 3.969, -1.010498, 3.969, -0.0806274, 3.969, 3.3206108, 3.969, 2.0763359, 3.969, -2.7099237
0.4677353, -0.0095674, 3.97575, -0.008606, 3.97575, -1.0057373, 3.97575, -0.0839844, 3.97575, 3.3282442, 3.97575, 1.9541985, 3.97575, -2.7480917
0.4685294, -0.0119173, 3.9825, -0.0057373, 3.9825, -1.0047607, 3.9825, -0.0836182, 3.9825, 3.091603, 3.9825, 1.5725191, 3.9825, -2.7862597
0.4693235, -0.0115816, 3.98925, -0.0040894, 3.98925, -1.0040283, 3.98925, -0.0855103, 3.98925, 2.8015268, 3.98925, 1.5114504, 3.98925, -2.908397
0.4701176, -0.0162814, 3.996, -0.0012817, 3.996, -1.0068359, 3.996, -0.0834351, 3.996, 2.4656489, 3.996, 1.4122137, 3.996, -2.8244274
0.4709118, -0.0191348, 4.00275, -0.0006104, 4.00275, -1.0077515, 4.00275, -0.0824585, 4.00275, 2.3053436, 4.00275, 1.3358779, 4.00275, -2.908397
0.4717059, -0.0206455, 4.0095, 0.0030518, 4.0095, -1.0080566, 4.0095, -0.081665, 4.0095, 2.0992367, 4.0095, 1.2519084, 4.0095, -2.8931298
0.4725, -0.0203098, 4.01625, 0.0028076, 4.01625, -1.0090332, 4.01625, -0.0768433, 4.01625, 1.8473282, 4.01625, 1.1908396, 4.01625, -2.7099237
0.4732941, -0.0229953, 4.023, 0.0018921, 4.023, -1.0112305, 4.023, -0.072998, 4.023, 2.2366412, 4.023, 1.6564885, 4.023, -2.778626
0.4740882, -0.0224918, 4.02975, -0.0047607, 4.02975, -1.0089722, 4.02975, -0.0721436, 4.02975, 2.8778627, 4.02975, 2.2442749, 4.02975, -2.610687
0.4748824, -0.0226596, 4.0365, -0.0040894, 4.0365, -1.0106812, 4.0365, -0.0626221, 4.0365, 2.7938931, 4.0365, 2.8625953, 4.0365, -2.480916
0.4756765, -0.0216526, 4.04325, -0.0084839, 4.04325, -1.0065308, 4.04325, -0.071106, 4.04325, 3.4045801, 4.04325, 3.4122138, 4.04325, -2.3206108
0.4764706, -0.0179599, 4.05, -0.0066528, 4.05, -1.0057373, 4.05, -0.0795898, 4.05, 3.5496182, 4.05, 3.2900763, 4.05, -2.3358779
0.4772647, -0.0203098, 4.05675, -0.0048828, 4.05675, -1.003479, 4.05675, -0.085083, 4.05675, 3.4656489, 4.05675, 2.6641221, 4.05675, -2.2671757
0.4780588, -0.0172885, 4.0635, -0.0016479, 4.0635, -1.0042114, 4.0635, -0.0828857, 4.0635, 3.221374, 4.0635, 2.3740458, 4.0635, -2.4961832
0.4788529, -0.0129244, 4.07025, 0.0073242, 4.07025, -1.0077515, 4.07025, -0.0847778, 4.07025, 2.8854961, 4.07025, 2.6717558, 4.07025, -2.5801528
0.4796471, -0.0179599, 4.077, 0.0047607, 4.077, -1.0082397, 4.077, -0.0841064, 4.077, 2.9541984, 4.077, 2.7022901, 4.077, -2.4580152
0.4804412, -0.0169528, 4.08375, -0.0067749, 4.08375, -1.0091553, 4.08375, -0.0863647, 4.08375, 2.7328243, 4.08375, 2.7709923, 4.08375, -2.5572519
0.4812353, -0.0130922, 4.0905, -0.0093994, 4.0905, -1.0098267, 4.0905, -0.088562, 4.0905, 2.4427481, 4.0905, 2.5038168, 4.0905, -2.5648854
0.4820294, -0.0152743, 4.09725, -0.0108643, 4.09725, -1.0102539, 4.09725, -0.0877075, 4.09725, 2.1068702, 4.09725, 1.9465649, 4.09725, -2.7251909
0.4828235, -0.0152743, 4.104, -0.0076294, 4.104, -1.0072632, 4.104, -0.0863037, 4.104, 1.8396946, 4.104, 1.2900764, 4.104, -2.8549619
0.4836176, -0.0129244, 4.11075, -0.0025024, 4.11075, -1.010498, 4.11075, -0.0856323, 4.11075, 1.610687, 4.11075, 1.2900764, 4.11075, -2.7099237
0.4844118, -0.0092317, 4.1175, -0.0004883, 4.1175, -1.0092773, 4.1175, -0.0818481, 4.1175, 1.480916, 4.1175, 1.2671756, 4.1175, -2.7709923
0.4852059, -0.0104067, 4.12425, 0.0008545, 4.12425, -1.008606, 4.12425, -0.0780029, 4.12425, 1.5801526, 4.12425, 1.5648855, 4.12425, -2.8015268
0.486, -0.012253, 4.131, -0.0020142, 4.131, -1.008667, 4.131, -0.0733032, 4.131, 2.1832061, 4.131, 2.9236641, 4.131, -2.5877862
0.4867941, -0.0159457, 4.13775, -0.0040283, 4.13775, -1.0065308, 4.13775, -0.0776367, 4.13775, 3.2137403, 4.13775, 3.5877862, 4.13775, -2.6870229
0.4875882, -0.0182956, 4.1445, -0.0055542, 4.1445, -1.008606, 4.1445, -0.0840454, 4.1445, 2.9923663, 4.1445, 3.2671757, 4.1445, -2.7557251
0.4883824, -0.0196384, 4.15125, -0.0075073, 4.15125, -1.0023193, 4.15125, -0.0824585, 4.15125, 2.8854961, 4.15125, 2.8473282, 4.15125, -2.778626
0.4891765, -0.0206455, 4.158, -0.0053101, 4.158, -1.0042725, 4.158, -0.0789185, 4.158, 2.8549619, 4.158, 2.5725191, 4.158, -2.8091602
0.4899706, -0.0169528, 4.16475, -0.0057983, 4.16475, -1.003479, 4.16475, -0.0786133, 4.16475, 2.6793892, 4.16475, 2.2366412, 4.16475, -2.7938931
0.4907647, -0.0171206, 4.1715, -0.0012817, 4.1715, -1.0090942, 4.1715, -0.078186, 4.1715, 2.7709923, 4.1715, 1.8244275, 4.1715, -2.740458
0.4915588, -0.0169528, 4.17825, -0.0015259, 4.17825, -1.0078735, 4.17825, -0.0802002, 4.17825, 2.6030533, 4.17825, 1.648855, 4.17825, -2.8015268
0.4923529, -0.018967, 4.185, -0.0036011, 4.185, -1.0044556, 4.185, -0.081543, 4.185, 2.3206108, 4.185, 1.5725191, 4.185, -2.870229
0.4931471, -0.021149, 4.19175, -0.0040894, 4.19175, -1.0084839, 4.19175, -0.078186, 4.19175, 2.2748091, 4.19175, 1.3206106, 4.19175, -2.870229
0.4939412, -0.01561, 4.1985, -0.0005493, 4.1985, -1.010437, 4.1985, -0.0750122, 4.1985, 2.0305343, 4.1985, 1.4045801, 4.1985, -2.8854961
0.4947353, -0.0159457, 4.20525, -0.0056152, 4.20525, -1.0134277, 4.20525, -0.074585, 4.20525, 1.8473282, 4.20525, 1.6412214, 4.20525, -2.8015268
0.4955294, -0.0176242, 4.212, -0.0101318, 4.212, -1.0101929, 4.212, -0.0761108, 4.212, 2.2442749, 4.212, 1.6412214, 4.212, -2.6870229
0.4963235, -0.0109102, 4.21875, -0.0067139, 4.21875, -1.010376, 4.21875, -0.0744629, 4.21875, 1.9770992, 4.21875, 1.7328244, 4.21875, -2.8396947
0.4971176, -0.012253, 4.2255, -0.0063477, 4.2255, -1.0101318, 4.2255, -0.0700684, 4.2255, 2.4045801, 4.2255, 1.7862595, 4.2255, -2.5572519
0.4979118, -0.0115816, 4.23225, -0.0044556, 4.23225, -1.0091553, 4.23225, -0.0686646, 4.23225, 2.351145, 4.23225, 2.2824428, 4.23225, -2.6641221
0.4987059, -0.0115816, 4.239, -0.003418, 4.239, -1.0139771, 4.239, -0.0713501, 4.239, 2.4503818, 4.239, 2.5038168, 4.239, -2.5114503
0.4995, -0.0132601, 4.24575, -0.0033569, 4.24575, -1.0106201, 4.24575, -0.0719604, 4.24575, 2.1908398, 4.24575, 2.519084, 4.24575, -2.5801528
0.5002941, -0.0115816, 4.2525, -0.0079346, 4.2525, -1.0095825, 4.2525, -0.0634766, 4.2525, 2.4961832, 4.2525, 2.8625953, 4.2525, -2.4656489
0.5010882, -0.0095674, 4.25925, -0.0068359, 4.25925, -1.0067139, 4.25925, -0.067688, 4.25925, 3.1526718, 4.25925, 3.7557251, 4.25925, -2.4427481
0.5018824, -0.0082246, 4.266, -0.0059204, 4.266, -1.0075073, 4.266, -0.0718994, 4.266, 3.5114503, 4.266, 3.610687, 4.266, -2.5267177
0.5026765, -0.0062104, 4.27275, -0.0091553, 4.27275, -1.0059204, 4.27275, -0.0684814, 4.27275, 3.5877862, 4.27275, 3.5725191, 4.27275, -2.4351146
0.5034706, -0.0109102, 4.2795, -0.0095825, 4.2795, -1.0059204, 4.2795, -0.0718994, 4.2795, 3.5343511, 4.2795, 3.4885497, 4.2795, -2.5725191
0.5042647, -0.012253, 4.28625, -0.0075684, 4.28625, -1.0055542, 4.28625, -0.0764771, 4.28625, 3.3206108, 4.28625, 2.9770992, 4.28625, -2.8854961
0.5050588, -0.0149386, 4.293, -0.0098267, 4.293, -1.0079956, 4.293, -0.0759888, 4.293, 3.1603053, 4.293, 2.5954199, 4.293, -2.8091602
0.5058529, -0.0154421, 4.29975, -0.0103149, 4.29975, -1.0055542, 4.29975, -0.0712891, 4.29975, 3.3206108, 4.29975, 2.5114503, 4.29975, -2.778626
0.5066471, -0.0166171, 4.3065, -0.008667, 4.3065, -1.0028687, 4.3065, -0.0769043, 4.3065, 3.1450381, 4.3065, 2.1603053, 4.3065, -2.8091602
0.5074412, -0.0149386, 4.31325, -0.0071411, 4.31325, -1.0054932, 4.31325, -0.0785522, 4.31325, 2.7709923, 4.31325, 1.8549619, 4.31325, -2.7328243
0.5082353, -0.0176242, 4.32, -0.0066528, 4.32, -1.0036621, 4.32, -0.0778198, 4.32, 2.4503818, 4.32, 1.6717557, 4.32, -2.6564887
0.5090294, -0.0176242, 4.32675, -0.0075684, 4.32675, -1.0075073, 4.32675, -0.0741577, 4.32675, 2.2366412, 4.32675, 1.2671756, 4.32675, -2.8015268
0.5098235, -0.0166171, 4.3335, -0.0109863, 4.3335, -1.0106812, 4.3335, -0.0690308, 4.3335, 2.2977099, 4.3335, 1.0305344, 4.3335, -2.8625953
0.5106176, -0.0152743, 4.34025, -0.0093384, 4.34025, -1.0067749, 4.34025, -0.0626831, 4.34025, 2.4732823, 4.34025, 1.1450381, 4.34025, -2.740458
0.5114118, -0.0135958, 4.347, -0.0095825, 4.347, -1.005188, 4.347, -0.05896, 4.347, 2.4656489, 4.347, 1.5572519, 4.347, -2.5038168
0.5122059, -0.0092317, 4.35375, -0.0131226, 4.35375, -1.0073242, 4.35375, -0.0616455, 4.35375, 2.3587787, 4.35375, 2.2671757, 4.35375, -2.3358779
0.513, -0.0125887, 4.3605, -0.0102539, 4.3605, -1.0043945, 4.3605, -0.0723267, 4.3605, 2.351145, 4.3605, 2.2366412, 4.3605, -2.2290077
0.5137941, -0.0139315, 4.36725, -0.0068359, 4.36725, -1.0046387, 4.36725, -0.0720215, 4.36725, 2.5648854, 4.36725, 1.6183206, 4.36725, -2.4198472
0.5145882, -0.0125887, 4.374, -0.0042114, 4.374, -1.0057983, 4.374, -0.0725098, 4.374, 3.0992367, 4.374, 2.2366412, 4.374, -2.5267177
0.5153824, -0.0132601, 4.38075, -0.0025635, 4.38075, -1.0098267, 4.38075, -0.0757446, 4.38075, 3.091603, 4.38075, 2.1603053, 4.38075, -2.7099237
0.5161765, -0.0130922, 4.3875, -0.0061035, 4.3875, -1.0112915, 4.3875, -0.0693359, 4.3875, 3.0458016, 4.3875, 1.9847329, 4.3875, -2.6259542
0.5169706, -0.012253, 4.39425, -0.0077515, 4.39425, -1.0077515, 4.39425, -0.0720215, 4.39425, 2.9465649, 4.39425, 1.7633588, 4.39425, -2.6641221
0.5177647, -0.0129244, 4.401, -0.0115356, 4.401, -1.005249, 4.401, -0.0756226, 4.401, 2.6183207, 4.401, 1.4351145, 4.401, -2.7557251
0.5185588, -0.0182956, 4.40775, -0.0096436, 4.40775, -1.0076904, 4.40775, -0.0739136, 4.40775, 2.4656489, 4.40775, 0.6870229, 4.40775, -2.7862597
0.5193529, -0.0209812, 4.4145, -0.0077515, 4.4145, -1.0014648, 4.4145, -0.0717773, 4.4145, 2.091603, 4.4145, 0.3129771, 4.4145, -2.8167939
0.5201471, -0.0216526, 4.42125, -0.0032959, 4.42125, -1.0098877, 4.42125, -0.0611572, 4.42125, 2.2366412, 4.42125, 0.9847328, 4.42125, -3.091603
0.5209412, -0.0209812, 4.428, -0.0037842, 4.428, -1.0081787, 4.428, -0.0576782, 4.428, 1.908397, 4.428, 1.5877863, 4.428, -2.8473282
0.5217353, -0.0182956, 4.43475, -0.0021362, 4.43475, -1.0060425, 4.43475, -0.0700073, 4.43475, 2.0534351, 4.43475, 1.7099236, 4.43475, -2.8625953
0.5225294, -0.0193027, 4.4415, -0.0083008, 4.4415, -1.0029907, 4.4415, -0.0792236, 4.4415, 1.8473282, 4.4415, 1.7480916, 4.4415, -2.8549619
0.5233235, -0.0206455, 4.44825, -0.0075073, 4.44825, -1.0041504, 4.44825, -0.0822754, 4.44825, 1.5267175, 4.44825, 1.519084, 4.44825, -2.740458
0.5241176, -0.0184634, 4.455, -0.0075684, 4.455, -1.0061646, 4.455, -0.0803833, 4.455, 1.5419847, 4.455, 1.4503816, 4.455, -3.0458016
0.5249118, -0.0182956, 4.46175, -0.0081177, 4.46175, -1.0131226, 4.46175, -0.0732422, 4.46175, 1.6870229, 4.46175, 1.1679389, 4.46175, -3.0687022
0.5257059, -0.0184634, 4.4685, -0.0072021, 4.4685, -1.0114136, 4.4685, -0.0739746, 4.4685, 1.9160305, 4.4685, 0.9389313, 4.4685, -2.8549619
0.5265, -0.0169528, 4.47525, -0.0067749, 4.47525, -1.0085449, 4.47525, -0.0723267, 4.47525, 1.8625954, 4.47525, 0.8167939, 4.47525, -2.9541984
0.5272941, -0.0109102, 4.482, -0.0057373, 4.482, -1.008728, 4.482, -0.0708618, 4.482, 2.1679389, 4.482, 1.2671756, 4.482, -2.870229
0.5280882, -0.0135958, 4.48875, -0.0040894, 4.48875, -1.008606, 4.48875, -0.0707397, 4.48875, 2.0992367, 4.48875, 1.5114504, 4.48875, -2.8473282
0.5288824, -0.0135958, 4.4955, -0.0053711, 4.4955, -1.0082397, 4.4955, -0.0661621, 4.4955, 2.2900763, 4.4955, 1.8473282, 4.4955, -2.7251909
0.5296765, -0.0137636, 4.50225, -0.0048828, 4.50225, -1.0085449, 4.50225, -0.0662842, 4.50225, 2.7938931, 4.50225, 2.5801528, 4.50225, -2.7328243
0.5304706, -0.012253, 4.509, -0.006897, 4.509, -1.0042725, 4.509, -0.0757446, 4.509, 3.1603053, 4.509, 2.8396947, 4.509, -2.5725191
0.5312647, -0.0142672, 4.51575, -0.0053101, 4.51575, -1.0042725, 4.51575, -0.0751953, 4.51575, 3.0839694, 4.51575, 2.519084, 4.51575, -2.6717558
0.5320588, -0.0140993, 4.5225, -0.0098267, 4.5225, -1.0079956, 4.5225, -0.0704956, 4.5225, 2.8244274, 4.5225, 2.5801528, 4.5225, -2.7633588
0.5328529, -0.0129244, 4.52925, -0.0114136, 4.52925, -1.0089722, 4.52925, -0.0678101, 4.52925, 2.7251909, 4.52925, 2.091603, 4.52925, -2.9007633
0.5336471, -0.0142672, 4.536, -0.0111694, 4.536, -1.0100098, 4.536, -0.0686646, 4.536, 2.6412213, 4.536, 1.7557251, 4.536, -2.8625953
0.5344412, -0.012253, 4.54275, -0.0089722, 4.54275, -1.0055542, 4.54275, -0.0691528, 4.54275, 2.3969467, 4.54275, 1.3053435, 4.54275, -2.961832
0.5352353, -0.011078, 4.5495, -0.0105591, 4.5495, -1.0078125, 4.5495, -0.0661621, 4.5495, 2.3206108, 4.5495, 1.0839695, 4.5495, -3.038168
0.5360294, -0.0115816, 4.55625, -0.0072632, 4.55625, -1.0057373, 4.55625, -0.0703735, 4.55625, 2.1832061, 4.55625, 1.1068702, 4.55625, -3.0458016
0.5368235, -0.0162814, 4.563, -0.003418, 4.563, -1.0074463, 4.563, -0.0645142, 4.563, 2, 4.563, 1.0305344, 4.563, -2.9160306
0.5376176, -0.0182956, 4.56975, -0.0046387, 4.56975, -1.0072632, 4.56975, -0.0638428, 4.56975, 2.0458016, 4.56975, 1.3358779, 4.56975, -2.8931298
0.5384118, -0.0203098, 4.5765, -0.0056763, 4.5765, -1.0072632, 4.5765, -0.0619507, 4.5765, 1.9312977, 4.5765, 1.7557251, 4.5765, -2.8854961
0.5392059, -0.0182956, 4.58325, -0.0082397, 4.58325, -1.0056152, 4.58325, -0.0631104, 4.58325, 1.7862595, 4.58325, 2.129771, 4.58325, -2.8625953
0.54, -0.0149386, 4.59, -0.0115356, 4.59, -1.0061035, 4.59, -0.0658569, 4.59, 1.7099236, 4.59, 2.0076337, 4.59, -3.0458016
0.5407941, -0.0130922, 4.59675, -0.0189209, 4.59675, -1.0049438, 4.59675, -0.0618896, 4.59675, 1.6412214, 4.59675, 1.3053435, 4.59675, -2.9847329
0.5415882, -0.0125887, 4.6035, -0.0172729, 4.6035, -1.0042725, 4.6035, -0.0567627, 4.6035, 1.7862595, 4.6035, 1.0610687, 4.6035, -3.0610688
0.5423824, -0.0119173, 4.61025, -0.0165405, 4.61025, -1.0071411, 4.61025, -0.0559692, 4.61025, 2.0534351, 4.61025, 0.6412213, 4.61025, -3.0458016
0.5431765, -0.0102388, 4.617, -0.0122681, 4.617, -1.00354, 4.617, -0.0646362, 4.617, 1.7328244, 4.617, 0.2824427, 4.617, -3.0534351
0.5439706, -0.012253, 4.62375, -0.0090332, 4.62375, -1.0058594, 4.62375, -0.0621948, 4.62375, 1.2977099, 4.62375, 0.2748092, 4.62375, -3.0763359
0.5447647, -0.012253, 4.6305, -0.0073242, 4.6305, -1.0116577, 4.6305, -0.0568237, 4.6305, 1.389313, 4.6305, 0.4580153, 4.6305, -3.0610688
0.5455588, -0.0142672, 4.63725, -0.0089111, 4.63725, -1.0097046, 4.63725, -0.0618896, 4.63725, 1.648855, 4.63725, 0.480916, 4.63725, -3.1145039
0.5463529, -0.0129244, 4.644, -0.0093384, 4.644, -1.0065308, 4.644, -0.0645752, 4.644, 1.7557251, 4.644, 0.7328244, 4.644, -2.9312978
0.5471471, -0.0130922, 4.65075, -0.0076904, 4.65075, -1.0079346, 4.65075, -0.0554199, 4.65075, 1.2900764, 4.65075, 0.480916, 4.65075, -2.8778627
0.5479412, -0.0152743, 4.6575, -0.0105591, 4.6575, -1.0079956, 4.6575, -0.0609131, 4.6575, 1.259542, 4.6575, 0.9694657, 4.6575, -2.9541984
0.5487353, -0.0146029, 4.66425, -0.0088501, 4.66425, -1.0043335, 4.66425, -0.0696411, 4.66425, 1.5419847, 4.66425, 1.2442749, 4.66425, -2.8320611
0.5495294, -0.012253, 4.671, -0.0079956, 4.671, -1.0041504, 4.671, -0.067688, 4.671, 1.3664122, 4.671, 1.1984733, 4.671, -2.9847329
0.5503235, -0.012253, 4.67775, -0.0114746, 4.67775, -1.0064697, 4.67775, -0.0653687, 4.67775, 1.3206106, 4.67775, 0.9160305, 4.67775, -3.1526718
0.5511176, -0.0152743, 4.6845, -0.0110474, 4.6845, -1.0058594, 4.6845, -0.0618896, 4.6845, 1.4351145, 4.6845, 1.0687023, 4.6845, -3.1068702
0.5519118, -0.0171206, 4.69125, -0.0097656, 4.69125, -1.0073853, 4.69125, -0.0656128, 4.69125, 1.5648855, 4.69125, 1.221374, 4.69125, -3.2061069
0.5527059, -0.0206455, 4.698, -0.0099487, 4.698, -1.006958, 4.698, -0.0700073, 4.698, 1.7099236, 4.698, 0.8854962, 4.698, -3.2366412
0.5535, -0.0243381, 4.70475, -0.0146484, 4.70475, -1.0056152, 4.70475, -0.0718994, 4.70475, 1.4122137, 4.70475, 0.7557252, 4.70475, -3.1374047
0.5542941, -0.0223239, 4.7115, -0.0108643, 4.7115, -1.0064087, 4.7115, -0.067688, 4.7115, 1.480916, 4.7115, 0.3816794, 4.7115, -3.1603053
0.5550882, -0.0243381, 4.71825, -0.0079346, 4.71825, -1.0095215, 4.71825, -0.0666504, 4.71825, 1.3053435, 4.71825, 0.1603053, 4.71825, -3.1908398
0.5558824, -0.0263523, 4.725, -0.0097046, 4.725, -1.008728, 4.725, -0.0665894, 4.725, 1.259542, 4.725, 0, 4.725, -3.1908398
0.5566765, -0.0243381, 4.73175, -0.0073853, 4.73175, -1.0075073, 4.73175, -0.0657349, 4.73175, 1.4427481, 4.73175, 0.1526718, 4.73175, -3.1068702
0.5574706, -0.0216526, 4.7385, -0.0042725, 4.7385, -1.0087891, 4.7385, -0.0637817, 4.7385, 1.7709924, 4.7385, 0.648855, 4.7385, -3.1984732
0.5582647, -0.0184634, 4.74525, -0.003479, 4.74525, -1.0090332, 4.74525, -0.0672607, 4.74525, 1.6793894, 4.74525, 1.2824427, 4.74525, -3.1145039
0.5590588, -0.0176242, 4.752, -0.0070801, 4.752, -1.006958, 4.752, -0.067749, 4.752, 1.4351145, 4.752, 1.1145039, 4.752, -3.0610688
0.5598529, -0.0179599, 4.75875, -0.0090942, 4.75875, -1.0079956, 4.75875, -0.067688, 4.75875, 1.2748091, 4.75875, 1.0152671, 4.75875, -3.0305343
0.5606471, -0.0130922, 4.7655, -0.0100098, 4.7655, -1.0075684, 4.7655, -0.0641479, 4.7655, 1.4580153, 4.7655, 0.8015267, 4.7655, -2.9694657
0.5614412, -0.0104067, 4.77225, -0.012207, 4.77225, -1.0089722, 4.77225, -0.0636597, 4.77225, 1.6946565, 4.77225, 1.2824427, 4.77225, -3.0534351
0.5622353, -0.014435, 4.779, -0.0119629, 4.779, -1.0083008, 4.779, -0.0673828, 4.779, 1.5114504, 4.779, 1.129771, 4.779, -3.0305343
0.5630294, -0.0162814, 4.78575, -0.0129395, 4.78575, -1.0089722, 4.78575, -0.0634155, 4.78575, 1.610687, 4.78575, 1.0458015, 4.78575, -2.9694657
0.5638235, -0.0132601, 4.7925, -0.0098877, 4.7925, -1.0066528, 4.7925, -0.0596313, 4.7925, 1.4580153, 4.7925, 0.7633588, 4.7925, -3.0076337
0.5646176, -0.0139315, 4.79925, -0.0068359, 4.79925, -1.005249, 4.79925, -0.0628662, 4.79925, 1.3740458, 4.79925, 0.7099237, 4.79925, -3.129771
0.5654118, -0.0149386, 4.806, -0.0062866, 4.806, -1.0045166, 4.806, -0.0667114, 4.806, 1.6717557, 4.806, 0.5801527, 4.806, -3.2137403
0.5662059, -0.0129244, 4.81275, -0.007019, 4.81275, -1.005188, 4.81275, -0.0678101, 4.81275, 1.4580153, 4.81275, 0.7557252, 4.81275, -3.1908398
0.567, -0.0129244, 4.8195, -0.0090332, 4.8195, -1.0074463, 4.8195, -0.069519, 4.8195, 1.389313, 4.8195, 0.5877863, 4.8195, -3.129771
0.5677941, -0.0127565, 4.82625, -0.0102539, 4.82625, -1.0096436, 4.82625, -0.0682373, 4.82625, 1.5343511, 4.82625, 0.5877863, 4.82625, -2.9541984
0.5685882, -0.0137636, 4.833, -0.008728, 4.833, -1.0071411, 4.833, -0.0666504, 4.833, 1.2900764, 4.833, 0.4198473, 4.833, -3.091603
0.5693824, -0.0151064, 4.83975, -0.0096436, 4.83975, -1.0122681, 4.83975, -0.06427, 4.83975, 1.3740458, 4.83975, 0.3282443, 4.83975, -3.0610688
0.5701765, -0.0142672, 4.8465, -0.0074463, 4.8465, -1.0114746, 4.8465, -0.0648193, 4.8465, 1.4351145, 4.8465, 0.2748092, 4.8465, -3.0229008
0.5709706, -0.0149386, 4.85325, -0.0100708, 4.85325, -1.0072021, 4.85325, -0.0671387, 4.85325, 1.3435115, 4.85325, 0.0916031, 4.85325, -2.9923663
0.5717647, -0.0179599, 4.86, -0.0101318, 4.86, -1.0096436, 4.86, -0.0645752, 4.86, 1.2671756, 4.86, 0.0534351, 4.86, -3.2137403
0.5725588, -0.0182956, 4.86675, -0.0089111, 4.86675, -1.0038452, 4.86675, -0.0635376, 4.86675, 1.2824427, 4.86675, -0.0610687, 4.86675, -3.2519083
0.5733529, -0.0229953, 4.8735, -0.0120239, 4.8735, -1.0031738, 4.8735, -0.0653687, 4.8735, 1.259542, 4.8735, -0.7022901, 4.8735, -3.0458016
0.5741471, -0.0209812, 4.88025, -0.0119019, 4.88025, -1.0042114, 4.88025, -0.0673828, 4.88025, 1.0992366, 4.88025, -0.9389313, 4.88025, -3.221374
0.5749412, -0.0162814, 4.887, -0.0107422, 4.887, -1.0089111, 4.887, -0.0662231, 4.887, 0.9770992, 4.887, -0.9236641, 4.887, -3.2061069
0.5757353, -0.018967, 4.89375, -0.0093994, 4.89375, -1.013916, 4.89375, -0.0599976, 4.89375, 1.0610687, 4.89375, -1.1603054, 4.89375, -3.221374
0.5765294, -0.0164492, 4.9005, -0.0099487, 4.9005, -1.0072632, 4.9005, -0.057251, 4.9005, 1.3358779, 4.9005, -1.2137405, 4.9005, -3.221374
0.5773235, -0.0130922, 4.90725, -0.0083008, 4.90725, -1.0025024, 4.90725, -0.0651245, 4.90725, 1.2061069, 4.90725, -0.9770992, 4.90725, -3.0687022
0.5781176, -0.0142672, 4.914, -0.0082397, 4.914, -1.0042114, 4.914, -0.0650024, 4.914, 0.9389313, 4.914, -1.0992366, 4.914, -3.0534351
0.5789118, -0.0142672, 4.92075, -0.0062256, 4.92075, -1.0042114, 4.92075, -0.0639648, 4.92075, 0.7633588, 4.92075, -0.8625954, 4.92075, -3.1908398
0.5797059, -0.0139315, 4.9275, -0.0105591, 4.9275, -1.0105591, 4.9275, -0.0606689, 4.9275, 1.0763359, 4.9275, 0.519084, 4.9275, -3.129771
0.5805, -0.0102388, 4.93425, -0.0108643, 4.93425, -1.0088501, 4.93425, -0.059082, 4.93425, 1.8625954, 4.93425, 1.8091604, 4.93425, -3.1603053
0.5812941, -0.0083925, 4.941, -0.0153809, 4.941, -1.0080566, 4.941, -0.055603, 4.941, 1.648855, 4.941, 1.519084, 4.941, -3.129771
0.5820882, -0.0078889, 4.94775, -0.0145264, 4.94775, -1.00354, 4.94775, -0.0577393, 4.94775, 1.5725191, 4.94775, 0.8931298, 4.94775, -3.2061069
0.5828824, -0.0075532, 4.9545, -0.0142212, 4.9545, -1.0062256, 4.9545, -0.0625, 4.9545, 1.648855, 4.9545, 0.4198473, 4.9545, -3.1755726
0.5836765, -0.0095674, 4.96125, -0.0117188, 4.96125, -1.0111694, 4.96125, -0.0587769, 4.96125, 1.2366412, 4.96125, -0.0381679, 4.96125, -3.1603053
0.5844706, -0.0109102, 4.968, -0.0106812, 4.968, -1.010498, 4.968, -0.0583496, 4.968, 1.2824427, 4.968, 0.1450382, 4.968, -3.1755726
0.5852647, -0.0109102, 4.97475, -0.0089722, 4.97475, -1.006897, 4.97475, -0.0657959, 4.97475, 1.091603, 4.97475, 0.1908397, 4.97475, -3.0992367
0.5860588, -0.0142672, 4.9815, -0.006897, 4.9815, -1.005249, 4.9815, -0.06427, 4.9815, 0.6946565, 4.9815, -0.0763359, 4.9815, -3.3282442
0.5868529, -0.018967, 4.98825, -0.0079346, 4.98825, -1.0093384, 4.98825, -0.0656128, 4.98825, 0.7938932, 4.98825, 0.0305344, 4.98825, -3.2519083
0.5876471, -0.0218204, 4.995, -0.0085449, 4.995, -1.0091553, 4.995, -0.0638428, 4.995, 0.7557252, 4.995, 0.3435115, 4.995, -3.2900763
0.5884412, -0.0199741, 5.00175, -0.0092163, 5.00175, -1.0059204, 5.00175, -0.0641479, 5.00175, 0.9847328, 5.00175, 0.3664122, 5.00175, -3.129771
0.5892353, -0.01561, 5.0085, -0.0082397, 5.0085, -1.0053711, 5.0085, -0.0648804, 5.0085, 1.0610687, 5.0085, 0.480916, 5.0085, -3.1984732
0.5900294, -0.0162814, 5.01525, -0.008606, 5.01525, -1.0050659, 5.01525, -0.0606689, 5.01525, 0.908397, 5.01525, 0.5343512, 5.01525, -3.1145039
0.5908235, -0.0159457, 5.022, -0.0118408, 5.022, -1.0092163, 5.022, -0.0574341, 5.022, 0.740458, 5.022, 0.4427481, 5.022, -3.129771
0.5916176, -0.0125887, 5.02875, -0.0115356, 5.02875, -1.010437, 5.02875, -0.062561, 5.02875, 0.8549618, 5.02875, 0.389313, 5.02875, -3.3587787
0.5924118, -0.0162814, 5.0355, -0.0100098, 5.0355, -1.0083008, 5.0355, -0.0622559, 5.0355, 1.2977099, 5.0355, 0.0763359, 5.0355, -3.2519083
0.5932059, -0.0152743, 5.04225, -0.010437, 5.04225, -1.0109253, 5.04225, -0.0567017, 5.04225, 1.2442749, 5.04225, -0.1832061, 5.04225, -3.2977099
0.594, -0.0102388, 5.049, -0.0116577, 5.049, -1.0079346, 5.049, -0.0594482, 5.049, 1.1221374, 5.049, -0.1908397, 5.049, -3.1068702
0.5947941, -0.0102388, 5.05575, -0.008606, 5.05575, -1.0095825, 5.05575, -0.0581665, 5.05575, 0.8473282, 5.05575, 0.0229008, 5.05575, -3.1603053
0.5955882, -0.008896, 5.0625, -0.0097046, 5.0625, -1.0078735, 5.0625, -0.0563965, 5.0625, 0.480916, 5.0625, 0.2748092, 5.0625, -3.1755726
0.5963824, -0.0112459, 5.06925, -0.0091553, 5.06925, -1.005127, 5.06925, -0.0603638, 5.06925, 0.5572519, 5.06925, 0.1145038, 5.06925, -3.1068702
0.5971765, -0.0085603, 5.076, -0.0103149, 5.076, -1.0061035, 5.076, -0.0616455, 5.076, 0.4122137, 5.076, -0.1068702, 5.076, -3.3740458
0.5979706, -0.0075532, 5.08275, -0.0122681, 5.08275, -1.0076294, 5.08275, -0.0576172, 5.08275, 0.5343512, 5.08275, 0.221374, 5.08275, -3.1908398
0.5987647, -0.0099031, 5.0895, -0.0123901, 5.0895, -1.0083618, 5.0895, -0.0612183, 5.0895, 0.8167939, 5.0895, 0.519084, 5.0895, -3.2900763
0.5995588, -0.0115816, 5.09625, -0.0130615, 5.09625, -1.0065918, 5.09625, -0.0618896, 5.09625, 0.8778626, 5.09625, 0.5648855, 5.09625, -3.2977099
0.6003529, -0.0082246, 5.103, -0.0118408, 5.103, -1.0064087, 5.103, -0.0628052, 5.103, 0.6946565, 5.103, 0.648855, 5.103, -3.3740458
0.6011471, -0.0102388, 5.10975, -0.0072632, 5.10975, -1.0053711, 5.10975, -0.0654297, 5.10975, 0.4351145, 5.10975, 0.0763359, 5.10975, -3.1908398
0.6019412, -0.0115816, 5.1165, -0.0090332, 5.1165, -1.0087891, 5.1165, -0.0608521, 5.1165, 0.2137405, 5.1165, -0.2824427, 5.1165, -3.3740458
0.6027353, -0.012253, 5.12325, -0.0073242, 5.12325, -1.0111084, 5.12325, -0.0560913, 5.12325, 0.3740458, 5.12325, 0.3664122, 5.12325, -3.2519083
0.6035294, -0.0169528, 5.13, -0.0068359, 5.13, -1.0059204, 5.13, -0.0601807, 5.13, 0.5496183, 5.13, 0.3664122, 5.13, -3.1832061
0.6043235, -0.0179599, 5.13675, -0.0096436, 5.13675, -1.0068359, 5.13675, -0.0599976, 5.13675, 0.3969466, 5.13675, 0.4580153, 5.13675, -3.2671757
0.6051176, -0.0184634, 5.1435, -0.0093384, 5.1435, -1.0093994, 5.1435, -0.0648804, 5.1435, 0.6183206, 5.1435, 0.4961832, 5.1435, -3.3358779
0.6059118, -0.0208133, 5.15025, -0.0078125, 5.15025, -1.0090332, 5.15025, -0.0670166, 5.15025, 0.6335878, 5.15025, 0.3816794, 5.15025, -3.389313
0.6067059, -0.0176242, 5.157, -0.0098267, 5.157, -1.0062866, 5.157, -0.0678711, 5.157, 0.7557252, 5.157, 0.3129771, 5.157, -3.4198472
0.6075, -0.0169528, 5.16375, -0.0088501, 5.16375, -1.0059204, 5.16375, -0.0714722, 5.16375, 0.7633588, 5.16375, 0.3740458, 5.16375, -3.3587787
0.6082941, -0.0199741, 5.1705, -0.0057373, 5.1705, -1.0053711, 5.1705, -0.0752563, 5.1705, 0.8854962, 5.1705, 0.3740458, 5.1705, -3.4427481
0.6090882, -0.018967, 5.17725, -0.0037231, 5.17725, -1.0072021, 5.17725, -0.0723877, 5.17725, 0.6946565, 5.17725, 0.4580153, 5.17725, -3.519084
0.6098824, -0.0196384, 5.184, -0.0075684, 5.184, -1.0092773, 5.184, -0.0696411, 5.184, 0.8396947, 5.184, 0.9923664, 5.184, -3.3053436
0.6106765, -0.0146029, 5.19075, -0.0048828, 5.19075, -1.0075073, 5.19075, -0.0784912, 5.19075, 0.9465649, 5.19075, 0.8549618, 5.19075, -3.3664122
0.6114706, -0.012253, 5.1975, -0.0042725, 5.1975, -1.0084229, 5.1975, -0.0717163, 5.1975, 0.8778626, 5.1975, 1.1984733, 5.1975, -3.3282442
0.6122647, -0.0149386, 5.20425, -0.0050659, 5.20425, -1.0098267, 5.20425, -0.0696411, 5.20425, 0.9007633, 5.20425, 1.8931298, 5.20425, -3.1832061
0.6130588, -0.0105745, 5.211, -0.0032349, 5.211, -1.0083008, 5.211, -0.0751343, 5.211, 1.1145039, 5.211, 2.0610688, 5.211, -3.0305343
0.6138529, -0.012253, 5.21775, -0.005127, 5.21775, -1.0057983, 5.21775, -0.0742798, 5.21775, 1.4961832, 5.21775, 2.0992367, 5.21775, -3.0763359
0.6146471, -0.0142672, 5.2245, -0.0090332, 5.2245, -1.0054321, 5.2245, -0.0762329, 5.2245, 1.8244275, 5.2245, 2.6030533, 5.2245, -3.091603
0.6154412, -0.0135958, 5.23125, -0.0089111, 5.23125, -1.0055542, 5.23125, -0.0754395, 5.23125, 1.9312977, 5.23125, 2.4732823, 5.23125, -3.0152671
0.6162353, -0.0139315, 5.238, -0.0045166, 5.238, -1.0103149, 5.238, -0.0720215, 5.238, 2.0152671, 5.238, 2.4198472, 5.238, -3.1603053
0.6170294, -0.0149386, 5.24475, -0.0065308, 5.24475, -1.0045166, 5.24475, -0.0740967, 5.24475, 1.9770992, 5.24475, 2.7633588, 5.24475, -3.1679389
0.6178235, -0.0196384, 5.2515, -0.0064697, 5.2515, -1.0085449, 5.2515, -0.0689697, 5.2515, 2.0839694, 5.2515, 2.8473282, 5.2515, -3.3740458
0.6186176, -0.0191348, 5.25825, -0.0073242, 5.25825, -1.0095215, 5.25825, -0.0650635, 5.25825, 2.5725191, 5.25825, 3.0305343, 5.25825, -3.1908398
0.6194118, -0.0182956, 5.265, -0.0106201, 5.265, -1.0096436, 5.265, -0.0668945, 5.265, 2.5648854, 5.265, 2.9694657, 5.265, -3.0076337
0.6202059, -0.018967, 5.27175, -0.0059204, 5.27175, -1.0100098, 5.27175, -0.0656738, 5.27175, 2.4961832, 5.27175, 3.0305343, 5.27175, -3.0534351
0.621, -0.0204776, 5.2785, -0.0119019, 5.2785, -1.0068359, 5.2785, -0.0675049, 5.2785, 2.5801528, 5.2785, 2.740458, 5.2785, -3.1221373
0.6217941, -0.0218204, 5.28525, -0.010376, 5.28525, -1.007019, 5.28525, -0.0627441, 5.28525, 2.5648854, 5.28525, 2.1526718, 5.28525, -3.0076337
0.6225882, -0.0236667, 5.292, -0.0103149, 5.292, -1.005127, 5.292, -0.059021, 5.292, 2.3282442, 5.292, 1.9923664, 5.292, -3.1908398
0.6233824, -0.0236667, 5.29875, -0.0113525, 5.29875, -1.0081177, 5.29875, -0.0577393, 5.29875, 2.0763359, 5.29875, 1.8625954, 5.29875, -3.1832061
0.6241765, -0.0226596, 5.3055, -0.0085449, 5.3055, -1.0061035, 5.3055, -0.0513916, 5.3055, 1.7709924, 5.3055, 1.5725191, 5.3055, -3.2900763
0.6249706, -0.0206455, 5.31225, -0.0089722, 5.31225, -1.0054321, 5.31225, -0.0425415, 5.31225, 1.610687, 5.31225, 1.9847329, 5.31225, -3.2366412
0.6257647, -0.0216526, 5.319, -0.0133667, 5.319, -1.0066528, 5.319, -0.0566406, 5.319, 1.6259542, 5.319, 1.8396946, 5.319, -3.3969467
0.6265588, -0.0206455, 5.32575, -0.0142212, 5.32575, -1.0047607, 5.32575, -0.0640259, 5.32575, 1.5267175, 5.32575, 1.5877863, 5.32575, -3.3740458
0.6273529, -0.0157778, 5.3325, -0.015625, 5.3325, -1.0072632, 5.3325, -0.0560913, 5.3325, 1.1908396, 5.3325, 1.3587786, 5.3325, -3.2900763
0.6281471, -0.0139315, 5.33925, -0.0099487, 5.33925, -1.010498, 5.33925, -0.0604248, 5.33925, 1.519084, 5.33925, 1.1832061, 5.33925, -3.2748091
0.6289412, -0.0109102, 5.346, -0.0075073, 5.346, -1.0089722, 5.346, -0.0663452, 5.346, 1.7480916, 5.346, 1.1679389, 5.346, -3.4274809
0.6297353, -0.0130922, 5.35275, -0.008728, 5.35275, -1.0081177, 5.35275, -0.0687866, 5.35275, 1.9007634, 5.35275, 1.4122137, 5.35275, -3.3664122
0.6305294, -0.0137636, 5.3595, -0.0081787, 5.3595, -1.0083618, 5.3595, -0.0674438, 5.3595, 1.7709924, 5.3595, 1.2519084, 5.3595, -3.4427481
0.6313235, -0.0142672, 5.36625, -0.0076294, 5.36625, -1.0087891, 5.36625, -0.0610962, 5.36625, 1.8320611, 5.36625, 1.3206106, 5.36625, -3.5572519
0.6321176, -0.0157778, 5.373, -0.010437, 5.373, -1.0071411, 5.373, -0.0637207, 5.373, 1.8931298, 5.373, 1.3282443, 5.373, -3.4045801
0.6329118, -0.0115816, 5.37975, -0.0117798, 5.37975, -1.0083008, 5.37975, -0.0645752, 5.37975, 1.7480916, 5.37975, 1.4580153, 5.37975, -3.221374
0.6337059, -0.0085603, 5.3865, -0.0115356, 5.3865, -1.0046387, 5.3865, -0.0627441, 5.3865, 1.8091604, 5.3865, 1.2290076, 5.3865, -3.1908398
0.6345, -0.0115816, 5.39325, -0.010498, 5.39325, -1.0071411, 5.39325, -0.0597534, 5.39325, 1.6870229, 5.39325, 0.9770992, 5.39325, -3.4580152
0.6352941, -0.0132601, 5.4, -0.0080566, 5.4, -1.0076294, 5.4, -0.0606689, 5.4, 1.7022901, 5.4, 0.778626, 5.4, -3.2061069
0.6360882, -0.0154421, 5.40675, -0.0099487, 5.40675, -1.0062866, 5.40675, -0.0596313, 5.40675, 1.7557251, 5.40675, 0.6412213, 5.40675, -3.1755726
0.6368824, -0.0146029, 5.4135, -0.010437, 5.4135, -1.0066528, 5.4135, -0.0614014, 5.4135, 1.7099236, 5.4135, 0.4198473, 5.4135, -3.2519083
0.6376765, -0.0169528, 5.42025, -0.0060425, 5.42025, -1.0082397, 5.42025, -0.0651855, 5.42025, 1.6564885, 5.42025, 0.2900763, 5.42025, -3.389313
0.6384706, -0.0166171, 5.427, -0.0090332, 5.427, -1.0063477, 5.427, -0.0591431, 5.427, 1.740458, 5.427, 0.0458015, 5.427, -3.4198472
0.6392647, -0.0209812, 5.43375, -0.0064087, 5.43375, -1.0093994, 5.43375, -0.0630493, 5.43375, 1.7709924, 5.43375, 0.2671756, 5.43375, -3.2137403
0.6400588, -0.0213169, 5.4405, -0.006897, 5.4405, -1.0058594, 5.4405, -0.0575562, 5.4405, 1.5496184, 5.4405, 0.8244275, 5.4405, -3.0610688
0.6408529, -0.0203098, 5.44725, -0.0111694, 5.44725, -1.006897, 5.44725, -0.0585327, 5.44725, 1.3435115, 5.44725, 1.1221374, 5.44725, -3.129771
0.6416471, -0.0209812, 5.454, -0.010376, 5.454, -1.0067139, 5.454, -0.0601807, 5.454, 1.2137405, 5.454, 1.0763359, 5.454, -3.0763359
0.6424412, -0.0206455, 5.46075, -0.0075073, 5.46075, -1.006897, 5.46075, -0.0610352, 5.46075, 1.3358779, 5.46075, 0.7557252, 5.46075, -2.961832
0.6432353, -0.0203098, 5.4675, -0.0100708, 5.4675, -1.0054321, 5.4675, -0.0611572, 5.4675, 1.3129771, 5.4675, 0.5343512, 5.4675, -3.1068702
0.6440294, -0.0203098, 5.47425, -0.0097046, 5.47425, -1.0061646, 5.47425, -0.0592041, 5.47425, 1.1068702, 5.47425, 0.2442748, 5.47425, -3.1221373
0.6448235, -0.0162814, 5.481, -0.0078735, 5.481, -1.0092163, 5.481, -0.0480957, 5.481, 0.8549618, 5.481, 0.351145, 5.481, -3.221374
0.6456176, -0.01561, 5.48775, -0.0089111, 5.48775, -1.0067139, 5.48775, -0.0480347, 5.48775, 1.1145039, 5.48775, 0.9923664, 5.48775, -3.2137403
0.6464118, -0.0142672, 5.4945, -0.0113525, 5.4945, -1.0037842, 5.4945, -0.060791, 5.4945, 1.2366412, 5.4945, 0.7709923, 5.4945, -3.2977099
0.6472059, -0.0146029, 5.50125, -0.0130615, 5.50125, -1.006958, 5.50125, -0.0623779, 5.50125, 1.0305344, 5.50125, 0.9465649, 5.50125, -3.1145039
0.648, -0.0132601, 5.508, -0.0117188, 5.508, -1.0072632, 5.508, -0.0418701, 5.508, 0.3740458, 5.508, 1.5419847, 5.508, -2.870229
0.6487941, -0.0129244, 5.51475, -0.0081177, 5.51475, -1.0092163, 5.51475, -0.0287476, 5.51475, 0.7633588, 5.51475, 3.7557251, 5.51475, -2.5496182
0.6495882, -0.012253, 5.5215, -0.0076904, 5.5215, -1.0064087, 5.5215, -0.0527954, 5.5215, 1.4274809, 5.5215, 5.4580154, 5.5215, -2.3587787
0.6503824, -0.0149386, 5.52825, -0.0074463, 5.52825, -0.9974976, 5.52825, -0.0635986, 5.52825, 1.8549619, 5.52825, 5.2519083, 5.52825, -2.3206108
0.6511765, -0.0139315, 5.535, -0.0055542, 5.535, -0.9955444, 5.535, -0.0639648, 5.535, 1.3435115, 5.535, 3.9389312, 5.535, -2.5267177
0.6519706, -0.0142672, 5.54175, 0.0050049, 5.54175, -0.9983521, 5.54175, -0.0690308, 5.54175, 0.9312977, 5.54175, 3.8854961, 5.54175, -2.7175572
0.6527647, -0.0149386, 5.5485, 0.0080566, 5.5485, -1.0183105, 5.5485, -0.0655518, 5.5485, 1.6717557, 5.5485, 4.6870227, 5.5485, -2.7099237
0.6535588, -0.0149386, 5.55525, 0.0003662, 5.55525, -1.0176392, 5.55525, -0.0563354, 5.55525, 2.3740458, 5.55525, 3.648855, 5.55525, -2.7938931
0.6543529, -0.0154421, 5.562, -0.012146, 5.562, -1.0075684, 5.562, -0.0579834, 5.562, 2.5572519, 5.562, 3.8396947, 5.562, -2.6793892
0.6551471, -0.0176242, 5.56875, -0.0136108, 5.56875, -1.0026855, 5.56875, -0.0619507, 5.56875, 2.4656489, 5.56875, 4.3587785, 5.56875, -2.5114503
0.6559412, -0.0223239, 5.5755, -0.0092163, 5.5755, -1.0030518, 5.5755, -0.057373, 5.5755, 2.259542, 5.5755, 3.9007633, 5.5755, -2.5114503
0.6567353, -0.0201419, 5.58225, -0.0014648, 5.58225, -1.0057983, 5.58225, -0.06427, 5.58225, 1.8778626, 5.58225, 3.610687, 5.58225, -2.5114503
0.6575294, -0.0169528, 5.589, 0.0044556, 5.589, -1.0111084, 5.589, -0.0673828, 5.589, 1.5267175, 5.589, 3.3435113, 5.589, -2.4122138
0.6583235, -0.01561, 5.59575, 0.0081787, 5.59575, -1.0137329, 5.59575, -0.0762939, 5.59575, 2.4351146, 5.59575, 4.7175574, 5.59575, -2.5801528
0.6591176, -0.0082246, 5.6025, 0.0025635, 5.6025, -1.0101318, 5.6025, -0.0826416, 5.6025, 2.7022901, 5.6025, 5.1832061, 5.6025, -2.5648854
0.6599118, -0.0073854, 5.60925, -0.003418, 5.60925, -1.0075684, 5.60925, -0.0853271, 5.60925, 3.4198472, 5.60925, 5.1832061, 5.60925, -2.7633588
0.6607059, -0.0068818, 5.616, -0.0057983, 5.616, -1.0064697, 5.616, -0.0864258, 5.616, 3.8473282, 5.616, 5.4274807, 5.616, -2.870229
0.6615, -0.0077211, 5.62275, -0.0115967, 5.62275, -1.0059814, 5.62275, -0.0779419, 5.62275, 4.0916033, 5.62275, 5.3435116, 5.62275, -2.9312978
0.6622941, -0.0097353, 5.6295, -0.0145874, 5.6295, -1.0064697, 5.6295, -0.0776978, 5.6295, 4.3282442, 5.6295, 4.4961834, 5.6295, -3.0610688
0.6630882, -0.0078889, 5.63625, -0.0150146, 5.63625, -1.0045166, 5.63625, -0.0870361, 5.63625, 4.4427481, 5.63625, 4.2366414, 5.63625, -3.2442749
0.6638824, -0.0068818, 5.643, -0.0108643, 5.643, -1.0111694, 5.643, -0.0705566, 5.643, 4.0687022, 5.643, 5.1297708, 5.643, -3.0458016
0.6646765, -0.0075532, 5.64975, -0.0096436, 5.64975, -1.0114136, 5.64975, -0.0609741, 5.64975, 3.8320611, 5.64975, 5.5038166, 5.64975, -2.9541984
0.6654706, -0.008896, 5.6565, -0.0032959, 5.6565, -1.005249, 5.6565, -0.0627441, 5.6565, 3.221374, 5.6565, 5.2519083, 5.6565, -2.7251909
0.6662647, -0.0132601, 5.66325, 0.0010376, 5.66325, -0.9981689, 5.66325, -0.0662842, 5.66325, 3.2442749, 5.66325, 7.0076337, 5.66325, -2.5877862
0.6670588, -0.0149386, 5.67, 0.0020752, 5.67, -1.0007324, 5.67, -0.0689087, 5.67, 2.8015268, 5.67, 7.2137403, 5.67, -2.6946564
0.6678529, -0.0135958, 5.67675, -0.0012817, 5.67675, -1.0029297, 5.67675, -0.072876, 5.67675, 2.3816793, 5.67675, 6.6870227, 5.67675, -2.8854961
0.6686471, -0.0159457, 5.6835, 0.0008545, 5.6835, -1.006897, 5.6835, -0.0829468, 5.6835, 2.0992367, 5.6835, 5.8778625, 5.6835, -3.1755726
0.6694412, -0.0172885, 5.69025, -0.0023193, 5.69025, -1.0089722, 5.69025, -0.0772705, 5.69025, 1.961832, 5.69025, 5.3435116, 5.69025, -3.4122138
0.6702353, -0.0199741, 5.697, -0.0093384, 5.697, -1.0178833, 5.697, -0.0595093, 5.697, 2.5954199, 5.697, 4.9923663, 5.697, -3.3969467
0.6710294, -0.0219883, 5.70375, -0.0149536, 5.70375, -1.0142822, 5.70375, -0.0689697, 5.70375, 2.5496182, 5.70375, 3.8778627, 5.70375, -3.5725191
0.6718235, -0.0209812, 5.7105, -0.0220947, 5.7105, -1.0074463, 5.7105, -0.0580444, 5.7105, 2.3969467, 5.7105, 3.2519083, 5.7105, -3.6641221
0.6726176, -0.0206455, 5.71725, -0.0261841, 5.71725, -1.0106201, 5.71725, -0.046814, 5.71725, 2.4885497, 5.71725, 3.2061069, 5.71725, -3.6870229
0.6734118, -0.0191348, 5.724, -0.0275879, 5.724, -1.0068359, 5.724, -0.0518188, 5.724, 3.1679389, 5.724, 3.4503818, 5.724, -3.5801528
0.6742059, -0.0182956, 5.73075, -0.0220337, 5.73075, -0.9990234, 5.73075, -0.0490112, 5.73075, 2.9007633, 5.73075, 2.4427481, 5.73075, -3.351145
0.675, -0.018967, 5.7375, -0.0178223, 5.7375, -1.0014038, 5.7375, -0.0593872, 5.7375, 2.1068702, 5.7375, 2.1145039, 5.7375, -3.4427481
0.6757941, -0.0221561, 5.74425, -0.0154419, 5.74425, -1.0063477, 5.74425, -0.0584106, 5.74425, 1.6793894, 5.74425, 2.0992367, 5.74425, -3.5114503
0.6765882, -0.0194705, 5.751, -0.0159912, 5.751, -1.0109253, 5.751, -0.0526123, 5.751, 1.6259542, 5.751, 2.2977099, 5.751, -3.4961832
0.6773824, -0.0176242, 5.75775, -0.0111694, 5.75775, -1.0122681, 5.75775, -0.048645, 5.75775, 1.8931298, 5.75775, 3.4198472, 5.75775, -3.4351146
0.6781765, -0.0152743, 5.7645, -0.0128784, 5.7645, -1.0132446, 5.7645, -0.0452271, 5.7645, 2.0610688, 5.7645, 4.1297708, 5.7645, -3.4122138
