Application:, Trigno Discover (1.7.0)
Date/Time:, 2026/9/9 上午 10:52:11
Collection Length (seconds):, 39.798
Avanti Sensor 11 (69574)
sensor mode: 50
EMG 1 Time Series (s), EMG 1 (mV), ACC X Time Series (s), ACC X (G), ACC Y Time Series (s), ACC Y (G), ACC Z Time Series (s), ACC Z (G), GYRO X Time Series (s), GYRO X (deg/s), GYRO Y Time Series (s), GYRO Y (deg/s), GYRO Z Time Series (s), GYRO Z (deg/s)
, 1259.2593 Hz, , 148.1481 Hz, , 148.1481 Hz, , 148.1481 Hz, , 148.1481 Hz, , 148.1481 Hz, , 148.1481 Hz
0, -0.0251774, 0, -0.0008545, 0, -1.0043945, 0, -0.1209106, 0, 1.519084, 0, 1.3969465, 0, -2.1221373
0.0007941, -0.0236667, 0.00675, -0.0007935, 0.00675, -1.0053101, 0.00675, -0.1206665, 0.00675, 1.8091604, 0.00675, 1.3816794, 0.00675, -2.1679389
0.0015882, -0.0218204, 0.0135, -0.003479, 0.0135, -1.0067139, 0.0135, -0.1201782, 0.0135, 1.5038168, 0.0135, 1.6564885, 0.0135, -2.3129771
0.0023824, -0.0204776, 0.02025, -0.0010986, 0.02025, -1.0083008, 0.02025, -0.1182251, 0.02025, 1.7480916, 0.02025, 1.6412214, 0.02025, -1.9847329
0.0031765, -0.0159457, 0.027, 0.0007324, 0.027, -1.0073853, 0.027, -0.1182251, 0.027, 1.9160305, 0.027, 1.6412214, 0.027, -2.0687022
0.0039706, -0.0115816, 0.03375, 0.0001831, 0.03375, -1.0067749, 0.03375, -0.1176147, 0.03375, 1.778626, 0.03375, 1.7480916, 0.03375, -2.0992367
0.0047647, -0.0109102, 0.0405, 0.0004883, 0.0405, -1.0081787, 0.0405, -0.1103516, 0.0405, 1.5572519, 0.0405, 2.038168, 0.0405, -1.8854961
0.0055588, -0.0068818, 0.04725, -0.0004272, 0.04725, -1.008667, 0.04725, -0.1149902, 0.04725, 1.5954199, 0.04725, 1.6946565, 0.04725, -2.0152671
0.0063529, -0.0109102, 0.054, -0.0006714, 0.054, -1.0123291, 0.054, -0.1169434, 0.054, 1.5648855, 0.054, 1.5801526, 0.054, -1.9007634
0.0071471, -0.0152743, 0.06075, 0.0010986, 0.06075, -1.0067749, 0.06075, -0.1190186, 0.06075, 1.6717557, 0.06075, 1.8625954, 0.06075, -2.0992367
0.0079412, -0.0176242, 0.0675, -0.0010986, 0.0675, -1.0065308, 0.0675, -0.1187744, 0.0675, 1.389313, 0.0675, 1.7175573, 0.0675, -1.778626
0.0087353, -0.0166171, 0.07425, -0.0021973, 0.07425, -1.0048828, 0.07425, -0.1140747, 0.07425, 1.4045801, 0.07425, 1.9389313, 0.07425, -1.870229
0.0095294, -0.0124208, 0.081, -0.0032349, 0.081, -1.0083618, 0.081, -0.1165161, 0.081, 1.5038168, 0.081, 2.1832061, 0.081, -1.6946565
0.0103235, -0.0129244, 0.08775, -0.0036011, 0.08775, -1.0042725, 0.08775, -0.1157837, 0.08775, 1.3282443, 0.08775, 2.091603, 0.08775, -1.6793894
0.0111176, -0.0082246, 0.0945, -0.0090332, 0.0945, -1.005188, 0.0945, -0.1155396, 0.0945, 1.2442749, 0.0945, 2.0839694, 0.0945, -1.9847329
0.0119118, -0.0085603, 0.10125, -0.0126343, 0.10125, -1.0092773, 0.10125, -0.1165161, 0.10125, 1.1679389, 0.10125, 2.3435113, 0.10125, -1.7709924
0.0127059, -0.0097353, 0.108, -0.0111694, 0.108, -1.0028076, 0.108, -0.1160889, 0.108, 1.2824427, 0.108, 2.2137403, 0.108, -1.8854961
0.0135, -0.0085603, 0.11475, -0.013855, 0.11475, -1.0036011, 0.11475, -0.1201172, 0.11475, 1.2977099, 0.11475, 1.9312977, 0.11475, -1.7328244
0.0142941, -0.005539, 0.1215, -0.0133057, 0.1215, -1.0056763, 0.1215, -0.1202393, 0.1215, 1.0839695, 0.1215, 1.9236641, 0.1215, -1.8473282
0.0150882, -0.0085603, 0.12825, -0.013916, 0.12825, -1.0057373, 0.12825, -0.1173096, 0.12825, 0.8625954, 0.12825, 1.9465649, 0.12825, -1.6335878
0.0158824, -0.0124208, 0.135, -0.0110474, 0.135, -1.0050049, 0.135, -0.1162109, 0.135, 1.0458015, 0.135, 1.8931298, 0.135, -1.9312977
0.0166765, -0.0105745, 0.14175, -0.0100098, 0.14175, -1.0038452, 0.14175, -0.1169434, 0.14175, 0.8931298, 0.14175, 1.7862595, 0.14175, -1.9389313
0.0174706, -0.0139315, 0.1485, -0.0062866, 0.1485, -1.0056152, 0.1485, -0.1171875, 0.1485, 0.7938932, 0.1485, 1.7022901, 0.1485, -1.8854961
0.0182647, -0.0159457, 0.15525, -0.0033569, 0.15525, -1.006958, 0.15525, -0.1157227, 0.15525, 0.8931298, 0.15525, 1.7862595, 0.15525, -1.8473282
0.0190588, -0.0176242, 0.162, -0.0062256, 0.162, -1.0090332, 0.162, -0.1183472, 0.162, 1.0229008, 0.162, 1.9541985, 0.162, -2.0076337
0.0198529, -0.0191348, 0.16875, -0.0065308, 0.16875, -1.0100708, 0.16875, -0.1171875, 0.16875, 1.0992366, 0.16875, 2.0992367, 0.16875, -1.9465649
0.0206471, -0.0206455, 0.1755, -0.0067749, 0.1755, -1.0076904, 0.1755, -0.1194458, 0.1755, 1.2977099, 0.1755, 2.1221373, 0.1755, -1.961832
0.0214412, -0.018967, 0.18225, -0.0058594, 0.18225, -1.0076294, 0.18225, -0.1184082, 0.18225, 1.2366412, 0.18225, 2.389313, 0.18225, -2.0992367
0.0222353, -0.0142672, 0.189, -0.0080566, 0.189, -1.0048828, 0.189, -0.1235962, 0.189, 1.4580153, 0.189, 2.1679389, 0.189, -1.961832
0.0230294, -0.0117494, 0.19575, -0.0135498, 0.19575, -1.0039062, 0.19575, -0.1160278, 0.19575, 1.2900764, 0.19575, 2.4503818, 0.19575, -2.0534351
0.0238235, -0.0115816, 0.2025, -0.0131226, 0.2025, -1.0043335, 0.2025, -0.1124268, 0.2025, 1.4122137, 0.2025, 2.4656489, 0.2025, -1.8320611
0.0246176, -0.0092317, 0.20925, -0.0114746, 0.20925, -1.0031738, 0.20925, -0.1149292, 0.20925, 1.5038168, 0.20925, 2.4580152, 0.20925, -1.8854961
0.0254118, -0.0058747, 0.216, -0.0124512, 0.216, -1.0025635, 0.216, -0.1202393, 0.216, 1.2519084, 0.216, 2.2366412, 0.216, -2
0.0262059, -0.0090639, 0.22275, -0.0148315, 0.22275, -1.0054932, 0.22275, -0.1170654, 0.22275, 1.3740458, 0.22275, 2.1221373, 0.22275, -2.0076337
0.027, -0.01561, 0.2295, -0.0146484, 0.2295, -1.0083618, 0.2295, -0.1172485, 0.2295, 1.1832061, 0.2295, 2.2977099, 0.2295, -1.9236641
0.0277941, -0.0135958, 0.23625, -0.010376, 0.23625, -1.0068359, 0.23625, -0.1132812, 0.23625, 1.3587786, 0.23625, 2.2519083, 0.23625, -2.1221373
0.0285882, -0.0162814, 0.243, -0.0109253, 0.243, -1.0096436, 0.243, -0.1178589, 0.243, 1.4198474, 0.243, 2.3740458, 0.243, -2.1984732
0.0293824, -0.0203098, 0.24975, -0.0175781, 0.24975, -1.0058594, 0.24975, -0.1190796, 0.24975, 1.1374046, 0.24975, 2.0076337, 0.24975, -2.3129771
0.0301765, -0.018967, 0.2565, -0.0178223, 0.2565, -1.0043335, 0.2565, -0.1176758, 0.2565, 0.9770992, 0.2565, 2.0839694, 0.2565, -2.129771
0.0309706, -0.0157778, 0.26325, -0.0149536, 0.26325, -1.0068359, 0.26325, -0.119873, 0.26325, 1.3358779, 0.26325, 2.1221373, 0.26325, -2.1374047
0.0317647, -0.0186313, 0.27, -0.0145874, 0.27, -1.0057983, 0.27, -0.1208496, 0.27, 1.351145, 0.27, 1.9160305, 0.27, -2.1526718
0.0325588, -0.018967, 0.27675, -0.0129395, 0.27675, -1.0032959, 0.27675, -0.1192627, 0.27675, 1.1755725, 0.27675, 1.9541985, 0.27675, -2.3664122
0.0333529, -0.0162814, 0.2835, -0.0140381, 0.2835, -1.0042725, 0.2835, -0.1159668, 0.2835, 1.1374046, 0.2835, 1.8396946, 0.2835, -2.3358779
0.0341471, -0.0129244, 0.29025, -0.0130005, 0.29025, -1.0072021, 0.29025, -0.119751, 0.29025, 1.2366412, 0.29025, 1.7099236, 0.29025, -2.351145
0.0349412, -0.0119173, 0.297, -0.0097656, 0.297, -1.0101318, 0.297, -0.1205444, 0.297, 1.2671756, 0.297, 2.1145039, 0.297, -2.1908398
0.0357353, -0.0149386, 0.30375, -0.0123291, 0.30375, -1.0072021, 0.30375, -0.117981, 0.30375, 1.3816794, 0.30375, 2.3358779, 0.30375, -2.4427481
0.0365294, -0.0130922, 0.3105, -0.0075073, 0.3105, -1.0089722, 0.3105, -0.1183472, 0.3105, 1.3282443, 0.3105, 2.4274809, 0.3105, -2.3740458
0.0373235, -0.0124208, 0.31725, -0.012146, 0.31725, -1.0067139, 0.31725, -0.1146851, 0.31725, 1.4045801, 0.31725, 2.4656489, 0.31725, -2.4503818
0.0381176, -0.0109102, 0.324, -0.0126343, 0.324, -1.012085, 0.324, -0.1172485, 0.324, 1.3435115, 0.324, 2.259542, 0.324, -2.5038168
0.0389118, -0.0142672, 0.33075, -0.020813, 0.33075, -1.0105591, 0.33075, -0.1166992, 0.33075, 1.3282443, 0.33075, 2.1603053, 0.33075, -2.8244274
0.0397059, -0.0203098, 0.3375, -0.0202026, 0.3375, -1.0066528, 0.3375, -0.1170044, 0.3375, 1.2977099, 0.3375, 1.9923664, 0.3375, -2.7251909
0.0405, -0.0221561, 0.34425, -0.027832, 0.34425, -1.0043945, 0.34425, -0.1203003, 0.34425, 0.9770992, 0.34425, 1.6946565, 0.34425, -2.961832
0.0412941, -0.0219883, 0.351, -0.0273438, 0.351, -1.0048218, 0.351, -0.1177368, 0.351, 0.8549618, 0.351, 1.2061069, 0.351, -2.6946564
0.0420882, -0.0193027, 0.35775, -0.0271606, 0.35775, -1.0040894, 0.35775, -0.1199341, 0.35775, 0.6412213, 0.35775, 0.9770992, 0.35775, -2.9541984
0.0428824, -0.0152743, 0.3645, -0.0252686, 0.3645, -1.0056152, 0.3645, -0.114624, 0.3645, 0.5114504, 0.3645, 0.961832, 0.3645, -2.9847329
0.0436765, -0.0139315, 0.37125, -0.0192871, 0.37125, -1.0064087, 0.37125, -0.1158447, 0.37125, 0.5114504, 0.37125, 0.4961832, 0.37125, -3.2748091
0.0444706, -0.0171206, 0.378, -0.015625, 0.378, -1.0089111, 0.378, -0.1151123, 0.378, 0.3435115, 0.378, 0.0763359, 0.378, -3.1221373
0.0452647, -0.0203098, 0.38475, -0.0139771, 0.38475, -1.0065918, 0.38475, -0.1166992, 0.38475, 0.1984733, 0.38475, 0.2824427, 0.38475, -3.2519083
0.0460588, -0.0182956, 0.3915, -0.0072021, 0.3915, -1.0061035, 0.3915, -0.1192017, 0.3915, 0.1221374, 0.3915, 0.5343512, 0.3915, -3.1374047
0.0468529, -0.0169528, 0.39825, -0.0007324, 0.39825, -1.0108032, 0.39825, -0.1173706, 0.39825, 0.0229008, 0.39825, 0.3587786, 0.39825, -3.2824428
0.0476471, -0.0149386, 0.405, -0.0019531, 0.405, -1.0100098, 0.405, -0.118042, 0.405, 0.2519084, 0.405, 0.7328244, 0.405, -3.3435113
0.0484412, -0.0109102, 0.41175, -0.0018311, 0.41175, -1.0109253, 0.41175, -0.1222534, 0.41175, 0.0229008, 0.41175, 0.7251908, 0.41175, -3.3129771
0.0492353, -0.0082246, 0.4185, -0.0109253, 0.4185, -1.0117188, 0.4185, -0.1206055, 0.4185, 0.1832061, 0.4185, 0.0381679, 0.4185, -3.3816793
0.0500294, -0.0065461, 0.42525, -0.0153809, 0.42525, -1.0091553, 0.42525, -0.1183472, 0.42525, 0.6335878, 0.42525, 0.8778626, 0.42525, -3.2977099
0.0508235, -0.0102388, 0.432, -0.0117798, 0.432, -1.0106201, 0.432, -0.1171265, 0.432, 0.7862595, 0.432, 0.7022901, 0.432, -3.3282442
0.0516176, -0.0085603, 0.43875, -0.0144653, 0.43875, -1.0087891, 0.43875, -0.1208496, 0.43875, 0.5801527, 0.43875, 0.0458015, 0.43875, -3.5419848
0.0524118, -0.0048676, 0.4455, -0.0189819, 0.4455, -1.0083008, 0.4455, -0.125061, 0.4455, 0.3435115, 0.4455, -0.1908397, 0.4455, -3.5114503
0.0532059, -0.005539, 0.45225, -0.0186157, 0.45225, -1.0048828, 0.45225, -0.1245117, 0.45225, 0.5572519, 0.45225, -0.2824427, 0.45225, -3.3358779
0.054, -0.0073854, 0.459, -0.0151367, 0.459, -1.0111084, 0.459, -0.1179199, 0.459, 0.5725191, 0.459, -0.0381679, 0.459, -3.2519083
0.0547941, -0.0085603, 0.46575, -0.0130005, 0.46575, -1.0108643, 0.46575, -0.1244507, 0.46575, 0.5954198, 0.46575, -0.5419847, 0.46575, -3.4732823
0.0555882, -0.0072175, 0.4725, -0.0126343, 0.4725, -1.0072021, 0.4725, -0.1315918, 0.4725, 0.8015267, 0.4725, -0.6030535, 0.4725, -3.5877862
0.0563824, -0.01561, 0.47925, -0.0131226, 0.47925, -1.0072021, 0.47925, -0.1239624, 0.47925, 0.4885496, 0.47925, -0.4961832, 0.47925, -3.5496182
0.0571765, -0.0213169, 0.486, -0.012146, 0.486, -1.0080566, 0.486, -0.1212769, 0.486, 0.7022901, 0.486, -0.4885496, 0.486, -3.5496182
0.0579706, -0.0193027, 0.49275, -0.0137939, 0.49275, -1.0083008, 0.49275, -0.1217651, 0.49275, 0.7938932, 0.49275, -0.5572519, 0.49275, -3.4122138
0.0587647, -0.0169528, 0.4995, -0.0166626, 0.4995, -1.0063477, 0.4995, -0.1212769, 0.4995, 0.778626, 0.4995, -0.6030535, 0.4995, -3.4656489
0.0595588, -0.0179599, 0.50625, -0.0100708, 0.50625, -1.0072021, 0.50625, -0.1225586, 0.50625, 0.6030535, 0.50625, -0.351145, 0.50625, -3.4656489
0.0603529, -0.0164492, 0.513, -0.0111084, 0.513, -1.0084839, 0.513, -0.1207275, 0.513, 0.870229, 0.513, -0.1450382, 0.513, -3.4656489
0.0611471, -0.0149386, 0.51975, -0.0081787, 0.51975, -1.0073242, 0.51975, -0.1202393, 0.51975, 0.9389313, 0.51975, -0.0916031, 0.51975, -3.519084
0.0619412, -0.0146029, 0.5265, -0.0094604, 0.5265, -1.0081177, 0.5265, -0.12323, 0.5265, 0.7022901, 0.5265, 0.1603053, 0.5265, -3.519084
0.0627353, -0.0135958, 0.53325, -0.0073853, 0.53325, -1.0083008, 0.53325, -0.1195068, 0.53325, 0.7328244, 0.53325, 0.3969466, 0.53325, -3.5496182
0.0635294, -0.0132601, 0.54, -0.0081177, 0.54, -1.0095215, 0.54, -0.1205444, 0.54, 1.1984733, 0.54, 0.4427481, 0.54, -3.5801528
0.0643235, -0.0099031, 0.54675, -0.0079956, 0.54675, -1.0096436, 0.54675, -0.1195068, 0.54675, 1.2824427, 0.54675, 0.5572519, 0.54675, -3.6793892
0.0651176, -0.0097353, 0.5535, -0.0144043, 0.5535, -1.008667, 0.5535, -0.1216431, 0.5535, 1.4045801, 0.5535, 0.5419847, 0.5535, -3.6183207
0.0659118, -0.0092317, 0.56025, -0.0143433, 0.56025, -1.0053101, 0.56025, -0.1220093, 0.56025, 1.221374, 0.56025, 0.8244275, 0.56025, -3.648855
0.0667059, -0.0119173, 0.567, -0.0116577, 0.567, -1.0078125, 0.567, -0.1224976, 0.567, 1.4503816, 0.567, 0.6564885, 0.567, -3.6030533
0.0675, -0.0139315, 0.57375, -0.0114136, 0.57375, -1.0066528, 0.57375, -0.1226807, 0.57375, 1.5572519, 0.57375, 0.8015267, 0.57375, -3.5267177
0.0682941, -0.0119173, 0.5805, -0.0116577, 0.5805, -1.0080566, 0.5805, -0.1218872, 0.5805, 1.5954199, 0.5805, 0.7633588, 0.5805, -3.5954199
0.0690882, -0.0099031, 0.58725, -0.0157471, 0.58725, -1.0067139, 0.58725, -0.1191406, 0.58725, 1.6335878, 0.58725, 0.4351145, 0.58725, -3.6564887
0.0698824, -0.0097353, 0.594, -0.0130615, 0.594, -1.008728, 0.594, -0.1176758, 0.594, 1.6030535, 0.594, 0.0458015, 0.594, -3.7938931
0.0706765, -0.0082246, 0.60075, -0.0150146, 0.60075, -1.0076294, 0.60075, -0.1170044, 0.60075, 1.6870229, 0.60075, -0.0687023, 0.60075, -3.8167939
0.0714706, -0.0060426, 0.6075, -0.0115967, 0.6075, -1.008606, 0.6075, -0.1175537, 0.6075, 1.6717557, 0.6075, 0.0839695, 0.6075, -3.7480917
0.0722647, -0.0062104, 0.61425, -0.0061646, 0.61425, -1.0075073, 0.61425, -0.1194458, 0.61425, 1.4961832, 0.61425, 0.3053435, 0.61425, -3.648855
0.0730588, -0.0045319, 0.621, -0.007019, 0.621, -1.0036621, 0.621, -0.1226807, 0.621, 1.740458, 0.621, 0.4961832, 0.621, -3.8167939
0.0738529, -0.005539, 0.62775, -0.0087891, 0.62775, -1.0067749, 0.62775, -0.1239014, 0.62775, 1.5954199, 0.62775, 0.7099237, 0.62775, -3.870229
0.0746471, -0.0092317, 0.6345, -0.0056763, 0.6345, -1.0064697, 0.6345, -0.1176147, 0.6345, 1.6641221, 0.6345, 0.740458, 0.6345, -3.8015268
0.0754412, -0.0099031, 0.64125, -0.0050659, 0.64125, -1.0073242, 0.64125, -0.1192017, 0.64125, 1.5343511, 0.64125, 0.519084, 0.64125, -3.9389312
0.0762353, -0.0130922, 0.648, -0.0065918, 0.648, -1.006897, 0.648, -0.1177368, 0.648, 1.4351145, 0.648, 0.8320611, 0.648, -3.778626
0.0770294, -0.0129244, 0.65475, -0.0057983, 0.65475, -1.0081787, 0.65475, -0.121582, 0.65475, 1.610687, 0.65475, 0.8473282, 0.65475, -3.8320611
0.0778235, -0.0129244, 0.6615, -0.0073242, 0.6615, -1.0118408, 0.6615, -0.116333, 0.6615, 1.5648855, 0.6615, 0.9389313, 0.6615, -3.6717558
0.0786176, -0.0187991, 0.66825, -0.0100708, 0.66825, -1.0061035, 0.66825, -0.1149292, 0.66825, 1.4427481, 0.66825, 1.1221374, 0.66825, -3.778626
0.0794118, -0.0223239, 0.675, -0.0119019, 0.675, -1.0072021, 0.675, -0.114563, 0.675, 1.4045801, 0.675, 1.0534351, 0.675, -3.9007633
0.0802059, -0.0218204, 0.68175, -0.0087891, 0.68175, -1.0058594, 0.68175, -0.1202393, 0.68175, 1.5877863, 0.68175, 0.870229, 0.68175, -3.9312978
0.081, -0.0203098, 0.6885, -0.0062866, 0.6885, -1.0085449, 0.6885, -0.1183472, 0.6885, 1.5801526, 0.6885, 0.7862595, 0.6885, -3.7709923
0.0817941, -0.0162814, 0.69525, -0.0106812, 0.69525, -1.0090332, 0.69525, -0.1169434, 0.69525, 1.5267175, 0.69525, 1.0839695, 0.69525, -3.8778627
0.0825882, -0.0152743, 0.702, -0.013855, 0.702, -1.0088501, 0.702, -0.1161499, 0.702, 1.5496184, 0.702, 0.8473282, 0.702, -3.8549619
0.0833824, -0.0176242, 0.70875, -0.0145874, 0.70875, -1.0067139, 0.70875, -0.1154175, 0.70875, 1.5496184, 0.70875, 0.8549618, 0.70875, -3.6564887
0.0841765, -0.0142672, 0.7155, -0.0115356, 0.7155, -1.0050659, 0.7155, -0.1205444, 0.7155, 1.389313, 0.7155, 1.1374046, 0.7155, -3.5038168
0.0849706, -0.0142672, 0.72225, -0.0045166, 0.72225, -1.0067749, 0.72225, -0.1202393, 0.72225, 1.3053435, 0.72225, 0.7633588, 0.72225, -3.5648854
0.0857647, -0.0159457, 0.729, -0.005249, 0.729, -1.0088501, 0.729, -0.1195068, 0.729, 1.3129771, 0.729, 0.8015267, 0.729, -3.7022901
0.0865588, -0.0216526, 0.73575, -0.0048828, 0.73575, -1.0083008, 0.73575, -0.1171875, 0.73575, 1.1679389, 0.73575, 0.9236641, 0.73575, -3.648855
0.0873529, -0.0191348, 0.7425, -0.0058594, 0.7425, -1.007019, 0.7425, -0.1203613, 0.7425, 1.1832061, 0.7425, 1.129771, 0.7425, -3.648855
0.0881471, -0.01561, 0.74925, -0.0072021, 0.74925, -1.008606, 0.74925, -0.1204224, 0.74925, 1.0458015, 0.74925, 1.2824427, 0.74925, -3.5419848
0.0889412, -0.0149386, 0.756, -0.0064087, 0.756, -1.0079346, 0.756, -0.1221924, 0.756, 1.038168, 0.756, 1.2061069, 0.756, -3.6793892
0.0897353, -0.0181277, 0.76275, -0.0081787, 0.76275, -1.0071411, 0.76275, -0.1199951, 0.76275, 1.1068702, 0.76275, 1.1603054, 0.76275, -3.7862597
0.0905294, -0.0213169, 0.7695, -0.0122681, 0.7695, -1.0065918, 0.7695, -0.1166382, 0.7695, 1.0152671, 0.7695, 1.3282443, 0.7695, -3.8473282
0.0913235, -0.0182956, 0.77625, -0.0108032, 0.77625, -1.0056152, 0.77625, -0.1221313, 0.77625, 1.129771, 0.77625, 1.3358779, 0.77625, -3.610687
0.0921176, -0.0154421, 0.783, -0.0065918, 0.783, -1.0081787, 0.783, -0.1264038, 0.783, 1.259542, 0.783, 1.2900764, 0.783, -3.4961832
0.0929118, -0.0137636, 0.78975, -0.0054932, 0.78975, -1.0092163, 0.78975, -0.1212158, 0.78975, 1.0992366, 0.78975, 1.0610687, 0.78975, -3.7862597
0.0937059, -0.0171206, 0.7965, -0.0073853, 0.7965, -1.0078735, 0.7965, -0.1184692, 0.7965, 0.8549618, 0.7965, 0.9541985, 0.7965, -3.7328243
0.0945, -0.0157778, 0.80325, -0.0151367, 0.80325, -1.0057983, 0.80325, -0.1169434, 0.80325, 0.5648855, 0.80325, 1.1221374, 0.80325, -3.6870229
0.0952941, -0.0135958, 0.81, -0.0116577, 0.81, -1.0050659, 0.81, -0.1178589, 0.81, 0.5877863, 0.81, 1.038168, 0.81, -3.389313
0.0960882, -0.0129244, 0.81675, -0.0117188, 0.81675, -1.0078125, 0.81675, -0.116394, 0.81675, 1.0076336, 0.81675, 0.6946565, 0.81675, -3.6793892
0.0968824, -0.0135958, 0.8235, -0.0098877, 0.8235, -1.0048828, 0.8235, -0.1125488, 0.8235, 1.0763359, 0.8235, 0.4274809, 0.8235, -3.7709923
0.0976765, -0.0162814, 0.83025, -0.0075073, 0.83025, -1.0027466, 0.83025, -0.1137085, 0.83025, 1.0152671, 0.83025, 0.3969466, 0.83025, -3.8167939
0.0984706, -0.0196384, 0.837, -0.0089111, 0.837, -1.005127, 0.837, -0.1151733, 0.837, 0.9160305, 0.837, 0.648855, 0.837, -3.778626
0.0992647, -0.0253452, 0.84375, -0.0081787, 0.84375, -1.0088501, 0.84375, -0.1196899, 0.84375, 0.8473282, 0.84375, 0.6641222, 0.84375, -3.8396947
0.1000588, -0.0317235, 0.8505, -0.0057373, 0.8505, -1.0054932, 0.8505, -0.1211548, 0.8505, 0.8931298, 0.8505, 0.6717557, 0.8505, -3.870229
0.1008529, -0.0377661, 0.85725, -0.0064087, 0.85725, -1.0098877, 0.85725, -0.1178589, 0.85725, 1.038168, 0.85725, 0.4961832, 0.85725, -3.5877862
0.1016471, -0.0411231, 0.864, -0.005127, 0.864, -1.0115356, 0.864, -0.1160278, 0.864, 1.0610687, 0.864, 0.9465649, 0.864, -3.5877862
0.1024412, -0.0359197, 0.87075, -0.0062866, 0.87075, -1.0090942, 0.87075, -0.1261597, 0.87075, 1.2671756, 0.87075, 1.2290076, 0.87075, -3.7251909
0.1032353, -0.0261845, 0.8775, -0.0045166, 0.8775, -1.007019, 0.8775, -0.1259155, 0.8775, 1.0687023, 0.8775, 1.259542, 0.8775, -3.6412213
0.1040294, -0.0176242, 0.88425, -0.0068359, 0.88425, -1.0049438, 0.88425, -0.1208496, 0.88425, 1.0534351, 0.88425, 0.9312977, 0.88425, -3.5725191
0.1048235, -0.0135958, 0.891, -0.0037231, 0.891, -1.0097046, 0.891, -0.1209106, 0.891, 1.1603054, 0.891, 1.0763359, 0.891, -3.6183207
0.1056176, -0.0135958, 0.89775, -0.0020752, 0.89775, -1.0061035, 0.89775, -0.119873, 0.89775, 1.3053435, 0.89775, 0.9847328, 0.89775, -3.5114503
0.1064118, -0.0112459, 0.9045, -0.0039062, 0.9045, -1.0061035, 0.9045, -0.118042, 0.9045, 1.1984733, 0.9045, 1.0152671, 0.9045, -3.6717558
0.1072059, -0.0062104, 0.91125, -0.0048218, 0.91125, -1.0115356, 0.91125, -0.1188354, 0.91125, 1.3053435, 0.91125, 1.3129771, 0.91125, -3.5496182
0.108, -0.0048676, 0.918, -0.0057373, 0.918, -1.0097046, 0.918, -0.1185913, 0.918, 1.4961832, 0.918, 1.4045801, 0.918, -3.5801528
0.1087941, -0.0041962, 0.92475, -0.0082397, 0.92475, -1.0038452, 0.92475, -0.1161499, 0.92475, 1.3740458, 0.92475, 1.1450381, 0.92475, -3.5801528
0.1095882, -0.0075532, 0.9315, -0.0135498, 0.9315, -1.0061035, 0.9315, -0.1140747, 0.9315, 1.389313, 0.9315, 1.1374046, 0.9315, -3.6717558
0.1103824, -0.0083925, 0.93825, -0.0098877, 0.93825, -1.008606, 0.93825, -0.1208496, 0.93825, 1.3053435, 0.93825, 1.0305344, 0.93825, -3.4580152
0.1111765, -0.0159457, 0.945, -0.0068359, 0.945, -1.007019, 0.945, -0.1186523, 0.945, 1.091603, 0.945, 0.5038168, 0.945, -3.5725191
0.1119706, -0.0203098, 0.95175, -0.0076904, 0.95175, -1.0054932, 0.95175, -0.1218262, 0.95175, 0.8091603, 0.95175, 0.5114504, 0.95175, -3.480916
0.1127647, -0.0142672, 0.9585, -0.0059204, 0.9585, -1.0112305, 0.9585, -0.119812, 0.9585, 0.6641222, 0.9585, 0.6259542, 0.9585, -3.4274809
0.1135588, -0.0115816, 0.96525, -0.0073853, 0.96525, -1.0111694, 0.96525, -0.1193237, 0.96525, 0.9923664, 0.96525, 0.648855, 0.96525, -3.3053436
0.1143529, -0.0119173, 0.972, -0.0072632, 0.972, -1.010437, 0.972, -0.1202393, 0.972, 0.9389313, 0.972, 0.5648855, 0.972, -3.6183207
0.1151471, -0.0134279, 0.97875, -0.0112915, 0.97875, -1.0079956, 0.97875, -0.1201172, 0.97875, 1.0839695, 0.97875, 0.5801527, 0.97875, -3.519084
0.1159412, -0.0135958, 0.9855, -0.0080566, 0.9855, -1.0048218, 0.9855, -0.1220703, 0.9855, 0.8167939, 0.9855, 0.4885496, 0.9855, -3.389313
0.1167353, -0.0135958, 0.99225, -0.0042114, 0.99225, -1.0070801, 0.99225, -0.1211548, 0.99225, 0.6412213, 0.99225, 0.4122137, 0.99225, -3.3435113
0.1175294, -0.0095674, 0.999, -0.0032959, 0.999, -1.0093994, 0.999, -0.1176147, 0.999, 0.8625954, 0.999, 0.2366412, 0.999, -3.6793892
0.1183235, -0.0041962, 1.00575, -0.0045776, 1.00575, -1.0092163, 1.00575, -0.1229248, 1.00575, 0.8396947, 1.00575, 0.1145038, 1.00575, -3.5572519
0.1191176, -0.0062104, 1.0125, -0.0043335, 1.0125, -1.005249, 1.0125, -0.1201782, 1.0125, 0.9847328, 1.0125, 0.0152672, 1.0125, -3.4122138
0.1199118, -0.0112459, 1.01925, -0.0029297, 1.01925, -1.0067139, 1.01925, -0.1205444, 1.01925, 1.2748091, 1.01925, 0.2061069, 1.01925, -3.5496182
0.1207059, -0.0105745, 1.026, -0.0070801, 1.026, -1.0060425, 1.026, -0.12323, 1.026, 1.2290076, 1.026, 0.3053435, 1.026, -3.6183207
0.1215, -0.0099031, 1.03275, -0.0056763, 1.03275, -1.0049438, 1.03275, -0.1227417, 1.03275, 1.2900764, 1.03275, 0.0305344, 1.03275, -3.5572519
0.1222941, -0.0115816, 1.0395, -0.0057983, 1.0395, -1.0025024, 1.0395, -0.1188965, 1.0395, 1.1832061, 1.0395, 0.0687023, 1.0395, -3.5038168
0.1230882, -0.012253, 1.04625, -0.0065308, 1.04625, -1.0054932, 1.04625, -0.1166382, 1.04625, 1.259542, 1.04625, 0.1145038, 1.04625, -3.4503818
0.1238824, -0.008896, 1.053, -0.0084229, 1.053, -1.008728, 1.053, -0.1138306, 1.053, 1.4122137, 1.053, 0.3358779, 1.053, -3.2900763
0.1246765, -0.0062104, 1.05975, -0.0099487, 1.05975, -1.0077515, 1.05975, -0.1126709, 1.05975, 1.5725191, 1.05975, 0.2977099, 1.05975, -3.3816793
0.1254706, -0.0102388, 1.0665, -0.008667, 1.0665, -1.0075073, 1.0665, -0.1149902, 1.0665, 1.5114504, 1.0665, 0.5343512, 1.0665, -3.4503818
0.1262647, -0.0132601, 1.07325, -0.0075684, 1.07325, -1.0043945, 1.07325, -0.1183472, 1.07325, 1.4198474, 1.07325, 0.7862595, 1.07325, -3.4580152
0.1270588, -0.0137636, 1.08, -0.0048828, 1.08, -1.0057983, 1.08, -0.1217041, 1.08, 1.2900764, 1.08, 0.8931298, 1.08, -3.3816793
0.1278529, -0.0203098, 1.08675, -0.0097046, 1.08675, -1.0058594, 1.08675, -0.1199341, 1.08675, 1.4122137, 1.08675, 0.3358779, 1.08675, -3.4732823
0.1286471, -0.0236667, 1.0935, -0.0130615, 1.0935, -1.0039673, 1.0935, -0.1210938, 1.0935, 1.4503816, 1.0935, 0.2671756, 1.0935, -3.4351146
0.1294412, -0.0238346, 1.10025, -0.0097046, 1.10025, -1.0050659, 1.10025, -0.1164551, 1.10025, 1.4503816, 1.10025, 0.1984733, 1.10025, -3.4580152
0.1302353, -0.0273594, 1.107, -0.008667, 1.107, -1.0101929, 1.107, -0.1138916, 1.107, 1.5572519, 1.107, 0.1068702, 1.107, -3.4656489
0.1310294, -0.0276951, 1.11375, -0.0084839, 1.11375, -1.010376, 1.11375, -0.118042, 1.11375, 1.5648855, 1.11375, -0.2824427, 1.11375, -3.4961832
0.1318235, -0.0256809, 1.1205, -0.0033569, 1.1205, -1.0073853, 1.1205, -0.1175537, 1.1205, 1.6641221, 1.1205, -0.1526718, 1.1205, -3.3969467
0.1326176, -0.0270237, 1.12725, -0.0031738, 1.12725, -1.0025024, 1.12725, -0.1177979, 1.12725, 1.6335878, 1.12725, 0.0152672, 1.12725, -3.3129771
0.1334118, -0.0240024, 1.134, -0.007019, 1.134, -1.0050659, 1.134, -0.1148071, 1.134, 1.4656489, 1.134, -0.221374, 1.134, -3.4732823
0.1342059, -0.0186313, 1.14075, -0.0084839, 1.14075, -1.0090332, 1.14075, -0.1135864, 1.14075, 1.480916, 1.14075, -0.2366412, 1.14075, -3.4198472
0.135, -0.0129244, 1.1475, -0.0010986, 1.1475, -1.0119019, 1.1475, -0.1171265, 1.1475, 1.6030535, 1.1475, -0.3816794, 1.1475, -3.6412213
0.1357941, -0.0109102, 1.15425, -0.0004272, 1.15425, -1.0030518, 1.15425, -0.1207886, 1.15425, 1.8931298, 1.15425, -0.2061069, 1.15425, -3.6412213
0.1365882, -0.0127565, 1.161, -0.0067749, 1.161, -1.003479, 1.161, -0.1222534, 1.161, 1.3740458, 1.161, 0.5496183, 1.161, -3.4885497
0.1373824, -0.0117494, 1.16775, -0.0046997, 1.16775, -1.0040894, 1.16775, -0.1188354, 1.16775, 0.9160305, 1.16775, 0.4732825, 1.16775, -3.3435113
0.1381765, -0.0115816, 1.1745, -0.0067139, 1.1745, -1.0066528, 1.1745, -0.1165771, 1.1745, 0.9007633, 1.1745, 0.1374046, 1.1745, -3.3206108
0.1389706, -0.0112459, 1.18125, -0.0064697, 1.18125, -1.0064087, 1.18125, -0.1124268, 1.18125, 0.961832, 1.18125, 0.4961832, 1.18125, -3.389313
0.1397647, -0.008896, 1.188, -0.0058594, 1.188, -1.0061035, 1.188, -0.1101685, 1.188, 0.7480916, 1.188, 0.221374, 1.188, -3.3358779
0.1405588, -0.0068818, 1.19475, -0.012146, 1.19475, -1.0056763, 1.19475, -0.118042, 1.19475, 0.6183206, 1.19475, 0.0610687, 1.19475, -3.3969467
0.1413529, -0.0063783, 1.2015, -0.0122681, 1.2015, -1.0065918, 1.2015, -0.1168213, 1.2015, 0.4427481, 1.2015, 0.2061069, 1.2015, -2.9312978
0.1421471, -0.0065461, 1.20825, -0.005188, 1.20825, -1.0059204, 1.20825, -0.1113892, 1.20825, 0.6030535, 1.20825, 0.4656489, 1.20825, -3.2137403
0.1429412, -0.0063783, 1.215, -0.0050659, 1.215, -1.005127, 1.215, -0.1122437, 1.215, 0.7175573, 1.215, 0.4198473, 1.215, -3.1221373
0.1437353, -0.0063783, 1.22175, -0.005249, 1.22175, -1.0049438, 1.22175, -0.1097412, 1.22175, 0.7099237, 1.22175, 0.4045801, 1.22175, -3.1450381
0.1445294, -0.0075532, 1.2285, -0.0077515, 1.2285, -1.0089722, 1.2285, -0.1131592, 1.2285, 0.9007633, 1.2285, 0.6564885, 1.2285, -3.1832061
0.1453235, -0.0073854, 1.23525, -0.0078735, 1.23525, -1.0082397, 1.23525, -0.1157227, 1.23525, 1.1832061, 1.23525, 0.740458, 1.23525, -3.2519083
0.1461176, -0.0092317, 1.242, 0.0007324, 1.242, -1.0054321, 1.242, -0.1156006, 1.242, 1.519084, 1.242, 0.778626, 1.242, -3.1603053
0.1469118, -0.0068818, 1.24875, -0.0024414, 1.24875, -1.0054932, 1.24875, -0.1165161, 1.24875, 1.1145039, 1.24875, 1.1908396, 1.24875, -3.1755726
0.1477059, -0.0077211, 1.2555, -0.0054932, 1.2555, -1.0056763, 1.2555, -0.1170654, 1.2555, 1.129771, 1.2555, 0.9236641, 1.2555, -3.1221373
0.1485, -0.012253, 1.26225, -0.0049438, 1.26225, -1.0061646, 1.26225, -0.1155396, 1.26225, 1.2137405, 1.26225, 0.740458, 1.26225, -3.1755726
0.1492941, -0.0132601, 1.269, -0.0073853, 1.269, -1.0067749, 1.269, -0.1168213, 1.269, 1.2824427, 1.269, 1.038168, 1.269, -3.1679389
0.1500882, -0.0132601, 1.27575, -0.00177, 1.27575, -1.0043945, 1.27575, -0.1166382, 1.27575, 1.0992366, 1.27575, 0.9312977, 1.27575, -3.1145039
0.1508824, -0.010071, 1.2825, -0.0054321, 1.2825, -1.0023193, 1.2825, -0.116333, 1.2825, 1.0839695, 1.2825, 0.7709923, 1.2825, -3.2137403
0.1516765, -0.0109102, 1.28925, -0.010498, 1.28925, -1.0009155, 1.28925, -0.1194458, 1.28925, 1.1145039, 1.28925, 0.778626, 1.28925, -3.0839694
0.1524706, -0.0109102, 1.296, -0.0089111, 1.296, -1.0053711, 1.296, -0.1209106, 1.296, 1.0687023, 1.296, 0.8244275, 1.296, -3.0458016
0.1532647, -0.0130922, 1.30275, -0.0054321, 1.30275, -1.0073853, 1.30275, -0.1158447, 1.30275, 1.1908396, 1.30275, 0.7633588, 1.30275, -3.4198472
0.1540588, -0.0146029, 1.3095, -0.0053101, 1.3095, -1.0043945, 1.3095, -0.1174927, 1.3095, 1.1984733, 1.3095, 0.8625954, 1.3095, -3.3816793
0.1548529, -0.0135958, 1.31625, -0.0045776, 1.31625, -1.0060425, 1.31625, -0.1170654, 1.31625, 0.8931298, 1.31625, 0.9770992, 1.31625, -2.9541984
0.1556471, -0.0164492, 1.323, -0.0027466, 1.323, -1.0037842, 1.323, -0.1188354, 1.323, 0.778626, 1.323, 0.5419847, 1.323, -2.9770992
0.1564412, -0.0139315, 1.32975, -0.0021362, 1.32975, -1.0054321, 1.32975, -0.1179199, 1.32975, 0.9465649, 1.32975, 0.3282443, 1.32975, -3.0610688
0.1572353, -0.0132601, 1.3365, -0.0021362, 1.3365, -1.0045776, 1.3365, -0.1152344, 1.3365, 1.0610687, 1.3365, 0.4045801, 1.3365, -3.0610688
0.1580294, -0.0129244, 1.34325, -0.0029297, 1.34325, -1.0053101, 1.34325, -0.1176147, 1.34325, 1.1145039, 1.34325, 0.480916, 1.34325, -3.2137403
0.1588235, -0.0125887, 1.35, -0.0085449, 1.35, -1.0076294, 1.35, -0.1164551, 1.35, 0.9694657, 1.35, 0.7557252, 1.35, -3.0458016
0.1596176, -0.0135958, 1.35675, -0.0105591, 1.35675, -1.0041504, 1.35675, -0.1193237, 1.35675, 1.0610687, 1.35675, 0.6183206, 1.35675, -3.2290077
0.1604118, -0.0135958, 1.3635, -0.0140991, 1.3635, -1.0044556, 1.3635, -0.1234741, 1.3635, 0.870229, 1.3635, 0.7251908, 1.3635, -3.0763359
0.1612059, -0.0095674, 1.37025, -0.0142212, 1.37025, -1.005127, 1.37025, -0.1217041, 1.37025, 0.8931298, 1.37025, 0.8091603, 1.37025, -3.0229008
0.162, -0.012253, 1.377, -0.0083618, 1.377, -1.0058594, 1.377, -0.1176758, 1.377, 0.9389313, 1.377, 0.7251908, 1.377, -2.9770992
0.1627941, -0.0146029, 1.38375, -0.0085449, 1.38375, -1.0042114, 1.38375, -0.1151123, 1.38375, 0.9770992, 1.38375, 0.6259542, 1.38375, -2.9770992
0.1635882, -0.0135958, 1.3905, -0.0064087, 1.3905, -1.0050659, 1.3905, -0.1168213, 1.3905, 1.129771, 1.3905, 0.9160305, 1.3905, -3.0229008
0.1643824, -0.014435, 1.39725, -0.0053101, 1.39725, -1.0080566, 1.39725, -0.118103, 1.39725, 1.1450381, 1.39725, 0.8625954, 1.39725, -3.0610688
0.1651765, -0.0115816, 1.404, -0.0028687, 1.404, -1.0067139, 1.404, -0.1190186, 1.404, 1.0458015, 1.404, 0.9541985, 1.404, -3.1526718
0.1659706, -0.012253, 1.41075, -0.0041504, 1.41075, -1.0083618, 1.41075, -0.1157837, 1.41075, 0.9694657, 1.41075, 1.1145039, 1.41075, -3.0534351
0.1667647, -0.0125887, 1.4175, -0.0042725, 1.4175, -1.0054321, 1.4175, -0.1154785, 1.4175, 1.091603, 1.4175, 1.4503816, 1.4175, -3
0.1675588, -0.0132601, 1.42425, -0.0037842, 1.42425, -1.00354, 1.42425, -0.1224365, 1.42425, 1.0763359, 1.42425, 1.1908396, 1.42425, -2.8473282
0.1683529, -0.0146029, 1.431, -0.0059204, 1.431, -1.0067749, 1.431, -0.1170044, 1.431, 1.091603, 1.431, 1.6030535, 1.431, -3.1145039
0.1691471, -0.0149386, 1.43775, -0.0037842, 1.43775, -1.0079956, 1.43775, -0.1201782, 1.43775, 0.9694657, 1.43775, 1.6793894, 1.43775, -2.740458
0.1699412, -0.0135958, 1.4445, -0.0008545, 1.4445, -1.0062866, 1.4445, -0.1200562, 1.4445, 1.1679389, 1.4445, 1.2748091, 1.4445, -3.0229008
0.1707353, -0.0142672, 1.45125, -0.0040283, 1.45125, -1.0063477, 1.45125, -0.1191406, 1.45125, 1.1679389, 1.45125, 1.0458015, 1.45125, -3.0152671
0.1715294, -0.012253, 1.458, -0.0058594, 1.458, -1.0057983, 1.458, -0.1243286, 1.458, 1.0992366, 1.458, 0.961832, 1.458, -3.0076337
0.1723235, -0.0149386, 1.46475, -0.0045166, 1.46475, -1.003479, 1.46475, -0.1245117, 1.46475, 0.8549618, 1.46475, 0.8931298, 1.46475, -2.8320611
0.1731176, -0.0182956, 1.4715, -0.0075684, 1.4715, -1.0072632, 1.4715, -0.119812, 1.4715, 1.1450381, 1.4715, 0.7099237, 1.4715, -3.0992367
0.1739118, -0.0171206, 1.47825, -0.0073242, 1.47825, -1.0084839, 1.47825, -0.1187744, 1.47825, 1.038168, 1.47825, 1.0687023, 1.47825, -2.8854961
0.1747059, -0.0142672, 1.485, -0.0063477, 1.485, -1.010437, 1.485, -0.1140137, 1.485, 1.1374046, 1.485, 0.9312977, 1.485, -2.9236641
0.1755, -0.017792, 1.49175, -0.005127, 1.49175, -1.0081787, 1.49175, -0.1137695, 1.49175, 1.2519084, 1.49175, 0.9007633, 1.49175, -3.0458016
0.1762941, -0.018967, 1.4985, -0.0050659, 1.4985, -1.0098877, 1.4985, -0.1196899, 1.4985, 1.0610687, 1.4985, 1.1068702, 1.4985, -3.0229008
0.1770882, -0.0182956, 1.50525, -0.0074463, 1.50525, -1.0058594, 1.50525, -0.119873, 1.50525, 1.129771, 1.50525, 1.351145, 1.50525, -3.0305343
0.1778824, -0.0196384, 1.512, -0.0067139, 1.512, -1.0078125, 1.512, -0.1188965, 1.512, 1.0076336, 1.512, 1.4122137, 1.512, -3.0763359
0.1786765, -0.0240024, 1.51875, -0.0119629, 1.51875, -1.0094604, 1.51875, -0.1149902, 1.51875, 0.8625954, 1.51875, 1.1908396, 1.51875, -3.1908398
0.1794706, -0.0246738, 1.5255, -0.0134888, 1.5255, -1.0087891, 1.5255, -0.1154175, 1.5255, 0.8320611, 1.5255, 1.0839695, 1.5255, -3.091603
0.1802647, -0.0219883, 1.53225, -0.0172119, 1.53225, -1.0059204, 1.53225, -0.119812, 1.53225, 0.8167939, 1.53225, 1.2061069, 1.53225, -3.1068702
0.1810588, -0.0209812, 1.539, -0.0122681, 1.539, -1.0021362, 1.539, -0.1199951, 1.539, 0.870229, 1.539, 1.2137405, 1.539, -2.9541984
0.1818529, -0.0216526, 1.54575, -0.0095215, 1.54575, -1.0022583, 1.54575, -0.118042, 1.54575, 0.9160305, 1.54575, 1.0763359, 1.54575, -2.961832
0.1826471, -0.0186313, 1.5525, -0.0048828, 1.5525, -1.0056152, 1.5525, -0.1152954, 1.5525, 0.8091603, 1.5525, 0.9465649, 1.5525, -2.9312978
0.1834412, -0.0169528, 1.55925, -0.0050659, 1.55925, -1.0061646, 1.55925, -0.1103516, 1.55925, 0.648855, 1.55925, 0.8931298, 1.55925, -3.0305343
0.1842353, -0.0182956, 1.566, -0.0020752, 1.566, -1.0075684, 1.566, -0.1147461, 1.566, 0.8625954, 1.566, 1.3358779, 1.566, -2.9160306
0.1850294, -0.0169528, 1.57275, -0.0026855, 1.57275, -1.0082397, 1.57275, -0.1173096, 1.57275, 0.6870229, 1.57275, 1.3587786, 1.57275, -3.1221373
0.1858235, -0.0129244, 1.5795, -0.0031738, 1.5795, -1.0070801, 1.5795, -0.1177368, 1.5795, 0.8320611, 1.5795, 1.3129771, 1.5795, -2.8549619
0.1866176, -0.0129244, 1.58625, -0.0048218, 1.58625, -1.0055542, 1.58625, -0.1195679, 1.58625, 0.5343512, 1.58625, 1.519084, 1.58625, -2.8320611
0.1874118, -0.0149386, 1.593, -0.0076294, 1.593, -1.0084839, 1.593, -0.1192627, 1.593, 0.5343512, 1.593, 1.5114504, 1.593, -2.8625953
0.1882059, -0.0135958, 1.59975, -0.0106812, 1.59975, -1.0090332, 1.59975, -0.1195068, 1.59975, 0.6183206, 1.59975, 1.4580153, 1.59975, -3.0229008
0.189, -0.0184634, 1.6065, -0.0111694, 1.6065, -1.0075684, 1.6065, -0.1218872, 1.6065, 0.6946565, 1.6065, 1.5267175, 1.6065, -2.9160306
0.1897941, -0.0193027, 1.61325, -0.0130005, 1.61325, -1.0068359, 1.61325, -0.1202393, 1.61325, 0.8244275, 1.61325, 1.778626, 1.61325, -3.038168
0.1905882, -0.0135958, 1.62, -0.0145874, 1.62, -1.0041504, 1.62, -0.121582, 1.62, 0.8091603, 1.62, 1.351145, 1.62, -3.0076337
0.1913824, -0.010071, 1.62675, -0.0184326, 1.62675, -1.0065918, 1.62675, -0.1178589, 1.62675, 0.7480916, 1.62675, 1.1679389, 1.62675, -2.9694657
0.1921765, -0.0075532, 1.6335, -0.0153198, 1.6335, -1.0071411, 1.6335, -0.1201782, 1.6335, 0.7557252, 1.6335, 0.9770992, 1.6335, -3.091603
0.1929706, -0.0109102, 1.64025, -0.0089111, 1.64025, -1.0050049, 1.64025, -0.1204834, 1.64025, 0.8778626, 1.64025, 0.8931298, 1.64025, -3.2366412
0.1937647, -0.012253, 1.647, -0.0093384, 1.647, -1.003418, 1.647, -0.1253052, 1.647, 0.8396947, 1.647, 1.0152671, 1.647, -3.0076337
0.1945588, -0.0149386, 1.65375, -0.0063477, 1.65375, -1.0074463, 1.65375, -0.1159668, 1.65375, 0.8244275, 1.65375, 1.0610687, 1.65375, -2.8778627
0.1953529, -0.0135958, 1.6605, -0.0022583, 1.6605, -1.0083008, 1.6605, -0.1159668, 1.6605, 0.8015267, 1.6605, 1.259542, 1.6605, -3.0687022
0.1961471, -0.01561, 1.66725, -0.0006104, 1.66725, -1.0100098, 1.66725, -0.1147461, 1.66725, 0.9847328, 1.66725, 1.2442749, 1.66725, -3.0610688
0.1969412, -0.0199741, 1.674, -0.0009766, 1.674, -1.0050049, 1.674, -0.1185303, 1.674, 0.7709923, 1.674, 1.1984733, 1.674, -3.1221373
0.1977353, -0.0191348, 1.68075, -0.0039062, 1.68075, -1.0064697, 1.68075, -0.1193237, 1.68075, 0.6412213, 1.68075, 1.389313, 1.68075, -3.0534351
0.1985294, -0.0149386, 1.6875, -0.0073853, 1.6875, -1.0068359, 1.6875, -0.1176147, 1.6875, 0.6564885, 1.6875, 1.1221374, 1.6875, -3.0992367
0.1993235, -0.0142672, 1.69425, -0.0114746, 1.69425, -1.0089111, 1.69425, -0.1138306, 1.69425, 0.6259542, 1.69425, 1.1603054, 1.69425, -2.9770992
0.2001176, -0.0135958, 1.701, -0.010498, 1.701, -1.0075073, 1.701, -0.1158447, 1.701, 0.7175573, 1.701, 1.4656489, 1.701, -3.0152671
0.2009118, -0.0119173, 1.70775, -0.0071411, 1.70775, -1.003418, 1.70775, -0.12146, 1.70775, 0.7022901, 1.70775, 1.0610687, 1.70775, -3.0305343
0.2017059, -0.012253, 1.7145, -0.0084839, 1.7145, -1.005249, 1.7145, -0.1221313, 1.7145, 0.3282443, 1.7145, 1.0839695, 1.7145, -3.3969467
0.2025, -0.0102388, 1.72125, -0.0115356, 1.72125, -1.0084229, 1.72125, -0.1192627, 1.72125, 0.6259542, 1.72125, 0.908397, 1.72125, -3.1679389
0.2032941, -0.0152743, 1.728, -0.0119019, 1.728, -1.0075684, 1.728, -0.1167603, 1.728, 0.7557252, 1.728, 0.778626, 1.728, -3.3053436
0.2040882, -0.0203098, 1.73475, -0.0115967, 1.73475, -1.0106201, 1.73475, -0.1173096, 1.73475, 0.5572519, 1.73475, 0.8549618, 1.73475, -3.3587787
0.2048824, -0.0149386, 1.7415, -0.0080566, 1.7415, -1.0100708, 1.7415, -0.1243896, 1.7415, 0.5954198, 1.7415, 0.9465649, 1.7415, -3.1832061
0.2056765, -0.0132601, 1.74825, -0.008606, 1.74825, -1.006897, 1.74825, -0.1259155, 1.74825, 0.5343512, 1.74825, 0.8091603, 1.74825, -3.2824428
0.2064706, -0.0125887, 1.755, -0.0081177, 1.755, -1.0072632, 1.755, -0.1242065, 1.755, 0.4580153, 1.755, 0.961832, 1.755, -3.4198472
0.2072647, -0.0102388, 1.76175, -0.0087891, 1.76175, -1.0064697, 1.76175, -0.1242676, 1.76175, 0.480916, 1.76175, 0.8167939, 1.76175, -3.3282442
0.2080588, -0.0095674, 1.7685, -0.0065308, 1.7685, -1.0114746, 1.7685, -0.1192017, 1.7685, 0.6946565, 1.7685, 0.7022901, 1.7685, -3.3435113
0.2088529, -0.0095674, 1.77525, -0.0073242, 1.77525, -1.0088501, 1.77525, -0.1200562, 1.77525, 0.6946565, 1.77525, 0.6946565, 1.77525, -3.1679389
0.2096471, -0.0090639, 1.782, -0.008728, 1.782, -1.0077515, 1.782, -0.1237793, 1.782, 0.8244275, 1.782, 0.8396947, 1.782, -3.1603053
0.2104412, -0.0125887, 1.78875, -0.0125732, 1.78875, -1.007019, 1.78875, -0.1228027, 1.78875, 0.6946565, 1.78875, 0.9312977, 1.78875, -3.1679389
0.2112353, -0.0151064, 1.7955, -0.0101318, 1.7955, -1.005188, 1.7955, -0.1236572, 1.7955, 0.4503817, 1.7955, 1.3969465, 1.7955, -3.0534351
0.2120294, -0.0196384, 1.80225, -0.0078735, 1.80225, -1.0085449, 1.80225, -0.1216431, 1.80225, 0.259542, 1.80225, 1.4122137, 1.80225, -3.1450381
0.2128235, -0.018967, 1.809, -0.0095215, 1.809, -1.0040894, 1.809, -0.1231079, 1.809, 0.3969466, 1.809, 0.9465649, 1.809, -3.1984732
0.2136176, -0.0196384, 1.81575, -0.0113525, 1.81575, -1.0055542, 1.81575, -0.1243896, 1.81575, 0.2748092, 1.81575, 1.1145039, 1.81575, -3.1374047
0.2144118, -0.0218204, 1.8225, -0.0054321, 1.8225, -1.0092773, 1.8225, -0.114624, 1.8225, 0.221374, 1.8225, 1.1450381, 1.8225, -3.0610688
0.2152059, -0.0203098, 1.82925, -0.0031738, 1.82925, -1.0091553, 1.82925, -0.1142578, 1.82925, 0.1832061, 1.82925, 1.3206106, 1.82925, -2.9541984
0.216, -0.0209812, 1.836, -0.0064697, 1.836, -1.0089111, 1.836, -0.1173096, 1.836, 0.5267175, 1.836, 1.2137405, 1.836, -3.2748091
0.2167941, -0.0196384, 1.84275, -0.0060425, 1.84275, -1.0049438, 1.84275, -0.1234741, 1.84275, 0.3740458, 1.84275, 1.2290076, 1.84275, -3.2442749
0.2175882, -0.0169528, 1.8495, -0.006897, 1.8495, -1.0109863, 1.8495, -0.121521, 1.8495, 0.3206107, 1.8495, 1.2519084, 1.8495, -3.3129771
0.2183824, -0.012253, 1.85625, -0.0097656, 1.85625, -1.0098877, 1.85625, -0.117981, 1.85625, 0.5954198, 1.85625, 1.0076336, 1.85625, -3.2137403
0.2191765, -0.0130922, 1.863, -0.0100708, 1.863, -1.0090942, 1.863, -0.1199341, 1.863, 0.7709923, 1.863, 0.9847328, 1.863, -3.1603053
0.2199706, -0.012253, 1.86975, -0.0092773, 1.86975, -1.0056763, 1.86975, -0.123291, 1.86975, 1.038168, 1.86975, 0.961832, 1.86975, -3.3740458
0.2207647, -0.0129244, 1.8765, -0.0115356, 1.8765, -1.0090942, 1.8765, -0.1270142, 1.8765, 1.0458015, 1.8765, 0.5877863, 1.8765, -3.389313
0.2215588, -0.0082246, 1.88325, -0.0130615, 1.88325, -1.0094604, 1.88325, -0.1279297, 1.88325, 1.0610687, 1.88325, 0.6412213, 1.88325, -3.519084
0.2223529, -0.005539, 1.89, -0.0099487, 1.89, -1.0061646, 1.89, -0.1291504, 1.89, 1.2900764, 1.89, 0.5572519, 1.89, -3.1984732
0.2231471, -0.0095674, 1.89675, -0.0063477, 1.89675, -1.0083008, 1.89675, -0.1265869, 1.89675, 1.2366412, 1.89675, 0.5419847, 1.89675, -3.4274809
0.2239412, -0.0075532, 1.9035, -0.0089722, 1.9035, -1.0082397, 1.9035, -0.1274414, 1.9035, 1.3206106, 1.9035, 0.4122137, 1.9035, -3.3358779
0.2247353, -0.0109102, 1.91025, -0.0097046, 1.91025, -1.0093384, 1.91025, -0.1259155, 1.91025, 1.3740458, 1.91025, 0.4580153, 1.91025, -3.4427481
0.2255294, -0.0115816, 1.917, -0.0073853, 1.917, -1.0079346, 1.917, -0.1278076, 1.917, 1.648855, 1.917, 0.5038168, 1.917, -3.5419848
0.2263235, -0.0166171, 1.92375, -0.003418, 1.92375, -1.0109253, 1.92375, -0.1273804, 1.92375, 1.5267175, 1.92375, 0.5038168, 1.92375, -3.5419848
0.2271176, -0.0179599, 1.9305, -0.006897, 1.9305, -1.0094604, 1.9305, -0.1265259, 1.9305, 1.3969465, 1.9305, 0.5419847, 1.9305, -3.480916
0.2279118, -0.01561, 1.93725, -0.0089111, 1.93725, -1.008606, 1.93725, -0.1258545, 1.93725, 1.2900764, 1.93725, 0.4198473, 1.93725, -3.4274809
0.2287059, -0.0142672, 1.944, -0.0116577, 1.944, -1.0044556, 1.944, -0.1281128, 1.944, 1.5877863, 1.944, 0.519084, 1.944, -3.4885497
0.2295, -0.0176242, 1.95075, -0.0100098, 1.95075, -1.0054321, 1.95075, -0.1251831, 1.95075, 1.389313, 1.95075, 0.2442748, 1.95075, -3.5038168
0.2302941, -0.0149386, 1.9575, -0.0103149, 1.9575, -1.0026245, 1.9575, -0.1261597, 1.9575, 1.4503816, 1.9575, -0.0458015, 1.9575, -3.6183207
0.2310882, -0.0129244, 1.96425, -0.0148926, 1.96425, -1.0079346, 1.96425, -0.126709, 1.96425, 1.259542, 1.96425, 0.0839695, 1.96425, -3.6183207
0.2318824, -0.0229953, 1.971, -0.0148926, 1.971, -1.0050659, 1.971, -0.125, 1.971, 1.389313, 1.971, -0.1068702, 1.971, -3.6564887
0.2326765, -0.0280308, 1.97775, -0.0117188, 1.97775, -1.0044556, 1.97775, -0.125061, 1.97775, 1.480916, 1.97775, -0.1450382, 1.97775, -3.6870229
0.2334706, -0.0206455, 1.9845, -0.0148315, 1.9845, -1.0067139, 1.9845, -0.1244507, 1.9845, 1.5725191, 1.9845, -0.0229008, 1.9845, -3.480916
0.2342647, -0.0139315, 1.99125, -0.0129395, 1.99125, -1.0079346, 1.99125, -0.1237183, 1.99125, 1.6946565, 1.99125, -0.1526718, 1.99125, -3.6641221
0.2350588, -0.012253, 1.998, -0.0127563, 1.998, -1.006958, 1.998, -0.1262817, 1.998, 1.8091604, 1.998, -0.129771, 1.998, -3.6564887
0.2358529, -0.0092317, 2.00475, -0.0067139, 2.00475, -1.0115356, 2.00475, -0.1240845, 2.00475, 1.9312977, 2.00475, -0.1221374, 2.00475, -3.6717558
0.2366471, -0.0099031, 2.0115, -0.0065918, 2.0115, -1.0095215, 2.0115, -0.1289673, 2.0115, 2.0534351, 2.0115, 0.0610687, 2.0115, -3.4732823
0.2374412, -0.0125887, 2.01825, -0.0037842, 2.01825, -1.0073853, 2.01825, -0.1257324, 2.01825, 1.9923664, 2.01825, -0.0992366, 2.01825, -3.4961832
0.2382353, -0.0129244, 2.025, -0.0015869, 2.025, -1.0132446, 2.025, -0.1255493, 2.025, 2.1145039, 2.025, 0.1603053, 2.025, -3.5419848
0.2390294, -0.0176242, 2.03175, -0.0004272, 2.03175, -1.0083618, 2.03175, -0.12854, 2.03175, 2.6870229, 2.03175, 0.1603053, 2.03175, -3.5877862
0.2398235, -0.0179599, 2.0385, -0.0003052, 2.0385, -1.008728, 2.0385, -0.1260376, 2.0385, 2.4885497, 2.0385, 0.1832061, 2.0385, -3.7328243
0.2406176, -0.0162814, 2.04525, -0.00177, 2.04525, -1.0076294, 2.04525, -0.119751, 2.04525, 2.3740458, 2.04525, 0.2137405, 2.04525, -3.7022901
0.2414118, -0.0157778, 2.052, -0.0045166, 2.052, -1.0093994, 2.052, -0.1199341, 2.052, 2.5572519, 2.052, 0.259542, 2.052, -3.5343511
0.2422059, -0.0162814, 2.05875, -0.0039673, 2.05875, -1.0070801, 2.05875, -0.1229858, 2.05875, 2.5648854, 2.05875, 0.3969466, 2.05875, -3.5343511
0.243, -0.0203098, 2.0655, -0.0060425, 2.0655, -1.0082397, 2.0655, -0.1156006, 2.0655, 2.4198472, 2.0655, 0.4503817, 2.0655, -3.4503818
0.2437941, -0.018967, 2.07225, -0.005249, 2.07225, -1.0059814, 2.07225, -0.1125488, 2.07225, 2.4274809, 2.07225, 0.3129771, 2.07225, -3.3587787
0.2445882, -0.012253, 2.079, -0.0056152, 2.079, -1.008728, 2.079, -0.1116943, 2.079, 2.3129771, 2.079, 0.4274809, 2.079, -3.5267177
0.2453824, -0.0095674, 2.08575, -0.0032959, 2.08575, -1.0046387, 2.08575, -0.1131592, 2.08575, 2.5343511, 2.08575, 0.0610687, 2.08575, -3.4885497
0.2461765, -0.0119173, 2.0925, -0.0029297, 2.0925, -1.0040283, 2.0925, -0.1126099, 2.0925, 2.5801528, 2.0925, 0.1068702, 2.0925, -3.5954199
0.2469706, -0.0104067, 2.09925, -0.0018921, 2.09925, -1.0061646, 2.09925, -0.1150513, 2.09925, 2.6412213, 2.09925, 0.3206107, 2.09925, -3.6564887
0.2477647, -0.0109102, 2.106, 0.0016479, 2.106, -1.0089111, 2.106, -0.116333, 2.106, 2.5877862, 2.106, 0.6870229, 2.106, -3.351145
0.2485588, -0.010071, 2.11275, -0.0005493, 2.11275, -1.0090942, 2.11275, -0.1156006, 2.11275, 2.5725191, 2.11275, 0.7709923, 2.11275, -3.129771
0.2493529, -0.0075532, 2.1195, -0.0056152, 2.1195, -1.0077515, 2.1195, -0.1212158, 2.1195, 2.4274809, 2.1195, 0.7633588, 2.1195, -3.4656489
0.2501471, -0.0082246, 2.12625, -0.0042725, 2.12625, -1.007019, 2.12625, -0.1177979, 2.12625, 2.3358779, 2.12625, 0.9389313, 2.12625, -3.3587787
0.2509412, -0.0115816, 2.133, -0.0044556, 2.133, -1.0032959, 2.133, -0.1174927, 2.133, 2.4427481, 2.133, 1.1145039, 2.133, -3.4274809
0.2517353, -0.0078889, 2.13975, -0.0079956, 2.13975, -1.0084229, 2.13975, -0.1143799, 2.13975, 2.4274809, 2.13975, 1.0534351, 2.13975, -3.2137403
0.2525294, -0.0063783, 2.1465, -0.0060425, 2.1465, -1.0097656, 2.1465, -0.1116333, 2.1465, 2.5343511, 2.1465, 0.9465649, 2.1465, -3.3587787
0.2533235, -0.0075532, 2.15325, -0.0079956, 2.15325, -1.0108032, 2.15325, -0.1131592, 2.15325, 2.6335878, 2.15325, 0.9389313, 2.15325, -3.4351146
0.2541176, -0.0062104, 2.16, -0.0058594, 2.16, -1.0062866, 2.16, -0.1131592, 2.16, 2.7328243, 2.16, 0.7480916, 2.16, -3.5114503
0.2549118, -0.0109102, 2.16675, -0.0062256, 2.16675, -1.0055542, 2.16675, -0.1151123, 2.16675, 2.7251909, 2.16675, 0.8015267, 2.16675, -3.5267177
0.2557059, -0.0115816, 2.1735, -0.0037842, 2.1735, -1.0081787, 2.1735, -0.1129761, 2.1735, 2.8778627, 2.1735, 1.0305344, 2.1735, -3.5496182
0.2565, -0.0115816, 2.18025, -0.0046387, 2.18025, -1.0067139, 2.18025, -0.1115112, 2.18025, 2.7938931, 2.18025, 1.1755725, 2.18025, -3.2671757
0.2572941, -0.0132601, 2.187, -0.0045166, 2.187, -1.0085449, 2.187, -0.1113892, 2.187, 2.8167939, 2.187, 1.1755725, 2.187, -3.2824428
0.2580882, -0.0129244, 2.19375, -0.006958, 2.19375, -1.0049438, 2.19375, -0.1147461, 2.19375, 2.5648854, 2.19375, 1.259542, 2.19375, -3.1984732
0.2588824, -0.0135958, 2.2005, -0.0050659, 2.2005, -1.0040283, 2.2005, -0.1169434, 2.2005, 2.5572519, 2.2005, 1.0610687, 2.2005, -3.221374
0.2596765, -0.014435, 2.20725, -0.0045776, 2.20725, -1.0050659, 2.20725, -0.1188965, 2.20725, 2.8015268, 2.20725, 1.2519084, 2.20725, -3.389313
0.2604706, -0.017792, 2.214, -0.0016479, 2.214, -1.0042725, 2.214, -0.1152954, 2.214, 2.6641221, 2.214, 1.038168, 2.214, -3.1755726
0.2612647, -0.0172885, 2.22075, -0.0006104, 2.22075, -1.0048218, 2.22075, -0.1120605, 2.22075, 2.4198472, 2.22075, 1.2671756, 2.22075, -3.1603053
0.2620588, -0.0115816, 2.2275, -0.0018311, 2.2275, -1.0025024, 2.2275, -0.1130371, 2.2275, 2.3587787, 2.2275, 1.2442749, 2.2275, -3.0305343
0.2628529, -0.0082246, 2.23425, -0.0053711, 2.23425, -1.0075073, 2.23425, -0.1113281, 2.23425, 2.4274809, 2.23425, 1.3969465, 2.23425, -3.2290077
0.2636471, -0.0109102, 2.241, -0.0037231, 2.241, -1.0088501, 2.241, -0.1144409, 2.241, 2.2519083, 2.241, 1.3129771, 2.241, -3.2366412
0.2644412, -0.0097353, 2.24775, -0.0036621, 2.24775, -1.0108032, 2.24775, -0.1123657, 2.24775, 2.221374, 2.24775, 1.3053435, 2.24775, -3.259542
0.2652353, -0.0102388, 2.2545, -0.0046997, 2.2545, -1.0081177, 2.2545, -0.1101074, 2.2545, 2.1755726, 2.2545, 1.4580153, 2.2545, -3.1526718
0.2660294, -0.0097353, 2.26125, -0.0100708, 2.26125, -1.0094604, 2.26125, -0.1101074, 2.26125, 2.129771, 2.26125, 1.2519084, 2.26125, -3.1526718
0.2668235, -0.008896, 2.268, -0.0115356, 2.268, -1.0093994, 2.268, -0.1143188, 2.268, 2.2442749, 2.268, 0.9923664, 2.268, -3.0534351
0.2676176, -0.0072175, 2.27475, -0.0095825, 2.27475, -1.0075073, 2.27475, -0.1168823, 2.27475, 2.1450381, 2.27475, 0.8549618, 2.27475, -3.1221373
0.2684118, -0.0115816, 2.2815, -0.0151367, 2.2815, -1.0045166, 2.2815, -0.1159668, 2.2815, 2.0839694, 2.2815, 0.6641222, 2.2815, -3.2137403
0.2692059, -0.0140993, 2.28825, -0.0141602, 2.28825, -1.0106812, 2.28825, -0.1148071, 2.28825, 1.8854961, 2.28825, 0.4885496, 2.28825, -3.0229008
0.27, -0.01561, 2.295, -0.010437, 2.295, -1.0080566, 2.295, -0.1121216, 2.295, 1.8396946, 2.295, 0.2824427, 2.295, -3.0458016
0.2707941, -0.0152743, 2.30175, -0.0108643, 2.30175, -1.0064697, 2.30175, -0.1086426, 2.30175, 1.8320611, 2.30175, 0.2900763, 2.30175, -3.0229008
0.2715882, -0.0166171, 2.3085, -0.0084839, 2.3085, -1.003418, 2.3085, -0.1126099, 2.3085, 1.7022901, 2.3085, 0.4503817, 2.3085, -3.0992367
0.2723824, -0.0142672, 2.31525, -0.0057983, 2.31525, -1.0020752, 2.31525, -0.1115723, 2.31525, 1.3816794, 2.31525, 0.2824427, 2.31525, -3.0992367
0.2731765, -0.012253, 2.322, 0.0007324, 2.322, -1.0042725, 2.322, -0.1119385, 2.322, 1.1755725, 2.322, 0.0458015, 2.322, -3.0992367
0.2739706, -0.0137636, 2.32875, 6.1E-05, 2.32875, -1.0061035, 2.32875, -0.1115723, 2.32875, 1.2366412, 2.32875, -0.0687023, 2.32875, -3.129771
0.2747647, -0.0166171, 2.3355, -0.0007935, 2.3355, -1.005249, 2.3355, -0.1097412, 2.3355, 1.2137405, 2.3355, 0.2442748, 2.3355, -3.0458016
0.2755588, -0.0216526, 2.34225, -0.0027466, 2.34225, -1.0056152, 2.34225, -0.109375, 2.34225, 1.3282443, 2.34225, 0.740458, 2.34225, -3.1221373
0.2763529, -0.0229953, 2.349, -0.0078735, 2.349, -1.0043335, 2.349, -0.1129761, 2.349, 1.3206106, 2.349, 0.4503817, 2.349, -2.9312978
0.2771471, -0.0213169, 2.35575, -0.0128174, 2.35575, -1.0080566, 2.35575, -0.1125488, 2.35575, 1.221374, 2.35575, 0.2137405, 2.35575, -3.0076337
0.2779412, -0.0209812, 2.3625, -0.0170898, 2.3625, -1.0064697, 2.3625, -0.1082764, 2.3625, 1.0839695, 2.3625, 0.1068702, 2.3625, -3.0763359
0.2787353, -0.0203098, 2.36925, -0.0119629, 2.36925, -1.0036621, 2.36925, -0.1134033, 2.36925, 1.2137405, 2.36925, -0.3053435, 2.36925, -3.0687022
0.2795294, -0.0186313, 2.376, -0.0124512, 2.376, -1.0048218, 2.376, -0.1147461, 2.376, 0.9694657, 2.376, -0.5038168, 2.376, -2.9541984
0.2803235, -0.0191348, 2.38275, -0.0123291, 2.38275, -1.005188, 2.38275, -0.1135864, 2.38275, 0.8320611, 2.38275, -0.5572519, 2.38275, -2.908397
0.2811176, -0.0179599, 2.3895, -0.0073853, 2.3895, -1.0093994, 2.3895, -0.1094971, 2.3895, 1.0458015, 2.3895, -0.7022901, 2.3895, -2.9694657
0.2819118, -0.0182956, 2.39625, -0.0022583, 2.39625, -1.0117798, 2.39625, -0.1055908, 2.39625, 1.0229008, 2.39625, -0.7099237, 2.39625, -2.9847329
0.2827059, -0.0169528, 2.403, -0.0015259, 2.403, -1.0053711, 2.403, -0.1079712, 2.403, 1.038168, 2.403, -0.5343512, 2.403, -2.9007633
0.2835, -0.0169528, 2.40975, -0.0003052, 2.40975, -1.0060425, 2.40975, -0.1099854, 2.40975, 0.8396947, 2.40975, -0.4427481, 2.40975, -3.1221373
0.2842941, -0.0162814, 2.4165, 0.0010376, 2.4165, -1.0083008, 2.4165, -0.1120605, 2.4165, 1.091603, 2.4165, -0.351145, 2.4165, -2.9160306
0.2850882, -0.0114137, 2.42325, 0.0006104, 2.42325, -1.0046997, 2.42325, -0.1107178, 2.42325, 1.2671756, 2.42325, -0.4045801, 2.42325, -3.0992367
0.2858824, -0.0102388, 2.43, -0.003418, 2.43, -1.0079346, 2.43, -0.1136475, 2.43, 1.4732825, 2.43, -0.4198473, 2.43, -3.091603
0.2866765, -0.0092317, 2.43675, -0.0047607, 2.43675, -1.006897, 2.43675, -0.1149292, 2.43675, 1.2442749, 2.43675, 0.0458015, 2.43675, -3.1984732
0.2874706, -0.0077211, 2.4435, -0.005127, 2.4435, -1.0064087, 2.4435, -0.1173096, 2.4435, 1.2366412, 2.4435, -0.0458015, 2.4435, -2.8854961
0.2882647, -0.0092317, 2.45025, -0.0058594, 2.45025, -1.008728, 2.45025, -0.1178589, 2.45025, 1.0534351, 2.45025, 0.2137405, 2.45025, -2.8931298
0.2890588, -0.0109102, 2.457, -0.0056763, 2.457, -1.0094604, 2.457, -0.1174316, 2.457, 1.1374046, 2.457, 0.0916031, 2.457, -2.7862597
0.2898529, -0.0102388, 2.46375, -0.0103149, 2.46375, -1.0068359, 2.46375, -0.1173706, 2.46375, 1.1450381, 2.46375, 0.3435115, 2.46375, -2.6870229
0.2906471, -0.0072175, 2.4705, -0.0089111, 2.4705, -1.0076294, 2.4705, -0.1157227, 2.4705, 1.3664122, 2.4705, 0.2519084, 2.4705, -2.648855
0.2914412, -0.011078, 2.47725, -0.0046997, 2.47725, -1.0063477, 2.47725, -0.1143188, 2.47725, 1.519084, 2.47725, -0.1221374, 2.47725, -2.740458
0.2922353, -0.0146029, 2.484, -0.0020752, 2.484, -1.0108643, 2.484, -0.1160889, 2.484, 1.3435115, 2.484, -0.0152672, 2.484, -2.5801528
0.2930294, -0.0193027, 2.49075, 0, 2.49075, -1.0119019, 2.49075, -0.116333, 2.49075, 1.6793894, 2.49075, -0.1755725, 2.49075, -2.5877862
0.2938235, -0.0203098, 2.4975, 0.0003662, 2.4975, -1.0084229, 2.4975, -0.1112671, 2.4975, 1.7328244, 2.4975, -0.0763359, 2.4975, -2.5877862
0.2946176, -0.0196384, 2.50425, -0.0014038, 2.50425, -1.0095825, 2.50425, -0.1170654, 2.50425, 1.6793894, 2.50425, 0.221374, 2.50425, -2.5267177
0.2954118, -0.0166171, 2.511, -0.0039673, 2.511, -1.0078735, 2.511, -0.1115112, 2.511, 1.6870229, 2.511, 0.3816794, 2.511, -2.5419848
0.2962059, -0.0164492, 2.51775, -0.0064697, 2.51775, -1.0102539, 2.51775, -0.1096191, 2.51775, 1.519084, 2.51775, 0.4198473, 2.51775, -2.259542
0.297, -0.0196384, 2.5245, -0.0057983, 2.5245, -1.0058594, 2.5245, -0.1138916, 2.5245, 1.7862595, 2.5245, 0.6564885, 2.5245, -2.3282442
0.2977941, -0.018967, 2.53125, -0.0084229, 2.53125, -1.0061035, 2.53125, -0.1119995, 2.53125, 1.6412214, 2.53125, 0.5419847, 2.53125, -2.2137403
0.2985882, -0.0162814, 2.538, -0.0095215, 2.538, -1.00354, 2.538, -0.1098633, 2.538, 1.6335878, 2.538, 0.5038168, 2.538, -2.2366412
0.2993824, -0.018967, 2.54475, -0.0083008, 2.54475, -1.0047607, 2.54475, -0.111084, 2.54475, 1.6870229, 2.54475, 0.4732825, 2.54475, -2.1603053
0.3001765, -0.0196384, 2.5515, -0.0053711, 2.5515, -1.0067749, 2.5515, -0.1115723, 2.5515, 1.6641221, 2.5515, 0.7557252, 2.5515, -2.221374
0.3009706, -0.0194705, 2.55825, -0.0071411, 2.55825, -1.0092773, 2.55825, -0.1134033, 2.55825, 1.6946565, 2.55825, 0.908397, 2.55825, -2.2900763
0.3017647, -0.0152743, 2.565, -0.0043335, 2.565, -1.0068359, 2.565, -0.1132202, 2.565, 1.6412214, 2.565, 0.9694657, 2.565, -2
0.3025588, -0.0169528, 2.57175, -0.0056152, 2.57175, -1.0056152, 2.57175, -0.1158447, 2.57175, 1.7099236, 2.57175, 0.7175573, 2.57175, -2.1984732
0.3033529, -0.0206455, 2.5785, -0.0097656, 2.5785, -1.0024414, 2.5785, -0.1248779, 2.5785, 1.5572519, 2.5785, 0.1679389, 2.5785, -2.2137403
0.3041471, -0.021149, 2.58525, -0.0126953, 2.58525, -1.0083618, 2.58525, -0.1114502, 2.58525, 0.961832, 2.58525, 0.0152672, 2.58525, -2.3740458
0.3049412, -0.0199741, 2.592, -0.0114746, 2.592, -1.0067749, 2.592, -0.1087646, 2.592, 1.0839695, 2.592, -0.6259542, 2.592, -2.2748091
0.3057353, -0.0209812, 2.59875, -0.0128174, 2.59875, -1.0070801, 2.59875, -0.1094971, 2.59875, 1.4274809, 2.59875, -0.7480916, 2.59875, -2.3740458
0.3065294, -0.0206455, 2.6055, -0.0101929, 2.6055, -1.0050659, 2.6055, -0.1103516, 2.6055, 1.1603054, 2.6055, -0.5725191, 2.6055, -2.3664122
0.3073235, -0.0229953, 2.61225, -0.0077515, 2.61225, -1.0028687, 2.61225, -0.1074219, 2.61225, 1.3053435, 2.61225, -0.5114504, 2.61225, -2.259542
0.3081176, -0.0218204, 2.619, -0.0079346, 2.619, -1.00354, 2.619, -0.1049805, 2.619, 1.1374046, 2.619, -0.3816794, 2.619, -2.221374
0.3089118, -0.0236667, 2.62575, -0.0090942, 2.62575, -1.0054932, 2.62575, -0.1073608, 2.62575, 1.3053435, 2.62575, -0.0534351, 2.62575, -2.2442749
0.3097059, -0.0240024, 2.6325, -0.0078735, 2.6325, -1.0054932, 2.6325, -0.1067505, 2.6325, 1.4122137, 2.6325, 0.2519084, 2.6325, -2.1068702
0.3105, -0.0208133, 2.63925, -0.0142822, 2.63925, -1.0046387, 2.63925, -0.1060791, 2.63925, 1.2900764, 2.63925, 0.5114504, 2.63925, -2.2519083
0.3112941, -0.0203098, 2.646, -0.0162964, 2.646, -1.0068359, 2.646, -0.105957, 2.646, 1.1755725, 2.646, 0.4427481, 2.646, -2.1145039
0.3120882, -0.0198062, 2.65275, -0.0164185, 2.65275, -1.0095215, 2.65275, -0.1021118, 2.65275, 0.961832, 2.65275, 0.3587786, 2.65275, -2.0687022
0.3128824, -0.0179599, 2.6595, -0.0167236, 2.6595, -1.0041504, 2.6595, -0.105957, 2.6595, 1.0610687, 2.6595, 0.3664122, 2.6595, -2.4122138
0.3136765, -0.0161135, 2.66625, -0.0135498, 2.66625, -1.0043335, 2.66625, -0.1081543, 2.66625, 0.8549618, 2.66625, 0.3435115, 2.66625, -2.3129771
0.3144706, -0.0132601, 2.673, -0.0125732, 2.673, -1.0061646, 2.673, -0.1062622, 2.673, 0.8167939, 2.673, 0.2900763, 2.673, -2.351145
0.3152647, -0.0149386, 2.67975, -0.010376, 2.67975, -1.0073242, 2.67975, -0.1064453, 2.67975, 0.7862595, 2.67975, 0.259542, 2.67975, -2.5343511
0.3160588, -0.0171206, 2.6865, -0.0098877, 2.6865, -1.0029297, 2.6865, -0.1085205, 2.6865, 0.8244275, 2.6865, 0.1755725, 2.6865, -2.480916
0.3168529, -0.0109102, 2.69325, -0.0113525, 2.69325, -1.0036011, 2.69325, -0.1055298, 2.69325, 0.908397, 2.69325, -0.0763359, 2.69325, -2.5267177
0.3176471, -0.0085603, 2.7, -0.0110474, 2.7, -1.0015259, 2.7, -0.1084595, 2.7, 0.7862595, 2.7, 0.129771, 2.7, -2.5572519
0.3184412, -0.0115816, 2.70675, -0.0097656, 2.70675, -1.0032349, 2.70675, -0.1055298, 2.70675, 0.7480916, 2.70675, 0.1526718, 2.70675, -2.5267177
0.3192353, -0.0109102, 2.7135, -0.0093384, 2.7135, -1.0040894, 2.7135, -0.1034546, 2.7135, 0.7099237, 2.7135, -0.1755725, 2.7135, -2.4503818
0.3200294, -0.0075532, 2.72025, -0.012207, 2.72025, -1.0045166, 2.72025, -0.1026611, 2.72025, 0.6717557, 2.72025, 0, 2.72025, -2.389313
0.3208235, -0.0045319, 2.727, -0.0177612, 2.727, -1.0023193, 2.727, -0.1066284, 2.727, 0.7175573, 2.727, -0.0687023, 2.727, -2.389313
0.3216176, -0.0048676, 2.73375, -0.017334, 2.73375, -1.0023804, 2.73375, -0.1075439, 2.73375, 0.5267175, 2.73375, -0.3282443, 2.73375, -2.4656489
0.3224118, -0.0068818, 2.7405, -0.0175171, 2.7405, -1.0012207, 2.7405, -0.1056519, 2.7405, 0.2442748, 2.7405, -0.4656489, 2.7405, -2.6717558
0.3232059, -0.0075532, 2.74725, -0.0145264, 2.74725, -1.0039673, 2.74725, -0.1073608, 2.74725, 0.519084, 2.74725, -0.5648855, 2.74725, -2.6641221
0.324, -0.0104067, 2.754, -0.0122681, 2.754, -1.0058594, 2.754, -0.1074829, 2.754, 0.3587786, 2.754, -0.6641222, 2.754, -2.5572519
0.3247941, -0.0095674, 2.76075, -0.0100708, 2.76075, -1.008606, 2.76075, -0.1097412, 2.76075, 0.3053435, 2.76075, -0.3358779, 2.76075, -2.8167939
0.3255882, -0.008896, 2.7675, -0.0126343, 2.7675, -1.007019, 2.7675, -0.1108398, 2.7675, 0.4122137, 2.7675, -0.1526718, 2.7675, -2.7175572
0.3263824, -0.0140993, 2.77425, -0.0145264, 2.77425, -1.0046387, 2.77425, -0.1081543, 2.77425, 0.3206107, 2.77425, -0.2061069, 2.77425, -2.7099237
0.3271765, -0.0152743, 2.781, -0.0209351, 2.781, -1.0043945, 2.781, -0.1087036, 2.781, 0.3053435, 2.781, -0.3053435, 2.781, -2.6946564
0.3279706, -0.0169528, 2.78775, -0.0263062, 2.78775, -1.0044556, 2.78775, -0.1101074, 2.78775, 0.0305344, 2.78775, -0.8396947, 2.78775, -2.740458
0.3287647, -0.018967, 2.7945, -0.0253906, 2.7945, -1.0023804, 2.7945, -0.1080933, 2.7945, -0.1526718, 2.7945, -1.2671756, 2.7945, -2.7480917
0.3295588, -0.0172885, 2.80125, -0.020874, 2.80125, -1.0029907, 2.80125, -0.1079712, 2.80125, -0.1908397, 2.80125, -1.6870229, 2.80125, -2.8015268
0.3303529, -0.0186313, 2.808, -0.0170288, 2.808, -1.0036621, 2.808, -0.1091919, 2.808, -0.3969466, 2.808, -1.7938931, 2.808, -3.0305343
0.3311471, -0.0162814, 2.81475, -0.0118408, 2.81475, -1.0078125, 2.81475, -0.1077881, 2.81475, -0.351145, 2.81475, -1.6717557, 2.81475, -2.7022901
0.3319412, -0.0124208, 2.8215, -0.003479, 2.8215, -1.0094604, 2.8215, -0.1102905, 2.8215, -0.1450382, 2.8215, -1.1908396, 2.8215, -2.7938931
0.3327353, -0.0112459, 2.82825, -0.0060425, 2.82825, -1.0067749, 2.82825, -0.1162109, 2.82825, 0.0763359, 2.82825, -0.6946565, 2.82825, -2.8473282
0.3335294, -0.0090639, 2.835, -0.0103149, 2.835, -1.005188, 2.835, -0.1191406, 2.835, 0.1221374, 2.835, -0.519084, 2.835, -2.8015268
0.3343235, -0.0119173, 2.84175, -0.0066528, 2.84175, -1.0088501, 2.84175, -0.1220093, 2.84175, 0.259542, 2.84175, -0.2671756, 2.84175, -2.740458
0.3351176, -0.0152743, 2.8485, -0.0098267, 2.8485, -1.0095215, 2.8485, -0.1241455, 2.8485, 0.3587786, 2.8485, -0.2900763, 2.8485, -2.7557251
0.3359118, -0.0125887, 2.85525, -0.0101929, 2.85525, -1.0101929, 2.85525, -0.1259766, 2.85525, 0.6335878, 2.85525, -0.1450382, 2.85525, -2.9694657
0.3367059, -0.0075532, 2.862, -0.008728, 2.862, -1.0111694, 2.862, -0.1264038, 2.862, 0.9007633, 2.862, 0.0229008, 2.862, -2.8167939
0.3375, -0.005539, 2.86875, -0.003479, 2.86875, -1.0089111, 2.86875, -0.1296997, 2.86875, 1.1374046, 2.86875, 0.5267175, 2.86875, -2.6946564
0.3382941, -0.0068818, 2.8755, 0.0006104, 2.8755, -1.0089111, 2.8755, -0.1289673, 2.8755, 1.2824427, 2.8755, 0.740458, 2.8755, -2.6564887
0.3390882, -0.0082246, 2.88225, -0.0061646, 2.88225, -1.0113525, 2.88225, -0.130249, 2.88225, 1.5267175, 2.88225, 0.7175573, 2.88225, -2.610687
0.3398824, -0.011078, 2.889, -0.0050659, 2.889, -1.0133057, 2.889, -0.125, 2.889, 1.8931298, 2.889, 0.8396947, 2.889, -2.6717558
0.3406765, -0.0157778, 2.89575, -0.0061035, 2.89575, -1.0127563, 2.89575, -0.1303101, 2.89575, 2.2061069, 2.89575, 1.3816794, 2.89575, -2.4885497
0.3414706, -0.0176242, 2.9025, -0.0090942, 2.9025, -1.0075684, 2.9025, -0.1286621, 2.9025, 2.2824428, 2.9025, 1.8167939, 2.9025, -2.4580152
0.3422647, -0.0152743, 2.90925, -0.0085449, 2.90925, -1.0076904, 2.90925, -0.1264648, 2.90925, 2.2900763, 2.90925, 1.7480916, 2.90925, -2.5419848
0.3430588, -0.0182956, 2.916, -0.00354, 2.916, -1.0097046, 2.916, -0.1265259, 2.916, 2.3664122, 2.916, 2, 2.916, -2.3664122
0.3438529, -0.0193027, 2.92275, -0.0038452, 2.92275, -1.013916, 2.92275, -0.1264038, 2.92275, 2.9541984, 2.92275, 2.3969467, 2.92275, -2.4427481
0.3446471, -0.0176242, 2.9295, -0.0001831, 2.9295, -1.0117798, 2.9295, -0.1220703, 2.9295, 3.038168, 2.9295, 2.7862597, 2.9295, -2.5114503
0.3454412, -0.018967, 2.93625, -0.0032959, 2.93625, -1.0119629, 2.93625, -0.1211548, 2.93625, 3.1832061, 2.93625, 3.4732823, 2.93625, -2.2977099
0.3462353, -0.0196384, 2.943, -0.0057373, 2.943, -1.0122681, 2.943, -0.1206055, 2.943, 3.1221373, 2.943, 3.5648854, 2.943, -2.5572519
0.3470294, -0.0182956, 2.94975, -0.0079956, 2.94975, -1.0103149, 2.94975, -0.1213989, 2.94975, 2.9465649, 2.94975, 3.4351146, 2.94975, -2.3282442
0.3478235, -0.0199741, 2.9565, -0.0115356, 2.9565, -1.0119019, 2.9565, -0.1193848, 2.9565, 2.9160306, 2.9565, 3.7633588, 2.9565, -2.3129771
0.3486176, -0.0213169, 2.96325, -0.0089111, 2.96325, -1.0098877, 2.96325, -0.1124878, 2.96325, 2.8778627, 2.96325, 3.9160306, 2.96325, -2.2900763
0.3494118, -0.0186313, 2.97, -0.0078125, 2.97, -1.0087891, 2.97, -0.1158447, 2.97, 3.0839694, 2.97, 4.1145039, 2.97, -2.221374
0.3502059, -0.018967, 2.97675, -0.0114136, 2.97675, -1.0108032, 2.97675, -0.1150513, 2.97675, 2.778626, 2.97675, 4.3816795, 2.97675, -2.038168
0.351, -0.0176242, 2.9835, -0.0127563, 2.9835, -1.0128174, 2.9835, -0.1122437, 2.9835, 3.1145039, 2.9835, 4.1450381, 2.9835, -1.9160305
0.3517941, -0.0159457, 2.99025, -0.012146, 2.99025, -1.0145874, 2.99025, -0.1074219, 2.99025, 3.1068702, 2.99025, 4.2061067, 2.99025, -2.129771
0.3525882, -0.0169528, 2.997, -0.0126953, 2.997, -1.0097046, 2.997, -0.1101074, 2.997, 2.7251909, 2.997, 4.0839696, 2.997, -1.9465649
0.3533824, -0.0203098, 3.00375, -0.0160522, 3.00375, -1.0098877, 3.00375, -0.1083984, 3.00375, 2.6335878, 3.00375, 3.7633588, 3.00375, -1.9312977
0.3541765, -0.023331, 3.0105, -0.0197754, 3.0105, -1.0124512, 3.0105, -0.1123657, 3.0105, 2.6946564, 3.0105, 3.7633588, 3.0105, -2.0305343
0.3549706, -0.0176242, 3.01725, -0.0178223, 3.01725, -1.0142212, 3.01725, -0.1115112, 3.01725, 3.0076337, 3.01725, 3.4656489, 3.01725, -1.9465649
0.3557647, -0.0142672, 3.024, -0.0169067, 3.024, -1.0095215, 3.024, -0.1074219, 3.024, 2.8778627, 3.024, 3.4961832, 3.024, -2.0992367
0.3565588, -0.012253, 3.03075, -0.0224609, 3.03075, -1.006958, 3.03075, -0.109436, 3.03075, 2.7099237, 3.03075, 3.4198472, 3.03075, -1.9694656
0.3573529, -0.002182, 3.0375, -0.0219116, 3.0375, -1.0055542, 3.0375, -0.1091919, 3.0375, 2.5038168, 3.0375, 2.8320611, 3.0375, -2.1450381
0.3581471, -0.0001678, 3.04425, -0.0250854, 3.04425, -1.0089111, 3.04425, -0.1036987, 3.04425, 2.4427481, 3.04425, 2.5877862, 3.04425, -1.908397
0.3589412, -0.0052033, 3.051, -0.0222168, 3.051, -1.0042725, 3.051, -0.1044922, 3.051, 2.4351146, 3.051, 2.2442749, 3.051, -2.1450381
0.3597353, -0.0045319, 3.05775, -0.0265503, 3.05775, -1.0041504, 3.05775, -0.1036987, 3.05775, 2.0229008, 3.05775, 2.0534351, 3.05775, -2.4885497
0.3605294, -0.0104067, 3.0645, -0.0266724, 3.0645, -1.0040283, 3.0645, -0.1060791, 3.0645, 1.7557251, 3.0645, 1.8931298, 3.0645, -2.4045801
0.3613235, -0.0231632, 3.07125, -0.0264282, 3.07125, -1.0047607, 3.07125, -0.1052246, 3.07125, 1.8931298, 3.07125, 1.3969465, 3.07125, -2.4045801
0.3621176, -0.0283665, 3.078, -0.022522, 3.078, -1.0046997, 3.078, -0.1032715, 3.078, 2.0763359, 3.078, 1.0763359, 3.078, -2.4885497
0.3629118, -0.0206455, 3.08475, -0.0194702, 3.08475, -1.0013428, 3.08475, -0.1075439, 3.08475, 1.9465649, 3.08475, 1.091603, 3.08475, -2.5267177
0.3637059, -0.014435, 3.0915, -0.0211182, 3.0915, -1.0022583, 3.0915, -0.1040039, 3.0915, 1.9923664, 3.0915, 1.0992366, 3.0915, -2.5648854
0.3645, -0.0048676, 3.09825, -0.0219116, 3.09825, -1.0072632, 3.09825, -0.1040649, 3.09825, 2.0229008, 3.09825, 0.870229, 3.09825, -2.5572519
0.3652941, 0.0018463, 3.105, -0.0195312, 3.105, -1.0041504, 3.105, -0.107605, 3.105, 2.1145039, 3.105, 1.0229008, 3.105, -2.519084
0.3660882, 0.0018463, 3.11175, -0.0231323, 3.11175, -1.0073853, 3.11175, -0.105835, 3.11175, 1.9770992, 3.11175, 1.0534351, 3.11175, -2.6946564
0.3668824, -0.0028534, 3.1185, -0.0255737, 3.1185, -1.0050049, 3.1185, -0.1089478, 3.1185, 1.908397, 3.1185, 0.7633588, 3.1185, -2.8549619
0.3676765, -0.005539, 3.12525, -0.0256348, 3.12525, -1.0065918, 3.12525, -0.1040039, 3.12525, 1.7328244, 3.12525, 0.5801527, 3.12525, -2.8549619
0.3684706, -0.0065461, 3.132, -0.0238647, 3.132, -1.0097046, 3.132, -0.1033936, 3.132, 1.8854961, 3.132, 0.4503817, 3.132, -2.8244274
0.3692647, -0.0105745, 3.13875, -0.0205078, 3.13875, -1.0059814, 3.13875, -0.1087036, 3.13875, 1.8320611, 3.13875, 0.3816794, 3.13875, -2.8778627
0.3700588, -0.0099031, 3.1455, -0.0195923, 3.1455, -1.0036011, 3.1455, -0.1103516, 3.1455, 1.5267175, 3.1455, 0.2671756, 3.1455, -3.0687022
0.3708529, -0.0115816, 3.15225, -0.0192871, 3.15225, -1.0090332, 3.15225, -0.1127319, 3.15225, 1.7251909, 3.15225, 0.2900763, 3.15225, -2.8931298
0.3716471, -0.012253, 3.159, -0.0186157, 3.159, -1.0098877, 3.159, -0.1124878, 3.159, 1.6717557, 3.159, 0.4961832, 3.159, -2.9465649
0.3724412, -0.0109102, 3.16575, -0.0197754, 3.16575, -1.0073242, 3.16575, -0.1065063, 3.16575, 1.6030535, 3.16575, 0.7328244, 3.16575, -2.9312978
0.3732353, -0.0075532, 3.1725, -0.0179443, 3.1725, -1.003479, 3.1725, -0.1094971, 3.1725, 1.3664122, 3.1725, 0.7557252, 3.1725, -3.0229008
0.3740294, -0.0092317, 3.17925, -0.0219116, 3.17925, -1.0079956, 3.17925, -0.1113281, 3.17925, 1.3206106, 3.17925, 0.5419847, 3.17925, -3.0763359
0.3748235, -0.0082246, 3.186, -0.0180054, 3.186, -1.0076904, 3.186, -0.1091309, 3.186, 1.1984733, 3.186, 0.4122137, 3.186, -3.129771
0.3756176, -0.008896, 3.19275, -0.0154419, 3.19275, -1.0084839, 3.19275, -0.1037598, 3.19275, 1.1374046, 3.19275, 0.7328244, 3.19275, -3.129771
0.3764118, -0.0095674, 3.1995, -0.015686, 3.1995, -1.0098267, 3.1995, -0.1032715, 3.1995, 1.1068702, 3.1995, 0.4885496, 3.1995, -3.2519083
0.3772059, -0.01561, 3.20625, -0.0211792, 3.20625, -1.0059814, 3.20625, -0.1068726, 3.20625, 1.389313, 3.20625, 0.6335878, 3.20625, -3.0610688
0.378, -0.018967, 3.213, -0.0219727, 3.213, -1.0040283, 3.213, -0.1077881, 3.213, 1.3129771, 3.213, 0.6946565, 3.213, -3.129771
0.3787941, -0.0216526, 3.21975, -0.0203857, 3.21975, -1.0056763, 3.21975, -0.1057739, 3.21975, 1.221374, 3.21975, 0.5572519, 3.21975, -3.2290077
0.3795882, -0.0206455, 3.2265, -0.0196533, 3.2265, -1.0056763, 3.2265, -0.1031494, 3.2265, 1.2366412, 3.2265, 0.259542, 3.2265, -3.3435113
0.3803824, -0.0193027, 3.23325, -0.0217285, 3.23325, -1.0057983, 3.23325, -0.1010132, 3.23325, 1.2366412, 3.23325, 0.1145038, 3.23325, -3.4427481
0.3811765, -0.0186313, 3.24, -0.0196533, 3.24, -1.0064697, 3.24, -0.1060791, 3.24, 1.1984733, 3.24, 0.2671756, 3.24, -3.4351146
0.3819706, -0.0204776, 3.24675, -0.0206909, 3.24675, -1.0026855, 3.24675, -0.1068115, 3.24675, 1.3358779, 3.24675, 0.2137405, 3.24675, -3.5419848
0.3827647, -0.0193027, 3.2535, -0.0253906, 3.2535, -1.0061646, 3.2535, -0.1063232, 3.2535, 1.2061069, 3.2535, 0.0763359, 3.2535, -3.5038168
0.3835588, -0.0124208, 3.26025, -0.0269775, 3.26025, -1.0080566, 3.26025, -0.1078491, 3.26025, 1.1374046, 3.26025, -0.2977099, 3.26025, -3.5725191
0.3843529, -0.012253, 3.267, -0.0257568, 3.267, -1.0062866, 3.267, -0.1096191, 3.267, 0.9847328, 3.267, -0.5038168, 3.267, -3.7862597
0.3851471, -0.0114137, 3.27375, -0.0224609, 3.27375, -1.0083618, 3.27375, -0.1088867, 3.27375, 0.9770992, 3.27375, -0.1374046, 3.27375, -3.8473282
0.3859412, -0.012253, 3.2805, -0.0178833, 3.2805, -1.0106201, 3.2805, -0.1102295, 3.2805, 0.7328244, 3.2805, -0.1679389, 3.2805, -3.7633588
0.3867353, -0.0125887, 3.28725, -0.013855, 3.28725, -1.0110474, 3.28725, -0.1105957, 3.28725, 0.5801527, 3.28725, -0.7480916, 3.28725, -3.8396947
0.3875294, -0.0115816, 3.294, -0.0217285, 3.294, -1.0115356, 3.294, -0.1126709, 3.294, 0.5267175, 3.294, -1.1450381, 3.294, -4.0305343
0.3883235, -0.0105745, 3.30075, -0.0170288, 3.30075, -1.0098877, 3.30075, -0.1087646, 3.30075, 0.4580153, 3.30075, -1.0305344, 3.30075, -3.9236641
0.3891176, -0.0146029, 3.3075, -0.0150757, 3.3075, -1.0099487, 3.3075, -0.1114502, 3.3075, 0.6564885, 3.3075, -0.9541985, 3.3075, -4
0.3899118, -0.0229953, 3.31425, -0.0153809, 3.31425, -1.0095215, 3.31425, -0.111145, 3.31425, 0.5343512, 3.31425, -0.7557252, 3.31425, -4.1297708
0.3907059, -0.0256809, 3.321, -0.0195923, 3.321, -1.0094604, 3.321, -0.1107788, 3.321, 0.6030535, 3.321, -0.8320611, 3.321, -4
0.3915, -0.0261845, 3.32775, -0.0214844, 3.32775, -1.0083618, 3.32775, -0.112793, 3.32775, 0.6259542, 3.32775, -0.8320611, 3.32775, -4.0458016
0.3922941, -0.030045, 3.3345, -0.0221558, 3.3345, -1.0063477, 3.3345, -0.1126709, 3.3345, 0.740458, 3.3345, -0.8244275, 3.3345, -4
0.3930882, -0.0243381, 3.34125, -0.0253296, 3.34125, -1.0079956, 3.34125, -0.1107178, 3.34125, 0.740458, 3.34125, -0.7251908, 3.34125, -4.0152674
0.3938824, -0.0208133, 3.348, -0.0271606, 3.348, -1.0029297, 3.348, -0.1123047, 3.348, 0.6564885, 3.348, -1.091603, 3.348, -4.0076337
0.3946765, -0.0223239, 3.35475, -0.0252686, 3.35475, -1.0073853, 3.35475, -0.1124268, 3.35475, 0.9236641, 3.35475, -1.1221374, 3.35475, -4.3282442
0.3954706, -0.0236667, 3.3615, -0.0215454, 3.3615, -1.0153198, 3.3615, -0.1082153, 3.3615, 1.0229008, 3.3615, -1.2290076, 3.3615, -4.1984735
0.3962647, -0.0186313, 3.36825, -0.0189209, 3.36825, -1.0096436, 3.36825, -0.1165161, 3.36825, 1.2061069, 3.36825, -1.221374, 3.36825, -4.3053436
0.3970588, -0.0169528, 3.375, -0.0171509, 3.375, -1.0039673, 3.375, -0.118042, 3.375, 1.5114504, 3.375, -1.1145039, 3.375, -4.1603055
0.3978529, -0.0176242, 3.38175, -0.0129395, 3.38175, -1.0040283, 3.38175, -0.1202393, 3.38175, 1.5267175, 3.38175, -0.9389313, 3.38175, -4.3740458
0.3986471, -0.0176242, 3.3885, -0.0134888, 3.3885, -1.0038452, 3.3885, -0.1226196, 3.3885, 1.5877863, 3.3885, -0.6870229, 3.3885, -4.3435116
0.3994412, -0.0182956, 3.39525, -0.0130615, 3.39525, -1.0047607, 3.39525, -0.1181641, 3.39525, 1.6259542, 3.39525, -0.4274809, 3.39525, -4.3969464
0.4002353, -0.0171206, 3.402, -0.0106812, 3.402, -1.0081787, 3.402, -0.1192017, 3.402, 1.648855, 3.402, -0.1832061, 3.402, -4.3664122
0.4010294, -0.0146029, 3.40875, -0.0117798, 3.40875, -1.0078735, 3.40875, -0.1171875, 3.40875, 2.0229008, 3.40875, -0.1603053, 3.40875, -4.4045801
0.4018235, -0.0105745, 3.4155, -0.0090332, 3.4155, -1.0067139, 3.4155, -0.1201172, 3.4155, 2.2137403, 3.4155, 0.1755725, 3.4155, -4.2137403
0.4026176, -0.0105745, 3.42225, -0.0078125, 3.42225, -1.0109253, 3.42225, -0.1192627, 3.42225, 2.389313, 3.42225, 0.2671756, 3.42225, -4.2366414
0.4034118, -0.011078, 3.429, -0.0097656, 3.429, -1.0105591, 3.429, -0.1142578, 3.429, 2.5114503, 3.429, 0.3816794, 3.429, -4.3053436
0.4042059, -0.0095674, 3.43575, -0.0102539, 3.43575, -1.0119019, 3.43575, -0.1139526, 3.43575, 2.480916, 3.43575, 0.3816794, 3.43575, -4.1603055
0.405, -0.0068818, 3.4425, -0.0093994, 3.4425, -1.0126343, 3.4425, -0.1097412, 3.4425, 2.3053436, 3.4425, 0.4885496, 3.4425, -4.2442746
0.4057941, -0.008896, 3.44925, -0.0060425, 3.44925, -1.0155029, 3.44925, -0.107666, 3.44925, 2.3816793, 3.44925, 0.610687, 3.44925, -4.3358779
0.4065882, -0.0095674, 3.456, -0.0089722, 3.456, -1.0111084, 3.456, -0.1063843, 3.456, 2.4045801, 3.456, 0.8244275, 3.456, -4.2977099
0.4073824, -0.0139315, 3.46275, -0.0054321, 3.46275, -1.0071411, 3.46275, -0.1054077, 3.46275, 2.3206108, 3.46275, 1.3358779, 3.46275, -4.1297708
0.4081765, -0.01561, 3.4695, -0.0039673, 3.4695, -1.0046997, 3.4695, -0.1047974, 3.4695, 2.3664122, 3.4695, 1.1832061, 3.4695, -4.2442746
0.4089706, -0.0142672, 3.47625, -0.0111694, 3.47625, -1.0016479, 3.47625, -0.1046753, 3.47625, 2.5419848, 3.47625, 1.2519084, 3.47625, -4.4045801
0.4097647, -0.0142672, 3.483, -0.0150757, 3.483, -1.0006104, 3.483, -0.0997925, 3.483, 2.4045801, 3.483, 1.5725191, 3.483, -4.2366414
0.4105588, -0.0151064, 3.48975, -0.0162354, 3.48975, -1.0037231, 3.48975, -0.0997314, 3.48975, 2.4351146, 3.48975, 1.8549619, 3.48975, -4.2442746
0.4113529, -0.0152743, 3.4965, -0.0194702, 3.4965, -1.0025024, 3.4965, -0.0993042, 3.4965, 2.3969467, 3.4965, 1.6412214, 3.4965, -4.1145039
0.4121471, -0.0166171, 3.50325, -0.0193481, 3.50325, -1.0032349, 3.50325, -0.0970459, 3.50325, 2.2748091, 3.50325, 1.5801526, 3.50325, -4.1374044
0.4129412, -0.018967, 3.51, -0.0144653, 3.51, -1.0056152, 3.51, -0.0940552, 3.51, 2.0305343, 3.51, 1.5267175, 3.51, -4.1374044
0.4137353, -0.0209812, 3.51675, -0.0124512, 3.51675, -1.0056763, 3.51675, -0.0939941, 3.51675, 2.0687022, 3.51675, 1.4961832, 3.51675, -4.2366414
0.4145294, -0.0203098, 3.5235, -0.0079346, 3.5235, -1.0073853, 3.5235, -0.0911865, 3.5235, 1.8320611, 3.5235, 1.6793894, 3.5235, -4.1526718
0.4153235, -0.017792, 3.53025, -0.0055542, 3.53025, -1.0057373, 3.53025, -0.0950928, 3.53025, 1.870229, 3.53025, 1.6717557, 3.53025, -4.2519083
0.4161176, -0.0146029, 3.537, -0.0057373, 3.537, -1.0031738, 3.537, -0.0960083, 3.537, 1.9541985, 3.537, 1.5038168, 3.537, -4.4122138
0.4169118, -0.0129244, 3.54375, -0.0056763, 3.54375, -1.0012817, 3.54375, -0.0985718, 3.54375, 1.9312977, 3.54375, 1.8625954, 3.54375, -4.3969464
0.4177059, -0.0135958, 3.5505, -0.0026855, 3.5505, -1.0031738, 3.5505, -0.104248, 3.5505, 2.0687022, 3.5505, 2.0992367, 3.5505, -4.1679387
0.4185, -0.0159457, 3.55725, -0.007019, 3.55725, -1.0058594, 3.55725, -0.1033325, 3.55725, 2.0992367, 3.55725, 2.1450381, 3.55725, -4.2519083
0.4192941, -0.0112459, 3.564, -0.010376, 3.564, -1.0040283, 3.564, -0.1044312, 3.564, 2.0839694, 3.564, 2.1603053, 3.564, -4.2137403
0.4200882, -0.012253, 3.57075, -0.0162354, 3.57075, -1.0039673, 3.57075, -0.1062622, 3.57075, 2.1832061, 3.57075, 2.1450381, 3.57075, -4.3740458
0.4208824, -0.012253, 3.5775, -0.0198975, 3.5775, -1.0048218, 3.5775, -0.1087036, 3.5775, 2.351145, 3.5775, 2.0152671, 3.5775, -4.4274807
0.4216765, -0.0115816, 3.58425, -0.0235596, 3.58425, -1.00177, 3.58425, -0.1057129, 3.58425, 2.4427481, 3.58425, 1.5343511, 3.58425, -4.4427481
0.4224706, -0.0082246, 3.591, -0.0220947, 3.591, -1.006958, 3.591, -0.1020508, 3.591, 2.5801528, 3.591, 1.0305344, 3.591, -4.6641221
0.4232647, -0.0063783, 3.59775, -0.022522, 3.59775, -1.0037842, 3.59775, -0.0981445, 3.59775, 2.8320611, 3.59775, 0.7251908, 3.59775, -4.8091602
0.4240588, -0.0043641, 3.6045, -0.0231934, 3.6045, -1.005127, 3.6045, -0.0967407, 3.6045, 3.3206108, 3.6045, 0.5572519, 3.6045, -5
0.4248529, -0.0092317, 3.61125, -0.0231323, 3.61125, -1.0027466, 3.61125, -0.1008911, 3.61125, 3.2519083, 3.61125, 0.5419847, 3.61125, -5.0305343
0.4256471, -0.0124208, 3.618, -0.024292, 3.618, -1.0056152, 3.618, -0.1018066, 3.618, 3.519084, 3.618, 0.5801527, 3.618, -4.8549619
0.4264412, -0.0112459, 3.62475, -0.0233765, 3.62475, -1.0042114, 3.62475, -0.1002808, 3.62475, 3.6564887, 3.62475, 0.5572519, 3.62475, -4.8167939
0.4272353, -0.0102388, 3.6315, -0.0186768, 3.6315, -1.0012207, 3.6315, -0.1010742, 3.6315, 3.7175572, 3.6315, 0.4427481, 3.6315, -4.9694657
0.4280294, -0.0125887, 3.63825, -0.020752, 3.63825, -1.0009766, 3.63825, -0.1062012, 3.63825, 3.9541984, 3.63825, 0.5877863, 3.63825, -5.0076337
0.4288235, -0.01561, 3.645, -0.0161743, 3.645, -1.0029907, 3.645, -0.102478, 3.645, 3.7480917, 3.645, 0.3969466, 3.645, -4.7938933
0.4296176, -0.0176242, 3.65175, -0.0183716, 3.65175, -1.0046997, 3.65175, -0.1019897, 3.65175, 3.7938931, 3.65175, 0.259542, 3.65175, -4.5877862
0.4304118, -0.0182956, 3.6585, -0.013855, 3.6585, -1.0001831, 3.6585, -0.0997314, 3.6585, 3.5496182, 3.6585, 0.0076336, 3.6585, -4.6183205
0.4312059, -0.0169528, 3.66525, -0.0063477, 3.66525, -1.0010376, 3.66525, -0.0976562, 3.66525, 3.6183207, 3.66525, -0.6183206, 3.66525, -4.7709923
0.432, -0.0203098, 3.672, -0.0063477, 3.672, -1.0073853, 3.672, -0.093811, 3.672, 3.4732823, 3.672, -0.7022901, 3.672, -4.6488547
0.4327941, -0.0240024, 3.67875, -0.0031738, 3.67875, -1.0081787, 3.67875, -0.0958862, 3.67875, 3.3435113, 3.67875, -0.3969466, 3.67875, -4.7022901
0.4335882, -0.0240024, 3.6855, 0.0021362, 3.6855, -1.0042725, 3.6855, -0.0930176, 3.6855, 3.4503818, 3.6855, -0.9236641, 3.6855, -4.3053436
0.4343824, -0.0229953, 3.69225, 0.006958, 3.69225, -1.0039673, 3.69225, -0.0864868, 3.69225, 3.5038168, 3.69225, -0.7709923, 3.69225, -4.5496182
0.4351765, -0.0251774, 3.699, 0.0062256, 3.699, -1.0048218, 3.699, -0.0905762, 3.699, 3.1374047, 3.699, -0.6717557, 3.699, -4.5343513
0.4359706, -0.0223239, 3.70575, 0.0045166, 3.70575, -1.0072021, 3.70575, -0.0963135, 3.70575, 2.9923663, 3.70575, -0.4503817, 3.70575, -4.5496182
0.4367647, -0.0124208, 3.7125, 0.0040894, 3.7125, -1.0091553, 3.7125, -0.0925903, 3.7125, 3.1450381, 3.7125, 0.1450382, 3.7125, -4.4580154
0.4375588, -0.0072175, 3.71925, 0.0030518, 3.71925, -1.0061035, 3.71925, -0.1004639, 3.71925, 2.9541984, 3.71925, 0.2977099, 3.71925, -4.1374044
0.4383529, -0.0013428, 3.726, -0.0009155, 3.726, -1.0064087, 3.726, -0.0957031, 3.726, 2.870229, 3.726, -0.0076336, 3.726, -4.1221375
0.4391471, -0.0015106, 3.73275, -0.0068359, 3.73275, -1.0088501, 3.73275, -0.0922241, 3.73275, 2.778626, 3.73275, -0.0305344, 3.73275, -4.1832061
0.4399412, -0.0023499, 3.7395, -0.0108032, 3.7395, -1.0110474, 3.7395, -0.0951538, 3.7395, 2.7175572, 3.7395, 0.1679389, 3.7395, -4.1374044
0.4407353, -0.0015106, 3.74625, -0.0115356, 3.74625, -1.0084839, 3.74625, -0.104187, 3.74625, 2.6335878, 3.74625, 0.389313, 3.74625, -3.8778627
0.4415294, -0.0011749, 3.753, -0.0120239, 3.753, -1.0110474, 3.753, -0.1037598, 3.753, 2.5114503, 3.753, -0.1068702, 3.753, -3.9236641
0.4423235, -0.0036927, 3.75975, -0.0068359, 3.75975, -1.0126343, 3.75975, -0.100708, 3.75975, 2.5572519, 3.75975, -0.389313, 3.75975, -3.9389312
0.4431176, -0.0075532, 3.7665, -0.0100098, 3.7665, -1.0103149, 3.7665, -0.1022339, 3.7665, 2.4732823, 3.7665, -0.3206107, 3.7665, -3.7862597
0.4439118, -0.0135958, 3.77325, -0.008667, 3.77325, -1.013916, 3.77325, -0.1054077, 3.77325, 2.4961832, 3.77325, -0.0916031, 3.77325, -3.7251909
0.4447059, -0.0166171, 3.78, -0.0084839, 3.78, -1.0117188, 3.78, -0.1068115, 3.78, 2.2824428, 3.78, -0.129771, 3.78, -3.8244274
0.4455, -0.0219883, 3.78675, -0.0036011, 3.78675, -1.0113525, 3.78675, -0.1102295, 3.78675, 2.259542, 3.78675, -0.0687023, 3.78675, -3.6641221
0.4462941, -0.0219883, 3.7935, -0.0029297, 3.7935, -1.0133667, 3.7935, -0.1065674, 3.7935, 2.5725191, 3.7935, 0.2900763, 3.7935, -3.6641221
0.4470882, -0.017792, 3.80025, -0.0040894, 3.80025, -1.0109863, 3.80025, -0.1083374, 3.80025, 2.5801528, 3.80025, 0.2977099, 3.80025, -3.5038168
0.4478824, -0.012253, 3.807, -0.0033569, 3.807, -1.0098267, 3.807, -0.1103516, 3.807, 2.4885497, 3.807, -0.389313, 3.807, -3.6183207
0.4486765, -0.0058747, 3.81375, 0.0019531, 3.81375, -1.0090942, 3.81375, -0.1030273, 3.81375, 2.4885497, 3.81375, -0.740458, 3.81375, -3.8854961
0.4494706, -0.0068818, 3.8205, 0.0010986, 3.8205, -1.0160522, 3.8205, -0.09729, 3.8205, 2.389313, 3.8205, -0.5267175, 3.8205, -3.9236641
0.4502647, -0.0068818, 3.82725, -0.0021362, 3.82725, -1.0159912, 3.82725, -0.090332, 3.82725, 2.3282442, 3.82725, 0.1450382, 3.82725, -3.7633588
0.4510588, -0.0082246, 3.834, -0.0011597, 3.834, -1.0144653, 3.834, -0.0922241, 3.834, 2.3129771, 3.834, 0.5419847, 3.834, -3.5648854
0.4518529, -0.0149386, 3.84075, -0.0038452, 3.84075, -1.006958, 3.84075, -0.0957642, 3.84075, 2.3129771, 3.84075, 0.8778626, 3.84075, -3.4656489
0.4526471, -0.0176242, 3.8475, -0.0055542, 3.8475, -1.008667, 3.8475, -0.0991821, 3.8475, 2.4274809, 3.8475, 0.9389313, 3.8475, -3.5725191
0.4534412, -0.0176242, 3.85425, -0.0056763, 3.85425, -1.0092773, 3.85425, -0.0998535, 3.85425, 2.4122138, 3.85425, 0.9770992, 3.85425, -3.519084
0.4542353, -0.0166171, 3.861, -0.0061035, 3.861, -1.0070801, 3.861, -0.1015015, 3.861, 2.3816793, 3.861, 0.8396947, 3.861, -3.4503818
0.4550294, -0.0149386, 3.86775, -0.0073853, 3.86775, -1.0057983, 3.86775, -0.0973511, 3.86775, 2.351145, 3.86775, 0.7709923, 3.86775, -3.4122138
0.4558235, -0.0102388, 3.8745, -0.0033569, 3.8745, -1.0026245, 3.8745, -0.0958252, 3.8745, 2.0687022, 3.8745, 0.7251908, 3.8745, -3.5267177
0.4566176, -0.0124208, 3.88125, -0.008728, 3.88125, -1.0071411, 3.88125, -0.0975952, 3.88125, 2.1679389, 3.88125, 0.519084, 3.88125, -3.5038168
0.4574118, -0.0199741, 3.888, -0.0084229, 3.888, -1.0090942, 3.888, -0.0998535, 3.888, 2.1603053, 3.888, 0.6412213, 3.888, -3.5343511
0.4582059, -0.0240024, 3.89475, -0.0113525, 3.89475, -1.0045166, 3.89475, -0.0959473, 3.89475, 1.9923664, 3.89475, 0.389313, 3.89475, -3.3816793
0.459, -0.0231632, 3.9015, -0.0110474, 3.9015, -1.0057983, 3.9015, -0.0986328, 3.9015, 2.038168, 3.9015, 0.5572519, 3.9015, -3.5114503
0.4597941, -0.021149, 3.90825, -0.0133057, 3.90825, -1.0089722, 3.90825, -0.0990601, 3.90825, 1.961832, 3.90825, 0.389313, 3.90825, -3.7022901
0.4605882, -0.0213169, 3.915, -0.012085, 3.915, -1.0098877, 3.915, -0.0986328, 3.915, 2.1603053, 3.915, -0.2900763, 3.915, -3.7251909
0.4613824, -0.0203098, 3.92175, -0.0089111, 3.92175, -1.0093994, 3.92175, -0.0961304, 3.92175, 1.8244275, 3.92175, -0.519084, 3.92175, -3.4732823
0.4621765, -0.0226596, 3.9285, -0.0057373, 3.9285, -1.0043335, 3.9285, -0.0932617, 3.9285, 1.870229, 3.9285, -1.1679389, 3.9285, -3.610687
0.4629706, -0.0216526, 3.93525, -0.0033569, 3.93525, -1.0047607, 3.93525, -0.0935059, 3.93525, 1.9770992, 3.93525, -1.4580153, 3.93525, -3.7938931
0.4637647, -0.0172885, 3.942, 0.0009766, 3.942, -1.0098267, 3.942, -0.0932617, 3.942, 1.740458, 3.942, -1.2900764, 3.942, -3.9312978
0.4645588, -0.017792, 3.94875, 0.0013428, 3.94875, -1.0097656, 3.94875, -0.0872803, 3.94875, 1.6183206, 3.94875, -1.1603054, 3.94875, -3.870229
0.4653529, -0.0135958, 3.9555, -6.1E-05, 3.9555, -1.0076294, 3.9555, -0.0894165, 3.9555, 1.6259542, 3.9555, -0.5877863, 3.9555, -3.8549619
0.4661471, -0.0146029, 3.96225, 0, 3.96225, -1.0085449, 3.96225, -0.0889893, 3.96225, 1.6259542, 3.96225, -0.0687023, 3.96225, -3.610687
0.4669412, -0.0171206, 3.969, -0.0039673, 3.969, -1.0061646, 3.969, -0.0903931, 3.969, 1.7022901, 3.969, -0.2442748, 3.969, -3.6717558
0.4677353, -0.0166171, 3.97575, -0.0095215, 3.97575, -1.007019, 3.97575, -0.0918579, 3.97575, 1.6870229, 3.97575, -0.2061069, 3.97575, -3.480916
0.4685294, -0.0142672, 3.9825, -0.0054321, 3.9825, -1.0065308, 3.9825, -0.093811, 3.9825, 1.7938931, 3.9825, -0.4427481, 3.9825, -3.8473282
0.4693235, -0.0139315, 3.98925, -0.0056152, 3.98925, -1.005249, 3.98925, -0.0912476, 3.98925, 1.8778626, 3.98925, -0.6717557, 3.98925, -3.8854961
0.4701176, -0.0119173, 3.996, -0.0067139, 3.996, -1.0057373, 3.996, -0.0940552, 3.996, 1.8320611, 3.996, -0.7022901, 3.996, -3.6259542
0.4709118, -0.0102388, 4.00275, -0.0046387, 4.00275, -1.005249, 4.00275, -0.0930176, 4.00275, 1.6641221, 4.00275, -0.3206107, 4.00275, -3.6793892
0.4717059, -0.0142672, 4.0095, -0.0032349, 4.0095, -1.0050049, 4.0095, -0.0940552, 4.0095, 1.9541985, 4.0095, -0.0076336, 4.0095, -3.4274809
0.4725, -0.0125887, 4.01625, -0.0020752, 4.01625, -1.0056763, 4.01625, -0.0944214, 4.01625, 2.038168, 4.01625, 0.1908397, 4.01625, -3.4732823
0.4732941, -0.0102388, 4.023, 0.0018311, 4.023, -1.0076294, 4.023, -0.0968628, 4.023, 2.0534351, 4.023, 0.3816794, 4.023, -3.4045801
0.4740882, -0.0151064, 4.02975, 6.1E-05, 4.02975, -1.0053711, 4.02975, -0.0931396, 4.02975, 2.0534351, 4.02975, 0.6946565, 4.02975, -3.5267177
0.4748824, -0.0166171, 4.0365, -0.0010986, 4.0365, -1.005127, 4.0365, -0.0930786, 4.0365, 2.2671757, 4.0365, 0.7633588, 4.0365, -3.4732823
0.4756765, -0.0151064, 4.04325, -0.0053101, 4.04325, -1.0073853, 4.04325, -0.0986328, 4.04325, 2, 4.04325, 0.6717557, 4.04325, -3.5267177
0.4764706, -0.0149386, 4.05, -0.0064087, 4.05, -1.0057373, 4.05, -0.0957642, 4.05, 1.870229, 4.05, 0.4580153, 4.05, -3.3129771
0.4772647, -0.017792, 4.05675, -0.0065918, 4.05675, -1.0067749, 4.05675, -0.0922241, 4.05675, 1.961832, 4.05675, 0.2671756, 4.05675, -3.4503818
0.4780588, -0.01561, 4.0635, -0.012207, 4.0635, -1.0073853, 4.0635, -0.0916748, 4.0635, 2.0534351, 4.0635, 0.0076336, 4.0635, -3.4274809
0.4788529, -0.0157778, 4.07025, -0.0080566, 4.07025, -1.0070801, 4.07025, -0.0910645, 4.07025, 2.1908398, 4.07025, 0.0687023, 4.07025, -3.4427481
0.4796471, -0.0182956, 4.077, -0.0045776, 4.077, -1.0064697, 4.077, -0.0946045, 4.077, 2.0305343, 4.077, 0.0763359, 4.077, -3.3129771
0.4804412, -0.0172885, 4.08375, 0.0010376, 4.08375, -1.010376, 4.08375, -0.0905151, 4.08375, 1.7175573, 4.08375, 0.0534351, 4.08375, -3.1755726
0.4812353, -0.0164492, 4.0905, 0.0043335, 4.0905, -1.008667, 4.0905, -0.0919189, 4.0905, 1.778626, 4.0905, -0.0152672, 4.0905, -3.221374
0.4820294, -0.0179599, 4.09725, 0.0029297, 4.09725, -1.0094604, 4.09725, -0.0935669, 4.09725, 1.870229, 4.09725, 0.0916031, 4.09725, -3.3053436
0.4828235, -0.0142672, 4.104, 0.0012817, 4.104, -1.0125122, 4.104, -0.0890503, 4.104, 1.7709924, 4.104, 0.2824427, 4.104, -3.1450381
0.4836176, -0.0119173, 4.11075, -0.0005493, 4.11075, -1.008606, 4.11075, -0.0886841, 4.11075, 1.6030535, 4.11075, 0.3129771, 4.11075, -3.3053436
0.4844118, -0.0169528, 4.1175, -0.0006104, 4.1175, -1.0080566, 4.1175, -0.086792, 4.1175, 1.5954199, 4.1175, 0.3206107, 4.1175, -3.2137403
0.4852059, -0.0162814, 4.12425, 0.0016479, 4.12425, -1.0073242, 4.12425, -0.0891724, 4.12425, 1.7099236, 4.12425, 0.3282443, 4.12425, -3.1450381
0.486, -0.0166171, 4.131, -0.0040283, 4.131, -1.0081177, 4.131, -0.0925293, 4.131, 1.5419847, 4.131, 0.4198473, 4.131, -3.0229008
0.4867941, -0.01561, 4.13775, -0.0046997, 4.13775, -1.0082397, 4.13775, -0.0899048, 4.13775, 1.5419847, 4.13775, 0.1755725, 4.13775, -3.2748091
0.4875882, -0.0095674, 4.1445, -0.0046997, 4.1445, -1.0059204, 4.1445, -0.0917358, 4.1445, 1.4656489, 4.1445, -0.0229008, 4.1445, -3.1221373
0.4883824, -0.0115816, 4.15125, -0.0055542, 4.15125, -1.006958, 4.15125, -0.0875244, 4.15125, 1.1984733, 4.15125, 0.1374046, 4.15125, -3.1984732
0.4891765, -0.0085603, 4.158, -0.0028687, 4.158, -1.0040283, 4.158, -0.0864258, 4.158, 1.1374046, 4.158, 0.5648855, 4.158, -3.0152671
0.4899706, -0.0070497, 4.16475, -0.003479, 4.16475, -1.0027466, 4.16475, -0.0870361, 4.16475, 1.1984733, 4.16475, 0.6030535, 4.16475, -2.9389312
0.4907647, -0.0124208, 4.1715, -0.0059814, 4.1715, -1.0042725, 4.1715, -0.0899048, 4.1715, 1.2137405, 4.1715, 0.6030535, 4.1715, -2.9160306
0.4915588, -0.0152743, 4.17825, -0.0037842, 4.17825, -1.0084229, 4.17825, -0.0910645, 4.17825, 1.4580153, 4.17825, 0.6412213, 4.17825, -2.9160306
0.4923529, -0.0135958, 4.185, -0.0040283, 4.185, -1.0044556, 4.185, -0.0932007, 4.185, 1.2137405, 4.185, 0.8549618, 4.185, -2.961832
0.4931471, -0.0162814, 4.19175, -0.0046997, 4.19175, -1.0026245, 4.19175, -0.0908813, 4.19175, 1.3587786, 4.19175, 0.6030535, 4.19175, -2.8549619
0.4939412, -0.0154421, 4.1985, -0.003479, 4.1985, -1.0037842, 4.1985, -0.0913086, 4.1985, 1.5725191, 4.1985, 0.221374, 4.1985, -3.0610688
0.4947353, -0.0142672, 4.20525, -0.0053101, 4.20525, -1.0050659, 4.20525, -0.0932617, 4.20525, 1.6259542, 4.20525, 0.2824427, 4.20525, -3.0152671
0.4955294, -0.0179599, 4.212, -0.0031128, 4.212, -1.0050049, 4.212, -0.0957642, 4.212, 1.648855, 4.212, 0.1068702, 4.212, -3.0076337
0.4963235, -0.0151064, 4.21875, -0.0053101, 4.21875, -1.0056763, 4.21875, -0.0963135, 4.21875, 1.8320611, 4.21875, 0.1679389, 4.21875, -3.0305343
0.4971176, -0.0132601, 4.2255, -0.0050049, 4.2255, -1.0078735, 4.2255, -0.0977783, 4.2255, 1.9541985, 4.2255, 0.3969466, 4.2255, -2.8015268
0.4979118, -0.0162814, 4.23225, -0.0056152, 4.23225, -1.0085449, 4.23225, -0.0946045, 4.23225, 2.0152671, 4.23225, 0.4198473, 4.23225, -2.9236641
0.4987059, -0.0162814, 4.239, -0.0067749, 4.239, -1.0057373, 4.239, -0.0977173, 4.239, 1.9694656, 4.239, 0.3358779, 4.239, -2.8473282
0.4995, -0.0140993, 4.24575, -0.0072632, 4.24575, -1.008606, 4.24575, -0.0961304, 4.24575, 1.9389313, 4.24575, 0.3129771, 4.24575, -2.9389312
0.5002941, -0.0119173, 4.2525, -0.0073242, 4.2525, -1.0072021, 4.2525, -0.0916748, 4.2525, 2.091603, 4.2525, 0.1755725, 4.2525, -3.0076337
0.5010882, -0.0099031, 4.25925, -0.0078735, 4.25925, -1.0093384, 4.25925, -0.0905762, 4.25925, 1.870229, 4.25925, 0.1984733, 4.25925, -2.961832
0.5018824, -0.0104067, 4.266, -0.0054932, 4.266, -1.0118408, 4.266, -0.0913696, 4.266, 1.6335878, 4.266, 0.1145038, 4.266, -2.9160306
0.5026765, -0.0109102, 4.27275, -0.0044556, 4.27275, -1.0087891, 4.27275, -0.0897217, 4.27275, 1.480916, 4.27275, 0.1450382, 4.27275, -2.8396947
0.5034706, -0.0105745, 4.2795, -0.0024414, 4.2795, -1.0077515, 4.2795, -0.0891113, 4.2795, 1.4274809, 4.2795, 0.3740458, 4.2795, -3.0076337
0.5042647, -0.0090639, 4.28625, -0.0026245, 4.28625, -1.0103149, 4.28625, -0.0841064, 4.28625, 1.3282443, 4.28625, 0.610687, 4.28625, -3.0152671
0.5050588, -0.008896, 4.293, -0.0064697, 4.293, -1.0079346, 4.293, -0.0856934, 4.293, 1.4122137, 4.293, 0.778626, 4.293, -2.9160306
0.5058529, -0.0115816, 4.29975, -0.0050049, 4.29975, -1.0075684, 4.29975, -0.0870361, 4.29975, 1.4656489, 4.29975, 0.5114504, 4.29975, -2.8778627
0.5066471, -0.0135958, 4.3065, -0.0059814, 4.3065, -1.0040283, 4.3065, -0.0913696, 4.3065, 1.4045801, 4.3065, 0.3206107, 4.3065, -3.0305343
0.5074412, -0.0142672, 4.31325, -0.0098267, 4.31325, -1.0043945, 4.31325, -0.0892334, 4.31325, 1.0763359, 4.31325, 0.1908397, 4.31325, -2.9694657
0.5082353, -0.0149386, 4.32, -0.0146484, 4.32, -1.0059204, 4.32, -0.0888672, 4.32, 1.2671756, 4.32, 0.2442748, 4.32, -2.961832
0.5090294, -0.012253, 4.32675, -0.0098877, 4.32675, -1.0083618, 4.32675, -0.0861206, 4.32675, 1.2061069, 4.32675, 0.1374046, 4.32675, -3.038168
0.5098235, -0.011078, 4.3335, -0.008728, 4.3335, -1.0064087, 4.3335, -0.0894775, 4.3335, 1.4045801, 4.3335, 0.0610687, 4.3335, -2.961832
0.5106176, -0.0135958, 4.34025, -0.0106201, 4.34025, -1.0028687, 4.34025, -0.0911255, 4.34025, 1.2977099, 4.34025, 0.5725191, 4.34025, -2.9236641
0.5114118, -0.0172885, 4.347, -0.0079956, 4.347, -1.0045166, 4.347, -0.0903931, 4.347, 1.129771, 4.347, 0.6717557, 4.347, -3.0763359
0.5122059, -0.0186313, 4.35375, -0.0056763, 4.35375, -1.0039062, 4.35375, -0.0906982, 4.35375, 1.4885496, 4.35375, 0.4198473, 4.35375, -2.8931298
0.513, -0.0179599, 4.3605, -0.005127, 4.3605, -1.0084839, 4.3605, -0.0911865, 4.3605, 1.5267175, 4.3605, 0.480916, 4.3605, -3.0763359
0.5137941, -0.0146029, 4.36725, -0.0027466, 4.36725, -1.0083008, 4.36725, -0.0890503, 4.36725, 1.480916, 4.36725, 0.908397, 4.36725, -3.0076337
0.5145882, -0.0139315, 4.374, -0.00177, 4.374, -1.0078125, 4.374, -0.0866699, 4.374, 1.4274809, 4.374, 1.1984733, 4.374, -2.908397
0.5153824, -0.0152743, 4.38075, -0.0036621, 4.38075, -1.0077515, 4.38075, -0.0900879, 4.38075, 1.5801526, 4.38075, 1.2900764, 4.38075, -2.7099237
0.5161765, -0.0125887, 4.3875, -0.0061646, 4.3875, -1.0072021, 4.3875, -0.0893555, 4.3875, 1.5801526, 4.3875, 1.0763359, 4.3875, -2.8320611
0.5169706, -0.0115816, 4.39425, -0.0065308, 4.39425, -1.0084839, 4.39425, -0.0900879, 4.39425, 1.5954199, 4.39425, 1.0305344, 4.39425, -2.8015268
0.5177647, -0.0137636, 4.401, -0.0079956, 4.401, -1.0075073, 4.401, -0.0918579, 4.401, 1.4885496, 4.401, 1.0610687, 4.401, -2.9923663
0.5185588, -0.0162814, 4.40775, -0.0074463, 4.40775, -1.0074463, 4.40775, -0.0906372, 4.40775, 1.5877863, 4.40775, 1.0610687, 4.40775, -3.038168
0.5193529, -0.0162814, 4.4145, -0.0087891, 4.4145, -1.0073853, 4.4145, -0.0869141, 4.4145, 1.4885496, 4.4145, 1.221374, 4.4145, -2.9007633
0.5201471, -0.0139315, 4.42125, -0.0114136, 4.42125, -1.0091553, 4.42125, -0.0894775, 4.42125, 1.519084, 4.42125, 0.9389313, 4.42125, -3.1221373
0.5209412, -0.0082246, 4.428, -0.0119629, 4.428, -1.0090332, 4.428, -0.0877075, 4.428, 1.5572519, 4.428, 0.7709923, 4.428, -3.1755726
0.5217353, -0.0065461, 4.43475, -0.006958, 4.43475, -1.0080566, 4.43475, -0.0864868, 4.43475, 1.4580153, 4.43475, 1.0076336, 4.43475, -3.1374047
0.5225294, -0.005539, 4.4415, -0.0081787, 4.4415, -1.0064697, 4.4415, -0.0875854, 4.4415, 1.3129771, 4.4415, 0.9770992, 4.4415, -3.1068702
0.5233235, -0.0041962, 4.44825, -0.0116577, 4.44825, -1.0083618, 4.44825, -0.0878296, 4.44825, 1.2442749, 4.44825, 0.8854962, 4.44825, -3.1679389
0.5241176, -0.0090639, 4.455, -0.0126953, 4.455, -1.0043945, 4.455, -0.0888062, 4.455, 1.1526718, 4.455, 0.8396947, 4.455, -3.0992367
0.5249118, -0.0139315, 4.46175, -0.0101318, 4.46175, -1.0040283, 4.46175, -0.0891113, 4.46175, 1, 4.46175, 0.6870229, 4.46175, -3.0534351
0.5257059, -0.0135958, 4.4685, -0.0089111, 4.4685, -1.0022583, 4.4685, -0.0899048, 4.4685, 1.2366412, 4.4685, 0.5419847, 4.4685, -3.2137403
0.5265, -0.0149386, 4.47525, -0.0078735, 4.47525, -1.0036621, 4.47525, -0.0922241, 4.47525, 1.0534351, 4.47525, 0.6717557, 4.47525, -3.1603053
0.5272941, -0.0162814, 4.482, -0.0080566, 4.482, -1.005127, 4.482, -0.0886841, 4.482, 1.0992366, 4.482, 0.5877863, 4.482, -3.0534351
0.5280882, -0.0171206, 4.48875, -0.0063477, 4.48875, -1.005127, 4.48875, -0.0941772, 4.48875, 1.2442749, 4.48875, 0.6641222, 4.48875, -3.0229008
0.5288824, -0.0171206, 4.4955, -0.006958, 4.4955, -1.0098877, 4.4955, -0.0898438, 4.4955, 1.351145, 4.4955, 0.8167939, 4.4955, -3.1755726
0.5296765, -0.0139315, 4.50225, -0.0026245, 4.50225, -1.008667, 4.50225, -0.0912476, 4.50225, 1.4885496, 4.50225, 0.7480916, 4.50225, -2.9541984
0.5304706, -0.0164492, 4.509, -0.0045166, 4.509, -1.0083618, 4.509, -0.0910645, 4.509, 1.3053435, 4.509, 0.8931298, 4.509, -3.2137403
0.5312647, -0.0219883, 4.51575, -0.0082397, 4.51575, -1.008667, 4.51575, -0.0895386, 4.51575, 1.3587786, 4.51575, 0.8549618, 4.51575, -3.1374047
0.5320588, -0.0221561, 4.5225, -0.0106812, 4.5225, -1.0093384, 4.5225, -0.0915527, 4.5225, 1.1755725, 4.5225, 0.4885496, 4.5225, -3.3358779
0.5328529, -0.0260166, 4.52925, -0.0117798, 4.52925, -1.0089722, 4.52925, -0.0921631, 4.52925, 1.5954199, 4.52925, 0.648855, 4.52925, -3.3969467
0.5336471, -0.0256809, 4.536, -0.010376, 4.536, -1.0062866, 4.536, -0.0953369, 4.536, 1.6412214, 4.536, 0.7480916, 4.536, -3.2366412
0.5344412, -0.0203098, 4.54275, -0.0064087, 4.54275, -1.006958, 4.54275, -0.0953369, 4.54275, 1.6946565, 4.54275, 0.8015267, 4.54275, -3.3816793
0.5352353, -0.0182956, 4.5495, -0.0072632, 4.5495, -1.008667, 4.5495, -0.0928955, 4.5495, 1.6717557, 4.5495, 0.6793893, 4.5495, -3.4122138
0.5360294, -0.0162814, 4.55625, -0.0083008, 4.55625, -1.0106201, 4.55625, -0.0930176, 4.55625, 1.648855, 4.55625, 0.4961832, 4.55625, -3.4732823
0.5368235, -0.0169528, 4.563, -0.0133057, 4.563, -1.0106201, 4.563, -0.0925903, 4.563, 1.8320611, 4.563, 0.6717557, 4.563, -3.1984732
0.5376176, -0.0162814, 4.56975, -0.0112915, 4.56975, -1.012207, 4.56975, -0.0935669, 4.56975, 1.8473282, 4.56975, 0.740458, 4.56975, -3.3587787
0.5384118, -0.0152743, 4.5765, -0.0101318, 4.5765, -1.0113525, 4.5765, -0.0917969, 4.5765, 2.0992367, 4.5765, 0.8778626, 4.5765, -3.2290077
0.5392059, -0.0152743, 4.58325, -0.0107422, 4.58325, -1.0106812, 4.58325, -0.0889893, 4.58325, 1.8473282, 4.58325, 0.8320611, 4.58325, -3.2900763
0.54, -0.0105745, 4.59, -0.0054321, 4.59, -1.010376, 4.59, -0.0939941, 4.59, 1.9770992, 4.59, 0.6259542, 4.59, -3.1984732
0.5407941, -0.0102388, 4.59675, -0.0089111, 4.59675, -1.0097046, 4.59675, -0.0911255, 4.59675, 2.0534351, 4.59675, 0.6870229, 4.59675, -3.3129771
0.5415882, -0.0048676, 4.6035, -0.0058594, 4.6035, -1.0072632, 4.6035, -0.0894775, 4.6035, 2.091603, 4.6035, 0.7633588, 4.6035, -3.2442749
0.5423824, -0.0031891, 4.61025, -0.0039673, 4.61025, -1.0064087, 4.61025, -0.0883179, 4.61025, 2.0763359, 4.61025, 0.6335878, 4.61025, -3.2442749
0.5431765, -0.0045319, 4.617, -0.0061035, 4.617, -1.0054321, 4.617, -0.0899658, 4.617, 2.1221373, 4.617, 0.8244275, 4.617, -3.351145
0.5439706, -0.0085603, 4.62375, -0.0071411, 4.62375, -1.007019, 4.62375, -0.0894165, 4.62375, 1.870229, 4.62375, 0.8091603, 4.62375, -3.259542
0.5447647, -0.0135958, 4.6305, -0.0095825, 4.6305, -1.0055542, 4.6305, -0.0894165, 4.6305, 1.870229, 4.6305, 0.8931298, 4.6305, -3.3969467
0.5455588, -0.0172885, 4.63725, -0.0127563, 4.63725, -1.0064087, 4.63725, -0.086853, 4.63725, 2.038168, 4.63725, 0.8473282, 4.63725, -3.389313
0.5463529, -0.0139315, 4.644, -0.0142822, 4.644, -1.0059814, 4.644, -0.0878296, 4.644, 1.9465649, 4.644, 0.6717557, 4.644, -3.5267177
0.5471471, -0.0095674, 4.65075, -0.012207, 4.65075, -1.0057373, 4.65075, -0.0847778, 4.65075, 2.1832061, 4.65075, 0.4122137, 4.65075, -3.480916
0.5479412, -0.0109102, 4.6575, -0.0115967, 4.6575, -1.0042725, 4.6575, -0.086853, 4.6575, 2.1450381, 4.6575, 0.3435115, 4.6575, -3.3053436
0.5487353, -0.0115816, 4.66425, -0.0072632, 4.66425, -1.0065308, 4.66425, -0.0861816, 4.66425, 2.1526718, 4.66425, 0.0305344, 4.66425, -3.519084
0.5495294, -0.0112459, 4.671, -0.007019, 4.671, -1.0076294, 4.671, -0.0897827, 4.671, 2.0839694, 4.671, 0.0610687, 4.671, -3.7251909
0.5503235, -0.0125887, 4.67775, -0.010498, 4.67775, -1.0067139, 4.67775, -0.0880737, 4.67775, 2.0076337, 4.67775, 0.1603053, 4.67775, -3.6793892
0.5511176, -0.0112459, 4.6845, -0.0061646, 4.6845, -1.0089722, 4.6845, -0.0879517, 4.6845, 1.9007634, 4.6845, 0.1603053, 4.6845, -3.6335878
0.5519118, -0.0124208, 4.69125, -0.0033569, 4.69125, -1.0053711, 4.69125, -0.0916748, 4.69125, 2.1450381, 4.69125, 0.2671756, 4.69125, -3.5877862
0.5527059, -0.0132601, 4.698, -0.0057983, 4.698, -1.0106812, 4.698, -0.0923462, 4.698, 1.908397, 4.698, 0.1832061, 4.698, -3.5343511
0.5535, -0.012253, 4.70475, -0.0046997, 4.70475, -1.0090332, 4.70475, -0.0901489, 4.70475, 1.6793894, 4.70475, 0.2137405, 4.70475, -3.4580152
0.5542941, -0.0149386, 4.7115, -0.0065308, 4.7115, -1.0082397, 4.7115, -0.0881348, 4.7115, 1.5038168, 4.7115, 0.2290076, 4.7115, -3.5343511
0.5550882, -0.01561, 4.71825, -0.0057983, 4.71825, -1.0078735, 4.71825, -0.0866699, 4.71825, 1.5877863, 4.71825, 0.4656489, 4.71825, -3.6259542
0.5558824, -0.0159457, 4.725, -0.0076904, 4.725, -1.010498, 4.725, -0.086853, 4.725, 1.7099236, 4.725, 0.7709923, 4.725, -3.3816793
0.5566765, -0.0166171, 4.73175, -0.0056152, 4.73175, -1.0065918, 4.73175, -0.0846558, 4.73175, 1.5114504, 4.73175, 0.6717557, 4.73175, -3.3740458
0.5574706, -0.0196384, 4.7385, -0.0073853, 4.7385, -1.008667, 4.7385, -0.0839233, 4.7385, 1.6030535, 4.7385, 0.351145, 4.7385, -3.4351146
0.5582647, -0.0193027, 4.74525, -0.0082397, 4.74525, -1.0067139, 4.74525, -0.0838013, 4.74525, 1.5725191, 4.74525, 0.1832061, 4.74525, -3.4122138
0.5590588, -0.018967, 4.752, -0.0040894, 4.752, -1.0095215, 4.752, -0.0808716, 4.752, 1.6564885, 4.752, 0.2442748, 4.752, -3.5419848
0.5598529, -0.0199741, 4.75875, -0.0059204, 4.75875, -1.0072632, 4.75875, -0.081665, 4.75875, 1.648855, 4.75875, 0.5648855, 4.75875, -3.5038168
0.5606471, -0.0191348, 4.7655, -0.0065308, 4.7655, -1.006897, 4.7655, -0.0774536, 4.7655, 1.5114504, 4.7655, 0.389313, 4.7655, -3.5419848
0.5614412, -0.0196384, 4.77225, -0.0075684, 4.77225, -1.0047607, 4.77225, -0.0766602, 4.77225, 1.5267175, 4.77225, 0.2137405, 4.77225, -3.5877862
0.5622353, -0.018967, 4.779, -0.0056152, 4.779, -1.0046387, 4.779, -0.0791016, 4.779, 1.6641221, 4.779, 0.2061069, 4.779, -3.5496182
0.5630294, -0.0214847, 4.78575, -0.0047607, 4.78575, -1.0031738, 4.78575, -0.0801392, 4.78575, 1.4427481, 4.78575, 0.2442748, 4.78575, -3.5725191
0.5638235, -0.0253452, 4.7925, -0.0023804, 4.7925, -1.0025635, 4.7925, -0.083313, 4.7925, 1.351145, 4.7925, 0.2671756, 4.7925, -3.389313
0.5646176, -0.0270237, 4.79925, -0.0022583, 4.79925, -1.0072021, 4.79925, -0.0818481, 4.79925, 1.2366412, 4.79925, 0.3969466, 4.79925, -3.3664122
0.5654118, -0.0231632, 4.806, -0.0009155, 4.806, -1.0079956, 4.806, -0.085022, 4.806, 1.1068702, 4.806, 0.4274809, 4.806, -3.4427481
0.5662059, -0.0171206, 4.81275, -0.0033569, 4.81275, -1.007019, 4.81275, -0.0817871, 4.81275, 1.2977099, 4.81275, 0.2671756, 4.81275, -3.4274809
0.567, -0.0193027, 4.8195, -0.0040894, 4.8195, -1.0087891, 4.8195, -0.0822754, 4.8195, 1.1603054, 4.8195, 0.3206107, 4.8195, -3.5038168
0.5677941, -0.0203098, 4.82625, -0.0063477, 4.82625, -1.0084839, 4.82625, -0.0847778, 4.82625, 1.5725191, 4.82625, 0.5877863, 4.82625, -3.519084
0.5685882, -0.0199741, 4.833, -0.0083618, 4.833, -1.0082397, 4.833, -0.0842896, 4.833, 1.389313, 4.833, 0.8015267, 4.833, -3.351145
0.5693824, -0.0171206, 4.83975, -0.0075684, 4.83975, -1.0079956, 4.83975, -0.0843506, 4.83975, 1.5572519, 4.83975, 0.7480916, 4.83975, -3.3664122
0.5701765, -0.0102388, 4.8465, -0.0102539, 4.8465, -1.0059814, 4.8465, -0.0879517, 4.8465, 1.6412214, 4.8465, 0.7175573, 4.8465, -3.5496182
0.5709706, -0.0077211, 4.85325, -0.0115356, 4.85325, -1.0042114, 4.85325, -0.0906372, 4.85325, 1.4198474, 4.85325, 0.7099237, 4.85325, -3.3969467
0.5717647, -0.0078889, 4.86, -0.0117798, 4.86, -1.0045166, 4.86, -0.0894775, 4.86, 1.5496184, 4.86, 0.6946565, 4.86, -3.4045801
0.5725588, -0.0085603, 4.86675, -0.0101929, 4.86675, -1.0080566, 4.86675, -0.0879517, 4.86675, 1.6183206, 4.86675, 0.4198473, 4.86675, -3.3664122
0.5733529, -0.0048676, 4.8735, -0.0061035, 4.8735, -1.0077515, 4.8735, -0.0854492, 4.8735, 1.6259542, 4.8735, 0.2900763, 4.8735, -3.4045801
0.5741471, -0.0072175, 4.88025, -0.0042114, 4.88025, -1.0037231, 4.88025, -0.0879517, 4.88025, 1.6183206, 4.88025, 0.351145, 4.88025, -3.4961832
0.5749412, -0.0130922, 4.887, -0.0026855, 4.887, -1.0067749, 4.887, -0.0927734, 4.887, 1.4351145, 4.887, 0.519084, 4.887, -3.4961832
0.5757353, -0.0166171, 4.89375, -0.0039062, 4.89375, -1.0106201, 4.89375, -0.086731, 4.89375, 1.1755725, 4.89375, 0.7633588, 4.89375, -3.3969467
0.5765294, -0.0209812, 4.9005, -0.0001221, 4.9005, -1.0068359, 4.9005, -0.0877686, 4.9005, 0.9923664, 4.9005, 0.6641222, 4.9005, -3.2366412
0.5773235, -0.0172885, 4.90725, -0.0037842, 4.90725, -1.0047607, 4.90725, -0.0803833, 4.90725, 0.9847328, 4.90725, 0.5877863, 4.90725, -3.3664122
0.5781176, -0.0112459, 4.914, -0.0037842, 4.914, -1.0064697, 4.914, -0.081665, 4.914, 1.1908396, 4.914, 0.8015267, 4.914, -3.4045801
0.5789118, -0.0075532, 4.92075, -0.0042725, 4.92075, -1.0050049, 4.92075, -0.0866699, 4.92075, 1.1603054, 4.92075, 0.8473282, 4.92075, -3.4885497
0.5797059, -0.0031891, 4.9275, -0.0048218, 4.9275, -1.0041504, 4.9275, -0.0856323, 4.9275, 1.221374, 4.9275, 0.8167939, 4.9275, -3.3358779
0.5805, -0.0038605, 4.93425, -0.0031738, 4.93425, -1.0065918, 4.93425, -0.085144, 4.93425, 1.038168, 4.93425, 0.7938932, 4.93425, -3.4503818
0.5812941, -0.0062104, 4.941, -0.006958, 4.941, -1.0074463, 4.941, -0.0845947, 4.941, 1.2900764, 4.941, 0.8167939, 4.941, -3.2977099
0.5820882, -0.012253, 4.94775, -0.0082397, 4.94775, -1.0056763, 4.94775, -0.083252, 4.94775, 1.2977099, 4.94775, 0.8549618, 4.94775, -3.2900763
0.5828824, -0.01561, 4.9545, -0.0128174, 4.9545, -1.0074463, 4.9545, -0.0844727, 4.9545, 1.2671756, 4.9545, 1.038168, 4.9545, -3.3282442
0.5836765, -0.0206455, 4.96125, -0.008606, 4.96125, -1.0061646, 4.96125, -0.0827026, 4.96125, 1.129771, 4.96125, 0.8625954, 4.96125, -3.3969467
0.5844706, -0.0305486, 4.968, -0.0079956, 4.968, -1.0056152, 4.968, -0.0853882, 4.968, 1.2824427, 4.968, 0.8625954, 4.968, -3.3358779
0.5852647, -0.0290379, 4.97475, -0.0048218, 4.97475, -1.0042725, 4.97475, -0.0864258, 4.97475, 1.4503816, 4.97475, 0.7022901, 4.97475, -3.4351146
0.5860588, -0.021149, 4.9815, -0.0057373, 4.9815, -1.0060425, 4.9815, -0.0855103, 4.9815, 1.389313, 4.9815, 0.4045801, 4.9815, -3.351145
0.5868529, -0.0149386, 4.98825, -0.0032959, 4.98825, -1.010437, 4.98825, -0.0839233, 4.98825, 1.4656489, 4.98825, 0.5267175, 4.98825, -3.4503818
0.5876471, -0.0112459, 4.995, -0.0021973, 4.995, -1.0111694, 4.995, -0.0841675, 4.995, 1.4885496, 4.995, 0.610687, 4.995, -3.4198472
0.5884412, -0.0068818, 5.00175, 0.0001831, 5.00175, -1.0115356, 5.00175, -0.0891113, 5.00175, 1.4427481, 5.00175, 1.0229008, 5.00175, -3.1603053
0.5892353, -0.0068818, 5.0085, 0.0009766, 5.0085, -1.0123291, 5.0085, -0.0898438, 5.0085, 1.2061069, 5.0085, 1.1832061, 5.0085, -3.2137403
0.5900294, -0.0102388, 5.01525, -0.0003052, 5.01525, -1.0097046, 5.01525, -0.0906372, 5.01525, 1.6412214, 5.01525, 1.0610687, 5.01525, -3.2366412
0.5908235, -0.0072175, 5.022, -0.0010986, 5.022, -1.0068359, 5.022, -0.0883789, 5.022, 1.7862595, 5.022, 0.8167939, 5.022, -3.1068702
0.5916176, -0.0078889, 5.02875, -0.0043945, 5.02875, -1.0081787, 5.02875, -0.0888672, 5.02875, 1.6717557, 5.02875, 0.7022901, 5.02875, -3.1679389
0.5924118, -0.0099031, 5.0355, -0.007019, 5.0355, -1.0078125, 5.0355, -0.0855103, 5.0355, 1.740458, 5.0355, 0.7938932, 5.0355, -3.259542
0.5932059, -0.0102388, 5.04225, -0.0048218, 5.04225, -1.0068359, 5.04225, -0.0843506, 5.04225, 1.9236641, 5.04225, 0.5954198, 5.04225, -3.129771
0.594, -0.0109102, 5.049, -0.0038452, 5.049, -1.0060425, 5.049, -0.0845947, 5.049, 1.961832, 5.049, 0.6183206, 5.049, -3.2671757
0.5947941, -0.0135958, 5.05575, -0.005249, 5.05575, -1.0053711, 5.05575, -0.0864868, 5.05575, 1.740458, 5.05575, 0.648855, 5.05575, -3.3053436
0.5955882, -0.0176242, 5.0625, -0.0048218, 5.0625, -1.0073853, 5.0625, -0.0858154, 5.0625, 1.9847329, 5.0625, 0.4961832, 5.0625, -3.2824428
0.5963824, -0.0179599, 5.06925, -0.0042725, 5.06925, -1.005188, 5.06925, -0.0812988, 5.06925, 1.8931298, 5.06925, 0.4045801, 5.06925, -3.0992367
0.5971765, -0.0172885, 5.076, -0.0032959, 5.076, -1.005188, 5.076, -0.0821533, 5.076, 1.7328244, 5.076, 0.7633588, 5.076, -3.1679389
0.5979706, -0.0169528, 5.08275, -0.0043335, 5.08275, -1.0094604, 5.08275, -0.0828857, 5.08275, 1.908397, 5.08275, 0.961832, 5.08275, -3.091603
0.5987647, -0.0157778, 5.0895, -0.0036011, 5.0895, -1.0080566, 5.0895, -0.086731, 5.0895, 1.8244275, 5.0895, 0.9847328, 5.0895, -3
0.5995588, -0.0182956, 5.09625, -0.0056152, 5.09625, -1.0087891, 5.09625, -0.0889282, 5.09625, 1.480916, 5.09625, 0.8931298, 5.09625, -3.0839694
0.6003529, -0.0157778, 5.103, -0.0080566, 5.103, -1.0073853, 5.103, -0.0897827, 5.103, 1.3435115, 5.103, 0.8625954, 5.103, -3.1450381
0.6011471, -0.0152743, 5.10975, -0.010376, 5.10975, -1.010376, 5.10975, -0.0872192, 5.10975, 1.5419847, 5.10975, 0.9160305, 5.10975, -2.8015268
0.6019412, -0.014435, 5.1165, -0.0115967, 5.1165, -1.0078735, 5.1165, -0.0846558, 5.1165, 1.7099236, 5.1165, 0.8931298, 5.1165, -2.7480917
0.6027353, -0.012253, 5.12325, -0.0075073, 5.12325, -1.0057373, 5.12325, -0.0855103, 5.12325, 1.6870229, 5.12325, 0.778626, 5.12325, -3.038168
0.6035294, -0.0149386, 5.13, -0.008728, 5.13, -1.0060425, 5.13, -0.0838013, 5.13, 1.8015267, 5.13, 0.4351145, 5.13, -3.1908398
0.6043235, -0.0151064, 5.13675, -0.0073242, 5.13675, -1.0046997, 5.13675, -0.0830688, 5.13675, 1.5419847, 5.13675, 0.2442748, 5.13675, -3.1984732
0.6051176, -0.0129244, 5.1435, -0.0046387, 5.1435, -1.0043945, 5.1435, -0.0773926, 5.1435, 1.3435115, 5.1435, 0.0458015, 5.1435, -3.0229008
0.6059118, -0.0092317, 5.15025, -0.0022583, 5.15025, -1.0101318, 5.15025, -0.0753784, 5.15025, 1.3206106, 5.15025, 0.1450382, 5.15025, -3.2061069
0.6067059, -0.0077211, 5.157, -0.0029907, 5.157, -1.0062866, 5.157, -0.0772095, 5.157, 1.5267175, 5.157, 0.389313, 5.157, -3.1068702
0.6075, -0.0062104, 5.16375, -0.0016479, 5.16375, -1.0046387, 5.16375, -0.0801392, 5.16375, 1.3587786, 5.16375, 0.7557252, 5.16375, -3.2442749
0.6082941, -0.0082246, 5.1705, -0.0060425, 5.1705, -1.0072632, 5.1705, -0.0809326, 5.1705, 1.2137405, 5.1705, 1.1755725, 5.1705, -3.0687022
0.6090882, -0.008896, 5.17725, -0.0040894, 5.17725, -1.0039673, 5.17725, -0.0811157, 5.17725, 1.3358779, 5.17725, 1.3282443, 5.17725, -3.0152671
0.6098824, -0.0109102, 5.184, -0.0056152, 5.184, -1.0036621, 5.184, -0.0820312, 5.184, 1.1450381, 5.184, 1.0229008, 5.184, -3.1374047
0.6106765, -0.0182956, 5.19075, -0.0093384, 5.19075, -1.0022583, 5.19075, -0.0875244, 5.19075, 1.221374, 5.19075, 1.1450381, 5.19075, -3.1755726
0.6114706, -0.0193027, 5.1975, -0.0114746, 5.1975, -1.0024414, 5.1975, -0.0853882, 5.1975, 1.259542, 5.1975, 0.8473282, 5.1975, -3.0992367
0.6122647, -0.0176242, 5.20425, -0.0134888, 5.20425, -1.0054932, 5.20425, -0.0845947, 5.20425, 1.2519084, 5.20425, 0.6412213, 5.20425, -3.221374
0.6130588, -0.0176242, 5.211, -0.0131226, 5.211, -1.0088501, 5.211, -0.0866699, 5.211, 1.351145, 5.211, 0.6412213, 5.211, -3.2366412
0.6138529, -0.0135958, 5.21775, -0.0098877, 5.21775, -1.0055542, 5.21775, -0.0848999, 5.21775, 1.0229008, 5.21775, 0.4503817, 5.21775, -3.0763359
0.6146471, -0.0135958, 5.2245, -0.0061035, 5.2245, -1.0056763, 5.2245, -0.0825195, 5.2245, 1.1832061, 5.2245, 0.3664122, 5.2245, -3
0.6154412, -0.01561, 5.23125, -0.0059204, 5.23125, -1.0072021, 5.23125, -0.0834351, 5.23125, 1.2061069, 5.23125, 0.4885496, 5.23125, -3.0534351
0.6162353, -0.0161135, 5.238, -0.0001221, 5.238, -1.0130615, 5.238, -0.0838623, 5.238, 1.0763359, 5.238, 0.4351145, 5.238, -2.9541984
0.6170294, -0.0193027, 5.24475, 0, 5.24475, -1.0089722, 5.24475, -0.0820923, 5.24475, 1.2366412, 5.24475, 0.5801527, 5.24475, -3.0763359
0.6178235, -0.0206455, 5.2515, -0.0015869, 5.2515, -1.0079346, 5.2515, -0.0822144, 5.2515, 1.2290076, 5.2515, 0.4503817, 5.2515, -3.3206108
0.6186176, -0.0182956, 5.25825, -0.0023804, 5.25825, -1.008606, 5.25825, -0.0829468, 5.25825, 1.2061069, 5.25825, 0.519084, 5.25825, -3.2442749
0.6194118, -0.0216526, 5.265, -0.0038452, 5.265, -1.0071411, 5.265, -0.0830078, 5.265, 1.1679389, 5.265, 0.7938932, 5.265, -3.1832061
0.6202059, -0.0260166, 5.27175, -0.0067749, 5.27175, -1.005188, 5.27175, -0.0863037, 5.27175, 1.1984733, 5.27175, 0.6717557, 5.27175, -3.0305343
0.621, -0.0223239, 5.2785, -0.0101318, 5.2785, -1.0073242, 5.2785, -0.083374, 5.2785, 1.129771, 5.2785, 0.8091603, 5.2785, -3.0839694
0.6217941, -0.0203098, 5.28525, -0.0116577, 5.28525, -1.0060425, 5.28525, -0.0840454, 5.28525, 1.129771, 5.28525, 0.7709923, 5.28525, -3.3664122
0.6225882, -0.0216526, 5.292, -0.0127563, 5.292, -1.0085449, 5.292, -0.0848999, 5.292, 1.2366412, 5.292, 0.3206107, 5.292, -3.1221373
0.6233824, -0.0162814, 5.29875, -0.0176392, 5.29875, -1.0081177, 5.29875, -0.0836182, 5.29875, 1.1755725, 5.29875, 0.2671756, 5.29875, -3.2671757
0.6241765, -0.0127565, 5.3055, -0.0166626, 5.3055, -1.0053711, 5.3055, -0.0863037, 5.3055, 0.8931298, 5.3055, 0.1221374, 5.3055, -3.1908398
0.6249706, -0.0151064, 5.31225, -0.0098267, 5.31225, -1.0039673, 5.31225, -0.0838623, 5.31225, 0.9389313, 5.31225, 0.4045801, 5.31225, -2.9694657
0.6257647, -0.0152743, 5.319, -0.0078735, 5.319, -1.0021973, 5.319, -0.0864868, 5.319, 0.9007633, 5.319, 0.2671756, 5.319, -3.1526718
0.6265588, -0.0149386, 5.32575, -0.005249, 5.32575, -1.0047607, 5.32575, -0.0881958, 5.32575, 0.9160305, 5.32575, 0.1145038, 5.32575, -3.0839694
0.6273529, -0.0135958, 5.3325, -0.0079956, 5.3325, -1.0092163, 5.3325, -0.0855713, 5.3325, 0.9465649, 5.3325, 0.1374046, 5.3325, -3.1603053
0.6281471, -0.0129244, 5.33925, -0.0039062, 5.33925, -1.0119019, 5.33925, -0.0830688, 5.33925, 1.0458015, 5.33925, 0.0610687, 5.33925, -3.2519083
0.6289412, -0.0142672, 5.346, -0.0001831, 5.346, -1.0081177, 5.346, -0.0793457, 5.346, 1.2061069, 5.346, 0.4122137, 5.346, -3.351145
0.6297353, -0.0107424, 5.35275, 0.0018921, 5.35275, -1.0081177, 5.35275, -0.0825195, 5.35275, 1.129771, 5.35275, 0.5877863, 5.35275, -3.2442749
0.6305294, -0.0095674, 5.3595, 0.0005493, 5.3595, -1.0068359, 5.3595, -0.0855713, 5.3595, 1.1679389, 5.3595, 0.6641222, 5.3595, -3.2748091
0.6313235, -0.0075532, 5.36625, -0.0007935, 5.36625, -1.0057983, 5.36625, -0.0849609, 5.36625, 1.1145039, 5.36625, 0.8778626, 5.36625, -3.1526718
0.6321176, -0.0132601, 5.373, -0.0056152, 5.373, -1.0065308, 5.373, -0.0828247, 5.373, 1.2900764, 5.373, 0.7175573, 5.373, -3.1679389
0.6329118, -0.0179599, 5.37975, -0.0074463, 5.37975, -1.0043335, 5.37975, -0.0845337, 5.37975, 1.389313, 5.37975, 0.9389313, 5.37975, -3.0839694
0.6337059, -0.0196384, 5.3865, -0.0091553, 5.3865, -1.0061035, 5.3865, -0.0858154, 5.3865, 1.2824427, 5.3865, 0.6946565, 5.3865, -3.221374
0.6345, -0.0226596, 5.39325, -0.0126953, 5.39325, -1.0072021, 5.39325, -0.0839233, 5.39325, 1.2671756, 5.39325, 0.6946565, 5.39325, -3.1145039
0.6352941, -0.0209812, 5.4, -0.0142822, 5.4, -1.0112305, 5.4, -0.0859375, 5.4, 1.3206106, 5.4, 0.6564885, 5.4, -3.3358779
0.6360882, -0.0198062, 5.40675, -0.0115356, 5.40675, -1.0109253, 5.40675, -0.0865479, 5.40675, 1.3435115, 5.40675, 0.5801527, 5.40675, -3.3587787
0.6368824, -0.0162814, 5.4135, -0.0067749, 5.4135, -1.007019, 5.4135, -0.0805054, 5.4135, 1.351145, 5.4135, 0.3053435, 5.4135, -3.2519083
0.6376765, -0.0135958, 5.42025, -0.0014038, 5.42025, -1.0076294, 5.42025, -0.0881348, 5.42025, 1.3740458, 5.42025, 0.3664122, 5.42025, -3.2900763
0.6384706, -0.0119173, 5.427, -0.0061646, 5.427, -1.0071411, 5.427, -0.085022, 5.427, 1.3816794, 5.427, 0.1908397, 5.427, -3.2977099
0.6392647, -0.0112459, 5.43375, -0.0031128, 5.43375, -1.006958, 5.43375, -0.088623, 5.43375, 1.2900764, 5.43375, 0.5877863, 5.43375, -3.3206108
0.6400588, -0.01561, 5.4405, -0.0059814, 5.4405, -1.0089111, 5.4405, -0.0829468, 5.4405, 1.3282443, 5.4405, 0.6717557, 5.4405, -3.1221373
0.6408529, -0.0149386, 5.44725, -0.0032959, 5.44725, -1.0075073, 5.44725, -0.0856934, 5.44725, 1.1984733, 5.44725, 0.7251908, 5.44725, -3.2442749
0.6416471, -0.0130922, 5.454, -0.0037231, 5.454, -1.0091553, 5.454, -0.0843506, 5.454, 1.1221374, 5.454, 0.9312977, 5.454, -3.1603053
0.6424412, -0.0129244, 5.46075, -0.0084839, 5.46075, -1.0084229, 5.46075, -0.0853271, 5.46075, 1.1221374, 5.46075, 1.0763359, 5.46075, -3.129771
0.6432353, -0.0085603, 5.4675, -0.0120239, 5.4675, -1.0084229, 5.4675, -0.0881958, 5.4675, 1.2442749, 5.4675, 0.8931298, 5.4675, -3.091603
0.6440294, -0.0105745, 5.47425, -0.0067139, 5.47425, -1.0030518, 5.47425, -0.0872192, 5.47425, 1.3587786, 5.47425, 0.4961832, 5.47425, -3.1145039
0.6448235, -0.0135958, 5.481, -0.0065918, 5.481, -1.00354, 5.481, -0.0838623, 5.481, 1.1832061, 5.481, 0.6030535, 5.481, -3.221374
0.6456176, -0.0135958, 5.48775, -0.0065918, 5.48775, -1.003418, 5.48775, -0.0831299, 5.48775, 1.0229008, 5.48775, 0.5496183, 5.48775, -3.1068702
0.6464118, -0.0129244, 5.4945, -0.0043335, 5.4945, -1.0088501, 5.4945, -0.0828247, 5.4945, 1.1450381, 5.4945, 0.519084, 5.4945, -3.2290077
0.6472059, -0.0119173, 5.50125, -0.0064697, 5.50125, -1.0095825, 5.50125, -0.0822144, 5.50125, 1.1374046, 5.50125, 0.6564885, 5.50125, -3.1679389
0.648, -0.0139315, 5.508, -0.0049438, 5.508, -1.0056763, 5.508, -0.0836182, 5.508, 1.0610687, 5.508, 0.8091603, 5.508, -3.0610688
0.6487941, -0.0176242, 5.51475, -0.0073853, 5.51475, -1.0077515, 5.51475, -0.0814819, 5.51475, 1.0610687, 5.51475, 1.0076336, 5.51475, -3.1145039
0.6495882, -0.0119173, 5.5215, -0.0097656, 5.5215, -1.010498, 5.5215, -0.0835571, 5.5215, 1.0458015, 5.5215, 0.8931298, 5.5215, -3.4351146
0.6503824, -0.0132601, 5.52825, -0.010437, 5.52825, -1.0107422, 5.52825, -0.0852661, 5.52825, 1.0610687, 5.52825, 0.7480916, 5.52825, -3.091603
0.6511765, -0.0149386, 5.535, -0.0109253, 5.535, -1.0099487, 5.535, -0.0831909, 5.535, 0.7862595, 5.535, 0.9465649, 5.535, -3.1908398
0.6519706, -0.0139315, 5.54175, -0.0059204, 5.54175, -1.0070801, 5.54175, -0.0825195, 5.54175, 0.9389313, 5.54175, 0.7938932, 5.54175, -3.1603053
0.6527647, -0.0151064, 5.5485, -0.0039062, 5.5485, -1.0059204, 5.5485, -0.0852051, 5.5485, 1.0610687, 5.5485, 0.6793893, 5.5485, -3.2824428
0.6535588, -0.0146029, 5.55525, -0.0031738, 5.55525, -1.0084839, 5.55525, -0.0854492, 5.55525, 0.8931298, 5.55525, 0.778626, 5.55525, -3.2061069
0.6543529, -0.0149386, 5.562, -0.0038452, 5.562, -1.0074463, 5.562, -0.0864868, 5.562, 1.2824427, 5.562, 0.6717557, 5.562, -3.1679389
0.6551471, -0.0132601, 5.56875, -0.0068359, 5.56875, -1.0095215, 5.56875, -0.0823975, 5.56875, 1.3587786, 5.56875, 0.740458, 5.56875, -3.2519083
0.6559412, -0.0075532, 5.5755, -0.0097656, 5.5755, -1.0065918, 5.5755, -0.0844727, 5.5755, 1.3053435, 5.5755, 0.9465649, 5.5755, -3.2977099
0.6567353, -0.0031891, 5.58225, -0.0108032, 5.58225, -1.0081787, 5.58225, -0.0814819, 5.58225, 1.2748091, 5.58225, 0.7099237, 5.58225, -3.1221373
0.6575294, -0.0038605, 5.589, -0.0124512, 5.589, -1.0037231, 5.589, -0.0817261, 5.589, 1.2671756, 5.589, 0.6870229, 5.589, -3.2519083
0.6583235, -0.0052033, 5.59575, -0.0078735, 5.59575, -1.0048218, 5.59575, -0.0803833, 5.59575, 1.3664122, 5.59575, 0.610687, 5.59575, -3.3206108
0.6591176, -0.0082246, 5.6025, -0.0070801, 5.6025, -1.0056763, 5.6025, -0.0817261, 5.6025, 1.3664122, 5.6025, 0.4122137, 5.6025, -3.259542
0.6599118, -0.0077211, 5.60925, -0.006958, 5.60925, -1.0071411, 5.60925, -0.0826416, 5.60925, 1.1679389, 5.60925, 0.3587786, 5.60925, -3.351145
0.6607059, -0.0124208, 5.616, -0.0066528, 5.616, -1.0075684, 5.616, -0.0808105, 5.616, 1.1603054, 5.616, 0.259542, 5.616, -3.351145
0.6615, -0.0137636, 5.62275, -0.0055542, 5.62275, -1.0075684, 5.62275, -0.0775757, 5.62275, 1.3053435, 5.62275, 0.2137405, 5.62275, -3.2748091
0.6622941, -0.0135958, 5.6295, -0.0045166, 5.6295, -1.0036621, 5.6295, -0.081604, 5.6295, 1.1832061, 5.6295, 0.5572519, 5.6295, -3.2137403
0.6630882, -0.0132601, 5.63625, -0.0036621, 5.63625, -1.0072021, 5.63625, -0.0838623, 5.63625, 1.1984733, 5.63625, 0.7175573, 5.63625, -3.1145039
0.6638824, -0.0151064, 5.643, -0.0056152, 5.643, -1.0064697, 5.643, -0.0820923, 5.643, 1.1145039, 5.643, 0.8015267, 5.643, -3.1755726
0.6646765, -0.0109102, 5.64975, -0.0048218, 5.64975, -1.008606, 5.64975, -0.0840454, 5.64975, 1.3358779, 5.64975, 0.5496183, 5.64975, -3.2824428
0.6654706, -0.0104067, 5.6565, -0.0039062, 5.6565, -1.0076294, 5.6565, -0.0855713, 5.6565, 1.221374, 5.6565, 0.6259542, 5.6565, -3.259542
0.6662647, -0.0172885, 5.66325, -0.0037231, 5.66325, -1.0079346, 5.66325, -0.0878296, 5.66325, 1.3053435, 5.66325, 0.6641222, 5.66325, -3.3435113
0.6670588, -0.0172885, 5.67, -0.003418, 5.67, -1.0057983, 5.67, -0.0856934, 5.67, 1.1450381, 5.67, 0.6870229, 5.67, -3.2137403
0.6678529, -0.017792, 5.67675, -0.0039673, 5.67675, -1.0095825, 5.67675, -0.0808105, 5.67675, 1.1450381, 5.67675, 0.5648855, 5.67675, -3.1984732
0.6686471, -0.0139315, 5.6835, -0.0054932, 5.6835, -1.0087891, 5.6835, -0.0795898, 5.6835, 1.2366412, 5.6835, 0.6412213, 5.6835, -3.1984732
0.6694412, -0.0149386, 5.69025, -0.0062866, 5.69025, -1.008667, 5.69025, -0.0819092, 5.69025, 1.351145, 5.69025, 0.7633588, 5.69025, -3.2748091
0.6702353, -0.0186313, 5.697, -0.0066528, 5.697, -1.0053711, 5.697, -0.085022, 5.697, 1.4503816, 5.697, 0.8931298, 5.697, -3.2824428
0.6710294, -0.0206455, 5.70375, -0.008667, 5.70375, -1.0061646, 5.70375, -0.0852051, 5.70375, 1.4122137, 5.70375, 0.9389313, 5.70375, -3.1603053
0.6718235, -0.0184634, 5.7105, -0.007019, 5.7105, -1.0084229, 5.7105, -0.083374, 5.7105, 1.3664122, 5.7105, 1.0305344, 5.7105, -3.2442749
0.6726176, -0.0203098, 5.71725, -0.0078125, 5.71725, -1.0076294, 5.71725, -0.0825195, 5.71725, 1.351145, 5.71725, 0.7709923, 5.71725, -3.1908398
0.6734118, -0.0176242, 5.724, -0.0084229, 5.724, -1.0097656, 5.724, -0.0814819, 5.724, 1.3435115, 5.724, 0.5267175, 5.724, -3.3664122
0.6742059, -0.0130922, 5.73075, -0.0081177, 5.73075, -1.0048218, 5.73075, -0.0778198, 5.73075, 1.9389313, 5.73075, 0.6564885, 5.73075, -3.1526718
0.675, -0.0125887, 5.7375, -0.0095825, 5.7375, -1.0020142, 5.7375, -0.081543, 5.7375, 1.648855, 5.7375, 0.8778626, 5.7375, -3.259542
