Application:, Trigno Discover (1.7.0)
Date/Time:, 2026/9/9 下午 12:05:40
Collection Length (seconds):, 43.146
Avanti Sensor 11 (69574)
sensor mode: 50
EMG 1 Time Series (s), EMG 1 (mV), ACC X Time Series (s), ACC X (G), ACC Y Time Series (s), ACC Y (G), ACC Z Time Series (s), ACC Z (G), GYRO X Time Series (s), GYRO X (deg/s), GYRO Y Time Series (s), GYRO Y (deg/s), GYRO Z Time Series (s), GYRO Z (deg/s)
, 1259.2593 Hz, , 148.1481 Hz, , 148.1481 Hz, , 148.1481 Hz, , 148.1481 Hz, , 148.1481 Hz, , 148.1481 Hz
0, -0.0135958, 0, -0.0889893, 0, -0.9612427, 0, -0.374939, 0, 0.5419847, 0, 0.9160305, 0, -2.8091602
0.0007941, -0.0135958, 0.00675, -0.0918579, 0.00675, -0.9586792, 0.00675, -0.3771973, 0.00675, 0.5954198, 0.00675, 0.8320611, 0.00675, -2.8625953
0.0015882, -0.0115816, 0.0135, -0.0907593, 0.0135, -0.9598999, 0.0135, -0.3761597, 0.0135, 0.4656489, 0.0135, 0.8778626, 0.0135, -2.9007633
0.0023824, -0.0115816, 0.02025, -0.0904541, 0.02025, -0.9595947, 0.02025, -0.3787842, 0.02025, 0.4427481, 0.02025, 0.8167939, 0.02025, -2.778626
0.0031765, -0.012253, 0.027, -0.0895386, 0.027, -0.9608154, 0.027, -0.3779907, 0.027, 0.5648855, 0.027, 0.8320611, 0.027, -3.0076337
0.0039706, -0.0109102, 0.03375, -0.0896606, 0.03375, -0.9594116, 0.03375, -0.3818359, 0.03375, 0.519084, 0.03375, 0.7251908, 0.03375, -2.9541984
0.0047647, -0.0105745, 0.0405, -0.0905151, 0.0405, -0.9594727, 0.0405, -0.3865356, 0.0405, 0.6641222, 0.0405, 0.7099237, 0.0405, -3.038168
0.0055588, -0.0102388, 0.04725, -0.0884399, 0.04725, -0.9587402, 0.04725, -0.3857422, 0.04725, 0.7175573, 0.04725, 0.7938932, 0.04725, -2.7862597
0.0063529, -0.0112459, 0.054, -0.0896606, 0.054, -0.9602051, 0.054, -0.3851929, 0.054, 0.6717557, 0.054, 0.8473282, 0.054, -2.8396947
0.0071471, -0.0072175, 0.06075, -0.086853, 0.06075, -0.9598389, 0.06075, -0.3842163, 0.06075, 0.6564885, 0.06075, 1.0763359, 0.06075, -2.870229
0.0079412, -0.0112459, 0.0675, -0.0856323, 0.0675, -0.9581299, 0.0675, -0.3872681, 0.0675, 0.5954198, 0.0675, 1.1832061, 0.0675, -2.6335878
0.0087353, -0.0142672, 0.07425, -0.0878906, 0.07425, -0.9644165, 0.07425, -0.3807373, 0.07425, 0.5038168, 0.07425, 1.5343511, 0.07425, -2.5267177
0.0095294, -0.0135958, 0.081, -0.090332, 0.081, -0.9674683, 0.081, -0.3766479, 0.081, 0.9847328, 0.081, 1.8396946, 0.081, -2.6030533
0.0103235, -0.0159457, 0.08775, -0.0999756, 0.08775, -0.9569092, 0.08775, -0.3900757, 0.08775, 1.0610687, 0.08775, 0.7938932, 0.08775, -2.8625953
0.0111176, -0.0166171, 0.0945, -0.1005859, 0.0945, -0.9558716, 0.0945, -0.394104, 0.0945, 0.8625954, 0.0945, -0.1221374, 0.0945, -2.8625953
0.0119118, -0.01561, 0.10125, -0.0994873, 0.10125, -0.9536133, 0.10125, -0.3889771, 0.10125, 0.9160305, 0.10125, 0.1603053, 0.10125, -2.8244274
0.0127059, -0.0164492, 0.108, -0.1002197, 0.108, -0.9578247, 0.108, -0.3845825, 0.108, 1, 0.108, 0.7328244, 0.108, -2.8931298
0.0135, -0.0191348, 0.11475, -0.0948486, 0.11475, -0.9607544, 0.11475, -0.3919067, 0.11475, 1.0687023, 0.11475, 0.908397, 0.11475, -3.1832061
0.0142941, -0.018967, 0.1215, -0.0944214, 0.1215, -0.9594727, 0.1215, -0.3905029, 0.1215, 1.4198474, 0.1215, 0.8091603, 0.1215, -3.1526718
0.0150882, -0.0216526, 0.12825, -0.0910645, 0.12825, -0.9588013, 0.12825, -0.3878784, 0.12825, 1.6412214, 0.12825, 0.778626, 0.12825, -3.1145039
0.0158824, -0.0219883, 0.135, -0.0917358, 0.135, -0.9575806, 0.135, -0.3865967, 0.135, 1.740458, 0.135, 0.5801527, 0.135, -3.1908398
0.0166765, -0.018967, 0.14175, -0.0904541, 0.14175, -0.9577026, 0.14175, -0.3867798, 0.14175, 1.5038168, 0.14175, 0.7480916, 0.14175, -3.3969467
0.0174706, -0.0169528, 0.1485, -0.0922241, 0.1485, -0.961853, 0.1485, -0.3856201, 0.1485, 1.5419847, 0.1485, 1.0687023, 0.1485, -3.3129771
0.0182647, -0.0157778, 0.15525, -0.0929565, 0.15525, -0.9613037, 0.15525, -0.3838501, 0.15525, 1.8091604, 0.15525, 1.2442749, 0.15525, -3.1603053
0.0190588, -0.0169528, 0.162, -0.0903931, 0.162, -0.9596558, 0.162, -0.3788452, 0.162, 1.6259542, 0.162, 1.259542, 0.162, -3.3053436
0.0198529, -0.0169528, 0.16875, -0.0934448, 0.16875, -0.9623413, 0.16875, -0.3774414, 0.16875, 1.778626, 0.16875, 1.1374046, 0.16875, -3.2137403
0.0206471, -0.0179599, 0.1755, -0.0944214, 0.1755, -0.9593506, 0.1755, -0.3754272, 0.1755, 1.7175573, 0.1755, 0.9465649, 0.1755, -3.3969467
0.0214412, -0.0196384, 0.18225, -0.0938721, 0.18225, -0.9595947, 0.18225, -0.3734741, 0.18225, 1.7099236, 0.18225, 0.9312977, 0.18225, -3.1526718
0.0222353, -0.018967, 0.189, -0.0916748, 0.189, -0.9573364, 0.189, -0.3762207, 0.189, 1.7251909, 0.189, 0.9312977, 0.189, -3.2748091
0.0230294, -0.0199741, 0.19575, -0.0910034, 0.19575, -0.9577026, 0.19575, -0.3789673, 0.19575, 1.8396946, 0.19575, 1.0076336, 0.19575, -3.1679389
0.0238235, -0.0139315, 0.2025, -0.0910034, 0.2025, -0.9588013, 0.2025, -0.3781738, 0.2025, 1.7480916, 0.2025, 0.8931298, 0.2025, -3.519084
0.0246176, -0.0152743, 0.20925, -0.0908203, 0.20925, -0.958252, 0.20925, -0.3740234, 0.20925, 1.5954199, 0.20925, 0.7557252, 0.20925, -3.2366412
0.0254118, -0.0169528, 0.216, -0.0895996, 0.216, -0.9571533, 0.216, -0.3741455, 0.216, 1.5267175, 0.216, 0.9541985, 0.216, -3.2442749
0.0262059, -0.01561, 0.22275, -0.0887451, 0.22275, -0.9589844, 0.22275, -0.3766479, 0.22275, 1.4732825, 0.22275, 0.8015267, 0.22275, -3.0458016
0.027, -0.0179599, 0.2295, -0.0905762, 0.2295, -0.9594727, 0.2295, -0.3796387, 0.2295, 1.2824427, 0.2295, 0.8549618, 0.2295, -3.2061069
0.0277941, -0.0169528, 0.23625, -0.0894775, 0.23625, -0.9572754, 0.23625, -0.3795166, 0.23625, 1.4427481, 0.23625, 0.8167939, 0.23625, -3.2900763
0.0285882, -0.0149386, 0.243, -0.0888672, 0.243, -0.960144, 0.243, -0.3751831, 0.243, 1.3358779, 0.243, 0.8931298, 0.243, -3.221374
0.0293824, -0.0169528, 0.24975, -0.0929565, 0.24975, -0.9587402, 0.24975, -0.3775635, 0.24975, 1.2900764, 0.24975, 0.9770992, 0.24975, -3.1068702
0.0301765, -0.0186313, 0.2565, -0.0939941, 0.2565, -0.9605103, 0.2565, -0.37677, 0.2565, 1.3129771, 0.2565, 0.8625954, 0.2565, -3.1526718
0.0309706, -0.018967, 0.26325, -0.0944214, 0.26325, -0.9611206, 0.26325, -0.3758545, 0.26325, 1.1603054, 0.26325, 0.9160305, 0.26325, -3.1603053
0.0317647, -0.0164492, 0.27, -0.0930176, 0.27, -0.9622192, 0.27, -0.3754272, 0.27, 1.091603, 0.27, 0.7709923, 0.27, -3.2366412
0.0325588, -0.0135958, 0.27675, -0.0928955, 0.27675, -0.9605103, 0.27675, -0.3737793, 0.27675, 1.0305344, 0.27675, 0.4656489, 0.27675, -3.2137403
0.0333529, -0.01561, 0.2835, -0.0939331, 0.2835, -0.9628296, 0.2835, -0.3782959, 0.2835, 0.961832, 0.2835, 0.5648855, 0.2835, -3.2290077
0.0341471, -0.0149386, 0.29025, -0.0911865, 0.29025, -0.9606323, 0.29025, -0.3768921, 0.29025, 0.9236641, 0.29025, 0.4427481, 0.29025, -3.3053436
0.0349412, -0.0125887, 0.297, -0.0899048, 0.297, -0.9591675, 0.297, -0.3790894, 0.297, 0.8854962, 0.297, 0.5114504, 0.297, -3.3587787
0.0357353, -0.0095674, 0.30375, -0.0901489, 0.30375, -0.9625854, 0.30375, -0.3820801, 0.30375, 0.9541985, 0.30375, 0.5648855, 0.30375, -3.1984732
0.0365294, -0.0104067, 0.3105, -0.0909424, 0.3105, -0.9609985, 0.3105, -0.3800049, 0.3105, 0.8320611, 0.3105, 0.6946565, 0.3105, -3.1755726
0.0373235, -0.0085603, 0.31725, -0.0913086, 0.31725, -0.9631348, 0.31725, -0.3817749, 0.31725, 1.0687023, 0.31725, 0.648855, 0.31725, -3.1374047
0.0381176, -0.0075532, 0.324, -0.09198, 0.324, -0.9590454, 0.324, -0.3817749, 0.324, 1.0610687, 0.324, 0.740458, 0.324, -3.2061069
0.0389118, -0.0077211, 0.33075, -0.0930176, 0.33075, -0.9598389, 0.33075, -0.3803101, 0.33075, 1.1068702, 0.33075, 0.8244275, 0.33075, -3.1984732
0.0397059, -0.0093996, 0.3375, -0.0910034, 0.3375, -0.9589844, 0.3375, -0.3831177, 0.3375, 1.0305344, 0.3375, 0.8473282, 0.3375, -3.1526718
0.0405, -0.012253, 0.34425, -0.0921631, 0.34425, -0.9610596, 0.34425, -0.3811646, 0.34425, 1.091603, 0.34425, 0.8854962, 0.34425, -3.1832061
0.0412941, -0.0112459, 0.351, -0.0897827, 0.351, -0.9608154, 0.351, -0.3792114, 0.351, 1.038168, 0.351, 0.8854962, 0.351, -3.1679389
0.0420882, -0.0115816, 0.35775, -0.0904541, 0.35775, -0.9598389, 0.35775, -0.3779907, 0.35775, 1.0534351, 0.35775, 0.8931298, 0.35775, -3.1832061
0.0428824, -0.0115816, 0.3645, -0.0917358, 0.3645, -0.9602661, 0.3645, -0.3808594, 0.3645, 1.1145039, 0.3645, 0.7633588, 0.3645, -3.1679389
0.0436765, -0.0130922, 0.37125, -0.0922852, 0.37125, -0.9561768, 0.37125, -0.3798828, 0.37125, 1.1832061, 0.37125, 0.778626, 0.37125, -3.3206108
0.0444706, -0.0130922, 0.378, -0.0917358, 0.378, -0.9604492, 0.378, -0.3803711, 0.378, 1.1832061, 0.378, 0.6946565, 0.378, -3.3664122
0.0452647, -0.0142672, 0.38475, -0.0935669, 0.38475, -0.960022, 0.38475, -0.3815918, 0.38475, 1.0839695, 0.38475, 0.6335878, 0.38475, -3.2366412
0.0460588, -0.0132601, 0.3915, -0.0934448, 0.3915, -0.9595947, 0.3915, -0.3816528, 0.3915, 1.1984733, 0.3915, 0.5801527, 0.3915, -3.3129771
0.0468529, -0.0142672, 0.39825, -0.09198, 0.39825, -0.9550171, 0.39825, -0.3812256, 0.39825, 1.038168, 0.39825, 0.610687, 0.39825, -3.4656489
0.0476471, -0.0142672, 0.405, -0.090271, 0.405, -0.9560547, 0.405, -0.3841553, 0.405, 1.0992366, 0.405, 0.5648855, 0.405, -3.389313
0.0484412, -0.0129244, 0.41175, -0.0927734, 0.41175, -0.956543, 0.41175, -0.3852539, 0.41175, 1.1526718, 0.41175, 0.5343512, 0.41175, -3.5725191
0.0492353, -0.0139315, 0.4185, -0.0923462, 0.4185, -0.9549561, 0.4185, -0.3822021, 0.4185, 1.0610687, 0.4185, 0.480916, 0.4185, -3.3587787
0.0500294, -0.0169528, 0.42525, -0.0921021, 0.42525, -0.9573975, 0.42525, -0.3817139, 0.42525, 1.259542, 0.42525, 0.5038168, 0.42525, -3.7099237
0.0508235, -0.0149386, 0.432, -0.0926514, 0.432, -0.9603882, 0.432, -0.3803711, 0.432, 1.389313, 0.432, 0.3358779, 0.432, -3.4961832
0.0516176, -0.0130922, 0.43875, -0.0899048, 0.43875, -0.9598999, 0.43875, -0.3816528, 0.43875, 1.1984733, 0.43875, 0.6259542, 0.43875, -3.4198472
0.0524118, -0.0130922, 0.4455, -0.0927124, 0.4455, -0.9644165, 0.4455, -0.380127, 0.4455, 1.2061069, 0.4455, 0.6259542, 0.4455, -3.5496182
0.0532059, -0.0115816, 0.45225, -0.0922852, 0.45225, -0.9630127, 0.45225, -0.3776855, 0.45225, 1.351145, 0.45225, 0.6717557, 0.45225, -3.4961832
0.054, -0.0093996, 0.459, -0.0917358, 0.459, -0.9624023, 0.459, -0.37854, 0.459, 1.2442749, 0.459, 0.5267175, 0.459, -3.4885497
0.0547941, -0.0105745, 0.46575, -0.0946655, 0.46575, -0.9572144, 0.46575, -0.3808594, 0.46575, 1.2519084, 0.46575, 0.2748092, 0.46575, -3.4885497
0.0555882, -0.0102388, 0.4725, -0.0947876, 0.4725, -0.958252, 0.4725, -0.381897, 0.4725, 1.2748091, 0.4725, 0.1908397, 0.4725, -3.6641221
0.0563824, -0.014435, 0.47925, -0.0921631, 0.47925, -0.9594727, 0.47925, -0.3783569, 0.47925, 1.2366412, 0.47925, 0.0458015, 0.47925, -3.4732823
0.0571765, -0.0149386, 0.486, -0.0913696, 0.486, -0.9599609, 0.486, -0.3787231, 0.486, 1.3587786, 0.486, 0.0687023, 0.486, -3.5801528
0.0579706, -0.0157778, 0.49275, -0.0911865, 0.49275, -0.9581299, 0.49275, -0.3771362, 0.49275, 1.4351145, 0.49275, 0.0839695, 0.49275, -3.6946564
0.0587647, -0.0146029, 0.4995, -0.0894775, 0.4995, -0.9589844, 0.4995, -0.3790894, 0.4995, 1.351145, 0.4995, 0.0152672, 0.4995, -3.6259542
0.0595588, -0.0137636, 0.50625, -0.0873413, 0.50625, -0.9589233, 0.50625, -0.378479, 0.50625, 1.3664122, 0.50625, 0.0305344, 0.50625, -3.6870229
0.0603529, -0.0164492, 0.513, -0.0879517, 0.513, -0.9615479, 0.513, -0.3798218, 0.513, 1.4503816, 0.513, 0.0534351, 0.513, -3.6259542
0.0611471, -0.0135958, 0.51975, -0.0879517, 0.51975, -0.9598999, 0.51975, -0.3831177, 0.51975, 1.2366412, 0.51975, 0.2671756, 0.51975, -3.5725191
0.0619412, -0.0152743, 0.5265, -0.0904541, 0.5265, -0.958374, 0.5265, -0.3842163, 0.5265, 1.3358779, 0.5265, 0.5267175, 0.5265, -3.4503818
0.0627353, -0.018967, 0.53325, -0.0892334, 0.53325, -0.9591064, 0.53325, -0.3826294, 0.53325, 1.2748091, 0.53325, 0.5496183, 0.53325, -3.4961832
0.0635294, -0.0182956, 0.54, -0.0904541, 0.54, -0.9614258, 0.54, -0.3780518, 0.54, 1.3435115, 0.54, 0.6793893, 0.54, -3.519084
0.0643235, -0.0196384, 0.54675, -0.0905762, 0.54675, -0.9606323, 0.54675, -0.3795776, 0.54675, 1.3816794, 0.54675, 0.4122137, 0.54675, -3.648855
0.0651176, -0.0209812, 0.5535, -0.0939331, 0.5535, -0.9592896, 0.5535, -0.3800049, 0.5535, 1.3587786, 0.5535, 0.3664122, 0.5535, -3.6564887
0.0659118, -0.018967, 0.56025, -0.0929565, 0.56025, -0.9592285, 0.56025, -0.3786621, 0.56025, 1.351145, 0.56025, 0.2748092, 0.56025, -3.6564887
0.0667059, -0.0184634, 0.567, -0.0907593, 0.567, -0.9597778, 0.567, -0.3792725, 0.567, 1.4503816, 0.567, 0.4580153, 0.567, -3.648855
0.0675, -0.0162814, 0.57375, -0.0928345, 0.57375, -0.9591675, 0.57375, -0.3778687, 0.57375, 1.1603054, 0.57375, 0.4274809, 0.57375, -3.5267177
0.0682941, -0.0166171, 0.5805, -0.0917969, 0.5805, -0.9609985, 0.5805, -0.3786011, 0.5805, 1.091603, 0.5805, 0.5496183, 0.5805, -3.6259542
0.0690882, -0.0149386, 0.58725, -0.0865479, 0.58725, -0.9591675, 0.58725, -0.3814087, 0.58725, 1.0687023, 0.58725, 0.7022901, 0.58725, -3.5496182
0.0698824, -0.0135958, 0.594, -0.0876465, 0.594, -0.9622192, 0.594, -0.3831787, 0.594, 0.9389313, 0.594, 0.8854962, 0.594, -3.519084
0.0706765, -0.0146029, 0.60075, -0.0834961, 0.60075, -0.9602661, 0.60075, -0.3823853, 0.60075, 0.8320611, 0.60075, 0.8931298, 0.60075, -3.5496182
0.0714706, -0.0135958, 0.6075, -0.0847168, 0.6075, -0.9638062, 0.6075, -0.383606, 0.6075, 0.9770992, 0.6075, 0.908397, 0.6075, -3.389313
0.0722647, -0.0129244, 0.61425, -0.0869751, 0.61425, -0.9608765, 0.61425, -0.3817139, 0.61425, 1, 0.61425, 1.1755725, 0.61425, -3.3053436
0.0730588, -0.0112459, 0.621, -0.0888672, 0.621, -0.9592896, 0.621, -0.3804932, 0.621, 0.8167939, 0.621, 1.1908396, 0.621, -3.3435113
0.0738529, -0.0115816, 0.62775, -0.0892944, 0.62775, -0.9590454, 0.62775, -0.3829346, 0.62775, 0.9923664, 0.62775, 1.1679389, 0.62775, -3.3282442
0.0746471, -0.0139315, 0.6345, -0.0917358, 0.6345, -0.9603271, 0.6345, -0.3792725, 0.6345, 0.9847328, 0.6345, 1.0839695, 0.6345, -3.389313
0.0754412, -0.0169528, 0.64125, -0.0897827, 0.64125, -0.9626465, 0.64125, -0.3783569, 0.64125, 1.2366412, 0.64125, 0.9847328, 0.64125, -3.1984732
0.0762353, -0.01561, 0.648, -0.0907593, 0.648, -0.9607544, 0.648, -0.3790894, 0.648, 1.2137405, 0.648, 0.9541985, 0.648, -3.1984732
0.0770294, -0.018967, 0.65475, -0.0905151, 0.65475, -0.9607544, 0.65475, -0.3773804, 0.65475, 1.0763359, 0.65475, 0.9312977, 0.65475, -3.3206108
0.0778235, -0.0182956, 0.6615, -0.0890503, 0.6615, -0.9598389, 0.6615, -0.3807373, 0.6615, 1.1526718, 0.6615, 0.778626, 0.6615, -3.3053436
0.0786176, -0.0166171, 0.66825, -0.0905151, 0.66825, -0.9603882, 0.66825, -0.3781128, 0.66825, 1.0763359, 0.66825, 0.6412213, 0.66825, -3.3969467
0.0794118, -0.0179599, 0.675, -0.0892334, 0.675, -0.9616699, 0.675, -0.3776245, 0.675, 1.1450381, 0.675, 0.6793893, 0.675, -3.2824428
0.0802059, -0.0169528, 0.68175, -0.0893555, 0.68175, -0.9573975, 0.68175, -0.3815308, 0.68175, 1.1755725, 0.68175, 0.7709923, 0.68175, -3.221374
0.081, -0.0196384, 0.6885, -0.0888062, 0.6885, -0.9568481, 0.6885, -0.3815918, 0.6885, 1.1374046, 0.6885, 0.7633588, 0.6885, -3.351145
0.0817941, -0.0199741, 0.69525, -0.0900879, 0.69525, -0.9584351, 0.69525, -0.3812256, 0.69525, 1.1450381, 0.69525, 0.4274809, 0.69525, -3.1908398
0.0825882, -0.0182956, 0.702, -0.0909424, 0.702, -0.9605103, 0.702, -0.381958, 0.702, 1.2824427, 0.702, 0.3053435, 0.702, -3.3587787
0.0833824, -0.0159457, 0.70875, -0.0917358, 0.70875, -0.9580688, 0.70875, -0.3812866, 0.70875, 1.2824427, 0.70875, 0.5038168, 0.70875, -3.2137403
0.0841765, -0.0159457, 0.7155, -0.0942993, 0.7155, -0.9609985, 0.7155, -0.3800049, 0.7155, 1.389313, 0.7155, 0.5725191, 0.7155, -3.2442749
0.0849706, -0.0172885, 0.72225, -0.0901489, 0.72225, -0.9595337, 0.72225, -0.3806152, 0.72225, 1.5038168, 0.72225, 0.4656489, 0.72225, -3.4274809
0.0857647, -0.0142672, 0.729, -0.0907593, 0.729, -0.9588623, 0.729, -0.3793335, 0.729, 1.3969465, 0.729, 0.3587786, 0.729, -3.3816793
0.0865588, -0.012253, 0.73575, -0.0895996, 0.73575, -0.9608765, 0.73575, -0.3826294, 0.73575, 1.3969465, 0.73575, 0.4045801, 0.73575, -3.351145
0.0873529, -0.0112459, 0.7425, -0.0908203, 0.7425, -0.9620972, 0.7425, -0.3833618, 0.7425, 1.4885496, 0.7425, 0.1984733, 0.7425, -3.3435113
0.0881471, -0.0142672, 0.74925, -0.0925293, 0.74925, -0.9624023, 0.74925, -0.3812866, 0.74925, 1.3969465, 0.74925, 0.2137405, 0.74925, -3.5038168
0.0889412, -0.0129244, 0.756, -0.0922241, 0.756, -0.9577637, 0.756, -0.3795166, 0.756, 1.351145, 0.756, 0.2137405, 0.756, -3.3358779
0.0897353, -0.0130922, 0.76275, -0.0906982, 0.76275, -0.9608154, 0.76275, -0.3796387, 0.76275, 1.3740458, 0.76275, 0.0610687, 0.76275, -3.4198472
0.0905294, -0.0149386, 0.7695, -0.09021, 0.7695, -0.9580078, 0.7695, -0.3779297, 0.7695, 1.5267175, 0.7695, 0.2061069, 0.7695, -3.2900763
0.0913235, -0.0164492, 0.77625, -0.0904541, 0.77625, -0.9592285, 0.77625, -0.3791504, 0.77625, 1.6793894, 0.77625, 0.0916031, 0.77625, -3.3282442
0.0921176, -0.014435, 0.783, -0.090271, 0.783, -0.9589233, 0.783, -0.3807373, 0.783, 1.7251909, 0.783, 0.2366412, 0.783, -3.4122138
0.0929118, -0.0139315, 0.78975, -0.0898438, 0.78975, -0.9589844, 0.78975, -0.3825073, 0.78975, 1.610687, 0.78975, 0.1755725, 0.78975, -3.4885497
0.0937059, -0.0166171, 0.7965, -0.0869751, 0.7965, -0.9612427, 0.7965, -0.3787231, 0.7965, 1.6641221, 0.7965, 0.259542, 0.7965, -3.480916
0.0945, -0.0182956, 0.80325, -0.0870972, 0.80325, -0.9604492, 0.80325, -0.3795166, 0.80325, 1.4580153, 0.80325, 0.1984733, 0.80325, -3.3358779
0.0952941, -0.0154421, 0.81, -0.0858154, 0.81, -0.9602661, 0.81, -0.3791504, 0.81, 1.6335878, 0.81, 0.3358779, 0.81, -3.5114503
0.0960882, -0.0179599, 0.81675, -0.0882568, 0.81675, -0.9588013, 0.81675, -0.3762817, 0.81675, 1.5419847, 0.81675, 0.4351145, 0.81675, -3.3587787
0.0968824, -0.018967, 0.8235, -0.0896606, 0.8235, -0.9612427, 0.8235, -0.3786011, 0.8235, 1.6564885, 0.8235, 0.2824427, 0.8235, -3.2977099
0.0976765, -0.0157778, 0.83025, -0.0903931, 0.83025, -0.9585571, 0.83025, -0.3771362, 0.83025, 1.5114504, 0.83025, 0.3435115, 0.83025, -3.5038168
0.0984706, -0.01561, 0.837, -0.0912476, 0.837, -0.9614258, 0.837, -0.3787842, 0.837, 1.5725191, 0.837, 0.3358779, 0.837, -3.4122138
0.0992647, -0.0203098, 0.84375, -0.0892334, 0.84375, -0.9610596, 0.84375, -0.3768921, 0.84375, 1.4045801, 0.84375, 0.3129771, 0.84375, -3.4198472
0.1000588, -0.0206455, 0.8505, -0.0914917, 0.8505, -0.9598999, 0.8505, -0.3800659, 0.8505, 1.4122137, 0.8505, 0.2977099, 0.8505, -3.5801528
0.1008529, -0.0179599, 0.85725, -0.0897217, 0.85725, -0.9628296, 0.85725, -0.3797607, 0.85725, 1.5267175, 0.85725, 0.1908397, 0.85725, -3.3206108
0.1016471, -0.0135958, 0.864, -0.0871582, 0.864, -0.9622192, 0.864, -0.3796997, 0.864, 1.5648855, 0.864, 0.4732825, 0.864, -3.2137403
0.1024412, -0.0120851, 0.87075, -0.0845947, 0.87075, -0.9597168, 0.87075, -0.3812256, 0.87075, 1.4656489, 0.87075, 0.5725191, 0.87075, -3.1145039
0.1032353, -0.0109102, 0.8775, -0.0861816, 0.8775, -0.9597778, 0.8775, -0.3757324, 0.8775, 1.4580153, 0.8775, 0.7328244, 0.8775, -3.129771
0.1040294, -0.0063783, 0.88425, -0.0870972, 0.88425, -0.960022, 0.88425, -0.378479, 0.88425, 1.5419847, 0.88425, 0.9160305, 0.88425, -3.0992367
0.1048235, -0.0072175, 0.891, -0.0889893, 0.891, -0.963562, 0.891, -0.3806763, 0.891, 1.3969465, 0.891, 1.0229008, 0.891, -3.0763359
0.1056176, -0.0099031, 0.89775, -0.090271, 0.89775, -0.9607544, 0.89775, -0.3776245, 0.89775, 1.4274809, 0.89775, 0.9770992, 0.89775, -2.9465649
0.1064118, -0.0125887, 0.9045, -0.09198, 0.9045, -0.9620361, 0.9045, -0.3804321, 0.9045, 1.2977099, 0.9045, 0.8244275, 0.9045, -2.9312978
0.1072059, -0.0147707, 0.91125, -0.0925293, 0.91125, -0.9628296, 0.91125, -0.381958, 0.91125, 1.1984733, 0.91125, 0.8549618, 0.91125, -2.8244274
0.108, -0.0142672, 0.918, -0.0901489, 0.918, -0.9627075, 0.918, -0.3788452, 0.918, 1.3358779, 0.918, 0.7862595, 0.918, -3.0610688
0.1087941, -0.0109102, 0.92475, -0.0926514, 0.92475, -0.9624023, 0.92475, -0.3812866, 0.92475, 1.4656489, 0.92475, 0.8091603, 0.92475, -3.0305343
0.1095882, -0.0095674, 0.9315, -0.0932617, 0.9315, -0.9584961, 0.9315, -0.378418, 0.9315, 1.3740458, 0.9315, 0.6412213, 0.9315, -3.2442749
0.1103824, -0.0117494, 0.93825, -0.0899048, 0.93825, -0.9581299, 0.93825, -0.3805542, 0.93825, 1.2748091, 0.93825, 0.740458, 0.93825, -3.0458016
0.1111765, -0.012253, 0.945, -0.0869751, 0.945, -0.9589233, 0.945, -0.3780518, 0.945, 1.3206106, 0.945, 0.740458, 0.945, -3.1374047
0.1119706, -0.0090639, 0.95175, -0.0892334, 0.95175, -0.9589844, 0.95175, -0.3790283, 0.95175, 1.1755725, 0.95175, 0.8473282, 0.95175, -3.0610688
0.1127647, -0.008896, 0.9585, -0.0880737, 0.9585, -0.9578247, 0.9585, -0.378418, 0.9585, 1.351145, 0.9585, 0.8396947, 0.9585, -3.1679389
0.1135588, -0.0115816, 0.96525, -0.0880127, 0.96525, -0.9564819, 0.96525, -0.3798828, 0.96525, 1.3053435, 0.96525, 0.8778626, 0.96525, -2.9847329
0.1143529, -0.0146029, 0.972, -0.0892944, 0.972, -0.9621582, 0.972, -0.3815308, 0.972, 1.3282443, 0.972, 0.9007633, 0.972, -3
0.1151471, -0.0125887, 0.97875, -0.0896606, 0.97875, -0.9606934, 0.97875, -0.3840332, 0.97875, 1.3816794, 0.97875, 0.8015267, 0.97875, -3.038168
0.1159412, -0.0120851, 0.9855, -0.088623, 0.9855, -0.9596558, 0.9855, -0.3832397, 0.9855, 1.3740458, 0.9855, 0.7862595, 0.9855, -3.0992367
0.1167353, -0.0119173, 0.99225, -0.0929565, 0.99225, -0.9624634, 0.99225, -0.3786621, 0.99225, 1.389313, 0.99225, 0.9389313, 0.99225, -3.091603
0.1175294, -0.0139315, 0.999, -0.0898438, 0.999, -0.9592896, 0.999, -0.3768311, 0.999, 1.4961832, 0.999, 0.8931298, 0.999, -2.9312978
0.1183235, -0.012253, 1.00575, -0.0911255, 1.00575, -0.9598389, 1.00575, -0.3746338, 1.00575, 1.3358779, 1.00575, 0.8320611, 1.00575, -3.0687022
0.1191176, -0.0102388, 1.0125, -0.0912476, 1.0125, -0.9598389, 1.0125, -0.3815308, 1.0125, 1.3664122, 1.0125, 0.7175573, 1.0125, -3.0152671
0.1199118, -0.012253, 1.01925, -0.0924683, 1.01925, -0.961853, 1.01925, -0.3800659, 1.01925, 1.5419847, 1.01925, 0.7709923, 1.01925, -3.1450381
0.1207059, -0.0135958, 1.026, -0.0921021, 1.026, -0.9593506, 1.026, -0.3822021, 1.026, 1.4198474, 1.026, 0.8396947, 1.026, -3.0076337
0.1215, -0.0135958, 1.03275, -0.0915527, 1.03275, -0.9580688, 1.03275, -0.3815918, 1.03275, 1.5343511, 1.03275, 0.7557252, 1.03275, -3.038168
0.1222941, -0.0129244, 1.0395, -0.0913696, 1.0395, -0.9606934, 1.0395, -0.378418, 1.0395, 1.4274809, 1.0395, 0.7099237, 1.0395, -3.0687022
0.1230882, -0.0109102, 1.04625, -0.0925903, 1.04625, -0.9615479, 1.04625, -0.3794556, 1.04625, 1.389313, 1.04625, 0.7251908, 1.04625, -3.1374047
0.1238824, -0.0140993, 1.053, -0.0939331, 1.053, -0.9606323, 1.053, -0.3788452, 1.053, 1.519084, 1.053, 0.6564885, 1.053, -3
0.1246765, -0.0169528, 1.05975, -0.0946655, 1.05975, -0.9598999, 1.05975, -0.3781738, 1.05975, 1.519084, 1.05975, 0.7099237, 1.05975, -2.961832
0.1254706, -0.018967, 1.0665, -0.0905762, 1.0665, -0.9596558, 1.0665, -0.3773193, 1.0665, 1.3664122, 1.0665, 0.6183206, 1.0665, -3.0229008
0.1262647, -0.0152743, 1.07325, -0.0921631, 1.07325, -0.9620361, 1.07325, -0.3787842, 1.07325, 1.389313, 1.07325, 0.6946565, 1.07325, -3.0305343
0.1270588, -0.0149386, 1.08, -0.0916138, 1.08, -0.9608765, 1.08, -0.3764038, 1.08, 1.4580153, 1.08, 0.7709923, 1.08, -3.038168
0.1278529, -0.0162814, 1.08675, -0.0900879, 1.08675, -0.9589844, 1.08675, -0.3762207, 1.08675, 1.3816794, 1.08675, 0.6030535, 1.08675, -3.2519083
0.1286471, -0.0142672, 1.0935, -0.0890503, 1.0935, -0.9588623, 1.0935, -0.3783569, 1.0935, 1.389313, 1.0935, 0.5572519, 1.0935, -3.1755726
0.1294412, -0.0164492, 1.10025, -0.0929565, 1.10025, -0.958252, 1.10025, -0.3776245, 1.10025, 1.3358779, 1.10025, 0.480916, 1.10025, -3.3129771
0.1302353, -0.0186313, 1.107, -0.0924683, 1.107, -0.9579468, 1.107, -0.3814697, 1.107, 1.3587786, 1.107, 0.5877863, 1.107, -3.2671757
0.1310294, -0.018967, 1.11375, -0.0904541, 1.11375, -0.9593506, 1.11375, -0.3793335, 1.11375, 1.3664122, 1.11375, 0.519084, 1.11375, -3.3053436
0.1318235, -0.0216526, 1.1205, -0.0906372, 1.1205, -0.9581299, 1.1205, -0.380188, 1.1205, 1.3740458, 1.1205, 0.5725191, 1.1205, -3.2290077
0.1326176, -0.0182956, 1.12725, -0.0895386, 1.12725, -0.9578247, 1.12725, -0.3773193, 1.12725, 1.3129771, 1.12725, 0.6793893, 1.12725, -3.1755726
0.1334118, -0.0154421, 1.134, -0.0908813, 1.134, -0.9614868, 1.134, -0.3775635, 1.134, 1.480916, 1.134, 0.7328244, 1.134, -3.2671757
0.1342059, -0.01561, 1.14075, -0.0913086, 1.14075, -0.9598389, 1.14075, -0.3770142, 1.14075, 1.3053435, 1.14075, 0.6412213, 1.14075, -3.2290077
0.135, -0.0146029, 1.1475, -0.0913696, 1.1475, -0.9597168, 1.1475, -0.3748169, 1.1475, 1.3664122, 1.1475, 0.610687, 1.1475, -3.2519083
0.1357941, -0.0130922, 1.15425, -0.0934448, 1.15425, -0.9607544, 1.15425, -0.3763428, 1.15425, 1.3282443, 1.15425, 0.6870229, 1.15425, -3.2519083
0.1365882, -0.0099031, 1.161, -0.09198, 1.161, -0.9597168, 1.161, -0.3751221, 1.161, 1.3587786, 1.161, 0.5725191, 1.161, -3.3435113
0.1373824, -0.012253, 1.16775, -0.0908203, 1.16775, -0.9599609, 1.16775, -0.3778687, 1.16775, 1.0992366, 1.16775, 0.4503817, 1.16775, -3.1984732
0.1381765, -0.0129244, 1.1745, -0.0910034, 1.1745, -0.9614258, 1.1745, -0.3770752, 1.1745, 1.2671756, 1.1745, 0.4122137, 1.1745, -3.1603053
0.1389706, -0.012253, 1.18125, -0.0889893, 1.18125, -0.9628906, 1.18125, -0.3792725, 1.18125, 1.129771, 1.18125, 0.5496183, 1.18125, -3.1984732
0.1397647, -0.0172885, 1.188, -0.0892334, 1.188, -0.9606934, 1.188, -0.3776245, 1.188, 1.0076336, 1.188, 0.5877863, 1.188, -3.221374
0.1405588, -0.0179599, 1.19475, -0.0900269, 1.19475, -0.9609375, 1.19475, -0.3798218, 1.19475, 1.1755725, 1.19475, 0.648855, 1.19475, -3.2137403
0.1413529, -0.0167849, 1.2015, -0.0903931, 1.2015, -0.9608765, 1.2015, -0.3753052, 1.2015, 1.221374, 1.2015, 0.908397, 1.2015, -3.1526718
0.1421471, -0.0159457, 1.20825, -0.0911865, 1.20825, -0.9589233, 1.20825, -0.378418, 1.20825, 1.2442749, 1.20825, 0.870229, 1.20825, -3.1832061
0.1429412, -0.018967, 1.215, -0.0921021, 1.215, -0.960022, 1.215, -0.37677, 1.215, 1.2061069, 1.215, 0.8015267, 1.215, -3
0.1437353, -0.0162814, 1.22175, -0.0929565, 1.22175, -0.9605713, 1.22175, -0.3764038, 1.22175, 1.2061069, 1.22175, 0.9236641, 1.22175, -3.0458016
0.1445294, -0.0172885, 1.2285, -0.0924683, 1.2285, -0.9597168, 1.2285, -0.3787842, 1.2285, 1.2900764, 1.2285, 0.778626, 1.2285, -3.1526718
0.1453235, -0.0169528, 1.23525, -0.09021, 1.23525, -0.9595947, 1.23525, -0.3821411, 1.23525, 1.2137405, 1.23525, 0.778626, 1.23525, -3.2137403
0.1461176, -0.0176242, 1.242, -0.0935059, 1.242, -0.9605713, 1.242, -0.3789062, 1.242, 1.1755725, 1.242, 0.7938932, 1.242, -3.1679389
0.1469118, -0.0193027, 1.24875, -0.0922241, 1.24875, -0.9576416, 1.24875, -0.3786011, 1.24875, 1.1068702, 1.24875, 0.7175573, 1.24875, -3.2748091
0.1477059, -0.0167849, 1.2555, -0.09729, 1.2555, -0.9628296, 1.2555, -0.380249, 1.2555, 1.1908396, 1.2555, 0.5877863, 1.2555, -3.3435113
0.1485, -0.018967, 1.26225, -0.0916748, 1.26225, -0.960083, 1.26225, -0.3797607, 1.26225, 1.0839695, 1.26225, 0.5267175, 1.26225, -3.2824428
0.1492941, -0.018967, 1.269, -0.0935669, 1.269, -0.9621582, 1.269, -0.3803711, 1.269, 1.1068702, 1.269, 0.5496183, 1.269, -3.389313
0.1500882, -0.0152743, 1.27575, -0.0914307, 1.27575, -0.9613647, 1.27575, -0.3809204, 1.27575, 1.259542, 1.27575, 0.5801527, 1.27575, -3.3206108
0.1508824, -0.012253, 1.2825, -0.0936279, 1.2825, -0.9605103, 1.2825, -0.3795166, 1.2825, 1.2824427, 1.2825, 0.5114504, 1.2825, -3.3587787
0.1516765, -0.0102388, 1.28925, -0.088501, 1.28925, -0.9573975, 1.28925, -0.3777466, 1.28925, 1.2137405, 1.28925, 0.5725191, 1.28925, -3.221374
0.1524706, -0.0095674, 1.296, -0.0899048, 1.296, -0.9596558, 1.296, -0.3809814, 1.296, 1.2519084, 1.296, 0.4732825, 1.296, -3.5114503
0.1532647, -0.0092317, 1.30275, -0.0892334, 1.30275, -0.9562988, 1.30275, -0.380188, 1.30275, 1.389313, 1.30275, 0.5114504, 1.30275, -3.3206108
0.1540588, -0.0097353, 1.3095, -0.088501, 1.3095, -0.9586792, 1.3095, -0.381958, 1.3095, 1.5038168, 1.3095, 0.4122137, 1.3095, -3.3053436
0.1548529, -0.008896, 1.31625, -0.0881348, 1.31625, -0.9611206, 1.31625, -0.3786621, 1.31625, 1.3435115, 1.31625, 0.5496183, 1.31625, -3.3053436
0.1556471, -0.0102388, 1.323, -0.0899048, 1.323, -0.9616089, 1.323, -0.3762207, 1.323, 1.1145039, 1.323, 0.6335878, 1.323, -3.3740458
0.1564412, -0.0149386, 1.32975, -0.0890503, 1.32975, -0.9602661, 1.32975, -0.3800049, 1.32975, 1.2290076, 1.32975, 0.7709923, 1.32975, -3.351145
0.1572353, -0.0135958, 1.3365, -0.0897827, 1.3365, -0.9633789, 1.3365, -0.3792725, 1.3365, 1.3129771, 1.3365, 0.8091603, 1.3365, -3.091603
0.1580294, -0.012253, 1.34325, -0.0893555, 1.34325, -0.9616699, 1.34325, -0.3790894, 1.34325, 1.3587786, 1.34325, 0.908397, 1.34325, -3.1450381
0.1588235, -0.0129244, 1.35, -0.0926514, 1.35, -0.9596558, 1.35, -0.3773193, 1.35, 1.3129771, 1.35, 0.6412213, 1.35, -3.3435113
0.1596176, -0.0115816, 1.35675, -0.0922241, 1.35675, -0.9591675, 1.35675, -0.3781738, 1.35675, 1.3206106, 1.35675, 0.4580153, 1.35675, -3.2977099
0.1604118, -0.012253, 1.3635, -0.0925293, 1.3635, -0.9592285, 1.3635, -0.3731079, 1.3635, 1.389313, 1.3635, 0.4122137, 1.3635, -3.2900763
0.1612059, -0.0135958, 1.37025, -0.0927734, 1.37025, -0.9625854, 1.37025, -0.3745728, 1.37025, 1.2977099, 1.37025, 0.3358779, 1.37025, -3.3816793
0.162, -0.0159457, 1.377, -0.0923462, 1.377, -0.9608154, 1.377, -0.3770142, 1.377, 1.3435115, 1.377, 0.389313, 1.377, -3.3816793
0.1627941, -0.018967, 1.38375, -0.0924072, 1.38375, -0.9624634, 1.38375, -0.3798828, 1.38375, 1.2824427, 1.38375, 0.3129771, 1.38375, -3.4427481
0.1635882, -0.0203098, 1.3905, -0.0880737, 1.3905, -0.9605713, 1.3905, -0.3772583, 1.3905, 1.221374, 1.3905, 0.5038168, 1.3905, -3.4885497
0.1643824, -0.0162814, 1.39725, -0.0858765, 1.39725, -0.9589233, 1.39725, -0.3775635, 1.39725, 1.259542, 1.39725, 0.5114504, 1.39725, -3.3282442
0.1651765, -0.01561, 1.404, -0.0881958, 1.404, -0.9587402, 1.404, -0.3759766, 1.404, 1.1755725, 1.404, 0.9007633, 1.404, -3.4198472
0.1659706, -0.0159457, 1.41075, -0.0877686, 1.41075, -0.9589233, 1.41075, -0.3757324, 1.41075, 1.351145, 1.41075, 0.9160305, 1.41075, -3.1068702
0.1667647, -0.0135958, 1.4175, -0.0895386, 1.4175, -0.9588623, 1.4175, -0.3772583, 1.4175, 1.4198474, 1.4175, 0.961832, 1.4175, -3.2748091
0.1675588, -0.0135958, 1.42425, -0.0924683, 1.42425, -0.9607544, 1.42425, -0.3768921, 1.42425, 1.259542, 1.42425, 0.9389313, 1.42425, -3.1984732
0.1683529, -0.0115816, 1.431, -0.0957031, 1.431, -0.9597168, 1.431, -0.3796387, 1.431, 1.2900764, 1.431, 0.9389313, 1.431, -3.4274809
0.1691471, -0.0115816, 1.43775, -0.0924683, 1.43775, -0.9611206, 1.43775, -0.3780518, 1.43775, 1.3053435, 1.43775, 0.9770992, 1.43775, -3.259542
0.1699412, -0.0135958, 1.4445, -0.0924683, 1.4445, -0.9580688, 1.4445, -0.3773804, 1.4445, 1.1450381, 1.4445, 0.9694657, 1.4445, -3.4961832
0.1707353, -0.0139315, 1.45125, -0.0883179, 1.45125, -0.9616699, 1.45125, -0.3775635, 1.45125, 1.1526718, 1.45125, 0.8167939, 1.45125, -3.3053436
0.1715294, -0.0162814, 1.458, -0.0894775, 1.458, -0.9625854, 1.458, -0.3782349, 1.458, 1.4122137, 1.458, 1.0763359, 1.458, -3.4045801
0.1723235, -0.0162814, 1.46475, -0.0936279, 1.46475, -0.963623, 1.46475, -0.3794556, 1.46475, 1.4351145, 1.46475, 0.8549618, 1.46475, -3.4198472
0.1731176, -0.0139315, 1.4715, -0.090271, 1.4715, -0.9611206, 1.4715, -0.3787231, 1.4715, 1.389313, 1.4715, 0.961832, 1.4715, -3.1679389
0.1739118, -0.0135958, 1.47825, -0.0900269, 1.47825, -0.9620972, 1.47825, -0.3812866, 1.47825, 1.4045801, 1.47825, 1.0687023, 1.47825, -3.1145039
0.1747059, -0.0142672, 1.485, -0.0901489, 1.485, -0.9580688, 1.485, -0.383667, 1.485, 1.351145, 1.485, 0.9847328, 1.485, -3.2977099
0.1755, -0.0135958, 1.49175, -0.0897217, 1.49175, -0.9628906, 1.49175, -0.3867188, 1.49175, 1.4351145, 1.49175, 1.0458015, 1.49175, -3.2671757
0.1762941, -0.0132601, 1.4985, -0.0911255, 1.4985, -0.958374, 1.4985, -0.3817139, 1.4985, 1.2671756, 1.4985, 1.0839695, 1.4985, -3.2977099
0.1770882, -0.0112459, 1.50525, -0.0930786, 1.50525, -0.9592285, 1.50525, -0.3796997, 1.50525, 1.1984733, 1.50525, 1.0763359, 1.50525, -3.4580152
0.1778824, -0.0125887, 1.512, -0.09021, 1.512, -0.960144, 1.512, -0.3786621, 1.512, 1.351145, 1.512, 1.1068702, 1.512, -3.3816793
0.1786765, -0.0142672, 1.51875, -0.0917358, 1.51875, -0.9611816, 1.51875, -0.3803101, 1.51875, 1.3129771, 1.51875, 0.9389313, 1.51875, -3.351145
0.1794706, -0.0184634, 1.5255, -0.0870972, 1.5255, -0.9616089, 1.5255, -0.3788452, 1.5255, 1.4351145, 1.5255, 0.8778626, 1.5255, -3.4274809
0.1802647, -0.0203098, 1.53225, -0.0898438, 1.53225, -0.9584351, 1.53225, -0.3760376, 1.53225, 1.4122137, 1.53225, 0.8320611, 1.53225, -3.3358779
0.1810588, -0.018967, 1.539, -0.0900269, 1.539, -0.9597168, 1.539, -0.3751221, 1.539, 1.3969465, 1.539, 0.7022901, 1.539, -3.351145
0.1818529, -0.0164492, 1.54575, -0.090271, 1.54575, -0.9580688, 1.54575, -0.3772583, 1.54575, 1.2519084, 1.54575, 0.870229, 1.54575, -3.2824428
0.1826471, -0.0182956, 1.5525, -0.0905762, 1.5525, -0.9580688, 1.5525, -0.3768921, 1.5525, 1.3816794, 1.5525, 0.648855, 1.5525, -3.2977099
0.1834412, -0.0186313, 1.55925, -0.0914917, 1.55925, -0.9609375, 1.55925, -0.3779907, 1.55925, 1.1450381, 1.55925, 0.5801527, 1.55925, -3.3282442
0.1842353, -0.0159457, 1.566, -0.0900269, 1.566, -0.9605713, 1.566, -0.3765869, 1.566, 1.1526718, 1.566, 0.4427481, 1.566, -3.259542
0.1850294, -0.0135958, 1.57275, -0.0897827, 1.57275, -0.9594116, 1.57275, -0.3777466, 1.57275, 1.3358779, 1.57275, 0.351145, 1.57275, -3.3206108
0.1858235, -0.0130922, 1.5795, -0.0871582, 1.5795, -0.9611816, 1.5795, -0.3795166, 1.5795, 1.2977099, 1.5795, 0.389313, 1.5795, -3.3282442
0.1866176, -0.0146029, 1.58625, -0.0880127, 1.58625, -0.9611816, 1.58625, -0.380249, 1.58625, 1.1679389, 1.58625, 0.5267175, 1.58625, -3.2671757
0.1874118, -0.0099031, 1.593, -0.09198, 1.593, -0.9597778, 1.593, -0.3786011, 1.593, 1.2900764, 1.593, 0.5114504, 1.593, -3.4351146
0.1882059, -0.0082246, 1.59975, -0.0898438, 1.59975, -0.9624023, 1.59975, -0.3763428, 1.59975, 1.2748091, 1.59975, 0.6641222, 1.59975, -3.3129771
0.189, -0.0082246, 1.6065, -0.0881348, 1.6065, -0.958313, 1.6065, -0.3772583, 1.6065, 1.2442749, 1.6065, 0.6412213, 1.6065, -3.1068702
0.1897941, -0.0109102, 1.61325, -0.0886841, 1.61325, -0.9631348, 1.61325, -0.3793335, 1.61325, 1.2671756, 1.61325, 0.648855, 1.61325, -3.4122138
0.1905882, -0.0109102, 1.62, -0.0928955, 1.62, -0.9616699, 1.62, -0.3782349, 1.62, 1.2671756, 1.62, 0.648855, 1.62, -3.2442749
0.1913824, -0.01561, 1.62675, -0.0899048, 1.62675, -0.9630737, 1.62675, -0.3815308, 1.62675, 1.2442749, 1.62675, 0.5572519, 1.62675, -3.3282442
0.1921765, -0.0196384, 1.6335, -0.0907593, 1.6335, -0.9640503, 1.6335, -0.37677, 1.6335, 1.1984733, 1.6335, 0.5038168, 1.6335, -3.2061069
0.1929706, -0.0149386, 1.64025, -0.0927124, 1.64025, -0.9627075, 1.64025, -0.3770752, 1.64025, 1.2366412, 1.64025, 0.5419847, 1.64025, -3.3358779
0.1937647, -0.0102388, 1.647, -0.0905151, 1.647, -0.9584351, 1.647, -0.3786621, 1.647, 1.2061069, 1.647, 0.8244275, 1.647, -3.1679389
0.1945588, -0.0146029, 1.65375, -0.0928955, 1.65375, -0.9606934, 1.65375, -0.3778076, 1.65375, 1.3282443, 1.65375, 0.7938932, 1.65375, -3.1526718
0.1953529, -0.0162814, 1.6605, -0.0911255, 1.6605, -0.9606934, 1.6605, -0.3775635, 1.6605, 1.1221374, 1.6605, 0.5648855, 1.6605, -3.1068702
0.1961471, -0.0182956, 1.66725, -0.0890503, 1.66725, -0.9597168, 1.66725, -0.3760376, 1.66725, 1.0839695, 1.66725, 0.740458, 1.66725, -3.1221373
0.1969412, -0.0203098, 1.674, -0.0895996, 1.674, -0.9587402, 1.674, -0.3807983, 1.674, 1.1526718, 1.674, 0.740458, 1.674, -3.2061069
0.1977353, -0.0193027, 1.68075, -0.0895996, 1.68075, -0.9603271, 1.68075, -0.37677, 1.68075, 1.1526718, 1.68075, 0.7175573, 1.68075, -3.2366412
0.1985294, -0.0204776, 1.6875, -0.0907593, 1.6875, -0.9606934, 1.6875, -0.3776855, 1.6875, 1.2900764, 1.6875, 0.7251908, 1.6875, -3.2519083
0.1993235, -0.0169528, 1.69425, -0.0895386, 1.69425, -0.9581299, 1.69425, -0.3756104, 1.69425, 1.221374, 1.69425, 0.6717557, 1.69425, -3.1603053
0.2001176, -0.0130922, 1.701, -0.0876465, 1.701, -0.9599609, 1.701, -0.3740845, 1.701, 1.1526718, 1.701, 0.8091603, 1.701, -3.2442749
0.2009118, -0.0139315, 1.70775, -0.088562, 1.70775, -0.9606323, 1.70775, -0.3765259, 1.70775, 0.9847328, 1.70775, 0.9236641, 1.70775, -3.0839694
0.2017059, -0.012253, 1.7145, -0.0876465, 1.7145, -0.9645386, 1.7145, -0.3787842, 1.7145, 1.1603054, 1.7145, 0.9236641, 1.7145, -2.9923663
0.2025, -0.0142672, 1.72125, -0.0895996, 1.72125, -0.9609375, 1.72125, -0.3759766, 1.72125, 1.1832061, 1.72125, 0.9694657, 1.72125, -3.0763359
0.2032941, -0.0099031, 1.728, -0.0886841, 1.728, -0.9605103, 1.728, -0.3795166, 1.728, 1.1679389, 1.728, 0.8396947, 1.728, -3.1526718
0.2040882, -0.0068818, 1.73475, -0.0903931, 1.73475, -0.9594116, 1.73475, -0.3792725, 1.73475, 1.0458015, 1.73475, 0.9160305, 1.73475, -3.0305343
0.2048824, -0.0062104, 1.7415, -0.0944214, 1.7415, -0.9596558, 1.7415, -0.3807983, 1.7415, 1.2137405, 1.7415, 0.8778626, 1.7415, -3.091603
0.2056765, -0.0078889, 1.74825, -0.090332, 1.74825, -0.961731, 1.74825, -0.3807983, 1.74825, 1.1068702, 1.74825, 0.908397, 1.74825, -3.2366412
0.2064706, -0.0092317, 1.755, -0.0939331, 1.755, -0.9609985, 1.755, -0.3764648, 1.755, 1.1755725, 1.755, 0.7251908, 1.755, -3.2061069
0.2072647, -0.0169528, 1.76175, -0.0932617, 1.76175, -0.9627686, 1.76175, -0.378479, 1.76175, 1.2824427, 1.76175, 0.7251908, 1.76175, -3.2900763
0.2080588, -0.0162814, 1.7685, -0.0925903, 1.7685, -0.9613037, 1.7685, -0.3806763, 1.7685, 1.3435115, 1.7685, 0.6870229, 1.7685, -3.2290077
0.2088529, -0.0162814, 1.77525, -0.0892944, 1.77525, -0.9602661, 1.77525, -0.380188, 1.77525, 1.1450381, 1.77525, 0.8320611, 1.77525, -3.2977099
0.2096471, -0.0191348, 1.782, -0.0908203, 1.782, -0.9606323, 1.782, -0.3789062, 1.782, 1.0992366, 1.782, 0.5877863, 1.782, -3.3053436
0.2104412, -0.0179599, 1.78875, -0.0894165, 1.78875, -0.9606323, 1.78875, -0.3787231, 1.78875, 1.2977099, 1.78875, 0.6564885, 1.78875, -3.1145039
0.2112353, -0.0172885, 1.7955, -0.0911865, 1.7955, -0.9620361, 1.7955, -0.3800659, 1.7955, 1.3053435, 1.7955, 0.6717557, 1.7955, -3.0839694
0.2120294, -0.0140993, 1.80225, -0.088623, 1.80225, -0.9605713, 1.80225, -0.3812256, 1.80225, 1.221374, 1.80225, 0.7633588, 1.80225, -3.1374047
0.2128235, -0.0159457, 1.809, -0.0910645, 1.809, -0.960083, 1.809, -0.37854, 1.809, 1.3206106, 1.809, 0.8625954, 1.809, -3.3587787
0.2136176, -0.0172885, 1.81575, -0.0925903, 1.81575, -0.9630127, 1.81575, -0.3775024, 1.81575, 1.3435115, 1.81575, 0.7938932, 1.81575, -3.2366412
0.2144118, -0.0204776, 1.8225, -0.0915527, 1.8225, -0.9606934, 1.8225, -0.3759766, 1.8225, 1.2519084, 1.8225, 0.7633588, 1.8225, -3.129771
0.2152059, -0.018967, 1.82925, -0.0930786, 1.82925, -0.9589233, 1.82925, -0.3766479, 1.82925, 1.3129771, 1.82925, 0.6335878, 1.82925, -3.3282442
0.216, -0.0176242, 1.836, -0.0929565, 1.836, -0.9611816, 1.836, -0.381897, 1.836, 1.351145, 1.836, 0.6717557, 1.836, -3.3129771
0.2167941, -0.0135958, 1.84275, -0.0910645, 1.84275, -0.9597778, 1.84275, -0.3826904, 1.84275, 1.389313, 1.84275, 0.7175573, 1.84275, -3.1908398
0.2175882, -0.0140993, 1.8495, -0.0906982, 1.8495, -0.9608154, 1.8495, -0.3786011, 1.8495, 1.3587786, 1.8495, 0.5801527, 1.8495, -3.1984732
0.2183824, -0.0139315, 1.85625, -0.092041, 1.85625, -0.9612427, 1.85625, -0.3790283, 1.85625, 1.1679389, 1.85625, 0.519084, 1.85625, -3.3129771
0.2191765, -0.0109102, 1.863, -0.09021, 1.863, -0.9594727, 1.863, -0.3789673, 1.863, 1.4274809, 1.863, 0.6564885, 1.863, -3.4198472
0.2199706, -0.0115816, 1.86975, -0.0894165, 1.86975, -0.9596558, 1.86975, -0.3815918, 1.86975, 1.3664122, 1.86975, 0.6030535, 1.86975, -3.2137403
0.2207647, -0.0119173, 1.8765, -0.0877075, 1.8765, -0.9597778, 1.8765, -0.3808594, 1.8765, 1.4580153, 1.8765, 0.7175573, 1.8765, -3.0687022
0.2215588, -0.0142672, 1.88325, -0.0895386, 1.88325, -0.9586792, 1.88325, -0.3804321, 1.88325, 1.3664122, 1.88325, 0.6946565, 1.88325, -3.2061069
0.2223529, -0.0135958, 1.89, -0.0899658, 1.89, -0.9595947, 1.89, -0.3787231, 1.89, 1.3969465, 1.89, 0.6793893, 1.89, -3.1832061
0.2231471, -0.0149386, 1.89675, -0.0930786, 1.89675, -0.9599609, 1.89675, -0.3791504, 1.89675, 1.4351145, 1.89675, 0.7251908, 1.89675, -3.1755726
0.2239412, -0.0146029, 1.9035, -0.0938721, 1.9035, -0.9633179, 1.9035, -0.3775024, 1.9035, 1.351145, 1.9035, 0.8396947, 1.9035, -3.1755726
0.2247353, -0.0112459, 1.91025, -0.09198, 1.91025, -0.9609985, 1.91025, -0.3768311, 1.91025, 1.2977099, 1.91025, 0.778626, 1.91025, -3.259542
0.2255294, -0.0139315, 1.917, -0.0906982, 1.917, -0.9611206, 1.917, -0.37854, 1.917, 1.6030535, 1.917, 0.7175573, 1.917, -3.3282442
0.2263235, -0.0149386, 1.92375, -0.0914917, 1.92375, -0.9594727, 1.92375, -0.374939, 1.92375, 1.4885496, 1.92375, 0.740458, 1.92375, -3.1755726
0.2271176, -0.0129244, 1.9305, -0.0914307, 1.9305, -0.9594116, 1.9305, -0.3753662, 1.9305, 1.4351145, 1.9305, 0.6946565, 1.9305, -3.2824428
0.2279118, -0.0139315, 1.93725, -0.0894775, 1.93725, -0.9588623, 1.93725, -0.3768311, 1.93725, 1.4885496, 1.93725, 0.6870229, 1.93725, -3.1755726
0.2287059, -0.0186313, 1.944, -0.0890503, 1.944, -0.9594727, 1.944, -0.3795776, 1.944, 1.4045801, 1.944, 0.8015267, 1.944, -3.2977099
0.2295, -0.0203098, 1.95075, -0.0908203, 1.95075, -0.9602661, 1.95075, -0.3782959, 1.95075, 1.5038168, 1.95075, 0.8473282, 1.95075, -3.1450381
0.2302941, -0.018967, 1.9575, -0.0928345, 1.9575, -0.9628906, 1.9575, -0.3783569, 1.9575, 1.4351145, 1.9575, 0.7862595, 1.9575, -3.0839694
0.2310882, -0.0184634, 1.96425, -0.0916748, 1.96425, -0.961792, 1.96425, -0.3793945, 1.96425, 1.5419847, 1.96425, 0.7175573, 1.96425, -3.3053436
0.2318824, -0.0184634, 1.971, -0.0911865, 1.971, -0.9626465, 1.971, -0.3777466, 1.971, 1.519084, 1.971, 0.8396947, 1.971, -3.2061069
0.2326765, -0.018967, 1.97775, -0.09198, 1.97775, -0.9629517, 1.97775, -0.3805542, 1.97775, 1.480916, 1.97775, 0.6412213, 1.97775, -3.2977099
0.2334706, -0.0206455, 1.9845, -0.0900269, 1.9845, -0.9638062, 1.9845, -0.378418, 1.9845, 1.4351145, 1.9845, 0.7328244, 1.9845, -3.1374047
0.2342647, -0.0142672, 1.99125, -0.0928955, 1.99125, -0.9611816, 1.99125, -0.3754272, 1.99125, 1.480916, 1.99125, 0.7557252, 1.99125, -3.2977099
0.2350588, -0.0117494, 1.998, -0.0921021, 1.998, -0.9603271, 1.998, -0.3751831, 1.998, 1.3969465, 1.998, 0.7175573, 1.998, -3.3053436
0.2358529, -0.0119173, 2.00475, -0.0913696, 2.00475, -0.9624023, 2.00475, -0.3748169, 2.00475, 1.3358779, 2.00475, 0.7862595, 2.00475, -3.259542
0.2366471, -0.0125887, 2.0115, -0.0913696, 2.0115, -0.9630737, 2.0115, -0.376709, 2.0115, 1.3129771, 2.0115, 0.6183206, 2.0115, -3.2137403
0.2374412, -0.0095674, 2.01825, -0.0887451, 2.01825, -0.9647217, 2.01825, -0.3748169, 2.01825, 1.3206106, 2.01825, 0.610687, 2.01825, -3.1450381
0.2382353, -0.0090639, 2.025, -0.0921021, 2.025, -0.9604492, 2.025, -0.3747559, 2.025, 1.3816794, 2.025, 0.5954198, 2.025, -3.1603053
0.2390294, -0.008896, 2.03175, -0.0877686, 2.03175, -0.9584961, 2.03175, -0.3770142, 2.03175, 1.2977099, 2.03175, 0.5343512, 2.03175, -3.3816793
0.2398235, -0.0092317, 2.0385, -0.0903931, 2.0385, -0.9568481, 2.0385, -0.3753662, 2.0385, 1.2442749, 2.0385, 0.5648855, 2.0385, -3.1984732
0.2406176, -0.011078, 2.04525, -0.0894165, 2.04525, -0.9594727, 2.04525, -0.3742676, 2.04525, 1.2061069, 2.04525, 0.6564885, 2.04525, -3.0305343
0.2414118, -0.0125887, 2.052, -0.0869751, 2.052, -0.9592896, 2.052, -0.374939, 2.052, 1.2519084, 2.052, 0.5343512, 2.052, -3.0992367
0.2422059, -0.0162814, 2.05875, -0.0864868, 2.05875, -0.9599609, 2.05875, -0.3754883, 2.05875, 1.2900764, 2.05875, 0.6183206, 2.05875, -3.0763359
0.243, -0.0162814, 2.0655, -0.0883179, 2.0655, -0.9611816, 2.0655, -0.3787842, 2.0655, 1.2137405, 2.0655, 0.6641222, 2.0655, -3.129771
0.2437941, -0.0176242, 2.07225, -0.090271, 2.07225, -0.9580688, 2.07225, -0.3790283, 2.07225, 1.221374, 2.07225, 0.7022901, 2.07225, -3.0076337
0.2445882, -0.0176242, 2.079, -0.0910645, 2.079, -0.9577026, 2.079, -0.3775024, 2.079, 1.1832061, 2.079, 0.7557252, 2.079, -3.1145039
0.2453824, -0.0172885, 2.08575, -0.0911255, 2.08575, -0.9644775, 2.08575, -0.3743896, 2.08575, 1.2061069, 2.08575, 0.8320611, 2.08575, -2.9160306
0.2461765, -0.0152743, 2.0925, -0.0924072, 2.0925, -0.9628296, 2.0925, -0.3764648, 2.0925, 1.0839695, 2.0925, 0.7709923, 2.0925, -3.2137403
0.2469706, -0.0149386, 2.09925, -0.0927734, 2.09925, -0.9639893, 2.09925, -0.3740845, 2.09925, 1.0687023, 2.09925, 0.5801527, 2.09925, -3.0839694
0.2477647, -0.0152743, 2.106, -0.0942993, 2.106, -0.9603882, 2.106, -0.3776855, 2.106, 1.2748091, 2.106, 0.5954198, 2.106, -3.1526718
0.2485588, -0.0162814, 2.11275, -0.0904541, 2.11275, -0.9611816, 2.11275, -0.3762817, 2.11275, 1.2290076, 2.11275, 0.519084, 2.11275, -3.1908398
0.2493529, -0.0162814, 2.1195, -0.0872803, 2.1195, -0.9597168, 2.1195, -0.3754272, 2.1195, 1.038168, 2.1195, 0.4122137, 2.1195, -3.1068702
0.2501471, -0.01561, 2.12625, -0.0891724, 2.12625, -0.9620972, 2.12625, -0.3769531, 2.12625, 1.1374046, 2.12625, 0.648855, 2.12625, -3.0839694
0.2509412, -0.0162814, 2.133, -0.0849609, 2.133, -0.9613037, 2.133, -0.3779907, 2.133, 1.1679389, 2.133, 0.7328244, 2.133, -3.129771
0.2517353, -0.0139315, 2.13975, -0.0866089, 2.13975, -0.9626465, 2.13975, -0.3781128, 2.13975, 1.2442749, 2.13975, 0.6717557, 2.13975, -3.1145039
0.2525294, -0.012253, 2.1465, -0.0877686, 2.1465, -0.9596558, 2.1465, -0.3800049, 2.1465, 1.2290076, 2.1465, 0.7633588, 2.1465, -3.038168
0.2533235, -0.0137636, 2.15325, -0.090332, 2.15325, -0.9612427, 2.15325, -0.3779297, 2.15325, 1.1450381, 2.15325, 0.8015267, 2.15325, -3
0.2541176, -0.0151064, 2.16, -0.0957031, 2.16, -0.9608154, 2.16, -0.3782959, 2.16, 1.129771, 2.16, 0.961832, 2.16, -3.0076337
0.2549118, -0.0149386, 2.16675, -0.0947876, 2.16675, -0.9599609, 2.16675, -0.3753662, 2.16675, 1.129771, 2.16675, 0.8244275, 2.16675, -3
0.2557059, -0.0135958, 2.1735, -0.0898438, 2.1735, -0.9591064, 2.1735, -0.3745117, 2.1735, 1.1145039, 2.1735, 0.6793893, 2.1735, -3.091603
0.2565, -0.0139315, 2.18025, -0.0929565, 2.18025, -0.9606934, 2.18025, -0.3781738, 2.18025, 1.1145039, 2.18025, 0.6412213, 2.18025, -3.0763359
0.2572941, -0.0135958, 2.187, -0.0928955, 2.187, -0.9588623, 2.187, -0.3775024, 2.187, 1.2900764, 2.187, 0.480916, 2.187, -3.2061069
0.2580882, -0.0109102, 2.19375, -0.0906982, 2.19375, -0.9595337, 2.19375, -0.3771973, 2.19375, 1.3206106, 2.19375, 0.4427481, 2.19375, -3.1145039
0.2588824, -0.0142672, 2.2005, -0.0913696, 2.2005, -0.960022, 2.2005, -0.3793945, 2.2005, 1.1603054, 2.2005, 0.5648855, 2.2005, -3.091603
0.2596765, -0.0129244, 2.20725, -0.0935669, 2.20725, -0.9660034, 2.20725, -0.3768921, 2.20725, 1.2900764, 2.20725, 0.648855, 2.20725, -2.908397
0.2604706, -0.012253, 2.214, -0.0908813, 2.214, -0.965332, 2.214, -0.3764038, 2.214, 1.2977099, 2.214, 0.8625954, 2.214, -3.0610688
0.2612647, -0.0125887, 2.22075, -0.0904541, 2.22075, -0.9616699, 2.22075, -0.3757935, 2.22075, 1.3053435, 2.22075, 0.8473282, 2.22075, -3
0.2620588, -0.0166171, 2.2275, -0.0916748, 2.2275, -0.961853, 2.2275, -0.3789062, 2.2275, 1.1068702, 2.2275, 0.7022901, 2.2275, -3.0839694
0.2628529, -0.0172885, 2.23425, -0.0947266, 2.23425, -0.9613647, 2.23425, -0.3768921, 2.23425, 1.1832061, 2.23425, 0.5114504, 2.23425, -3.0839694
0.2636471, -0.0176242, 2.241, -0.0911865, 2.241, -0.9602051, 2.241, -0.3765869, 2.241, 1.2900764, 2.241, 0.4503817, 2.241, -3
0.2644412, -0.0159457, 2.24775, -0.0905151, 2.24775, -0.9581909, 2.24775, -0.3771973, 2.24775, 1.1908396, 2.24775, 0.4732825, 2.24775, -3.091603
0.2652353, -0.0137636, 2.2545, -0.0877075, 2.2545, -0.9581299, 2.2545, -0.3779297, 2.2545, 1.2977099, 2.2545, 0.4198473, 2.2545, -3.0763359
0.2660294, -0.0102388, 2.26125, -0.0887451, 2.26125, -0.961853, 2.26125, -0.3751831, 2.26125, 1.2519084, 2.26125, 0.4427481, 2.26125, -3.0992367
0.2668235, -0.0112459, 2.268, -0.0895996, 2.268, -0.9634399, 2.268, -0.3779907, 2.268, 1.2061069, 2.268, 0.4503817, 2.268, -3.1145039
0.2676176, -0.0135958, 2.27475, -0.0909424, 2.27475, -0.9625244, 2.27475, -0.3775024, 2.27475, 1.1908396, 2.27475, 0.6183206, 2.27475, -3.1221373
0.2684118, -0.0135958, 2.2815, -0.0914917, 2.2815, -0.9592896, 2.2815, -0.3791504, 2.2815, 1.3053435, 2.2815, 0.7709923, 2.2815, -3.1374047
0.2692059, -0.0119173, 2.28825, -0.0919189, 2.28825, -0.9614868, 2.28825, -0.3760986, 2.28825, 1.1679389, 2.28825, 0.7862595, 2.28825, -3.1145039
0.27, -0.0125887, 2.295, -0.0881958, 2.295, -0.9607544, 2.295, -0.3765259, 2.295, 1.1908396, 2.295, 0.8854962, 2.295, -3.1374047
0.2707941, -0.0085603, 2.30175, -0.0927124, 2.30175, -0.9610596, 2.30175, -0.3742065, 2.30175, 1.2061069, 2.30175, 0.8320611, 2.30175, -3.1679389
0.2715882, -0.0097353, 2.3085, -0.0944824, 2.3085, -0.961792, 2.3085, -0.3742676, 2.3085, 1.2061069, 2.3085, 0.8473282, 2.3085, -3.129771
0.2723824, -0.0127565, 2.31525, -0.0967407, 2.31525, -0.9595947, 2.31525, -0.37854, 2.31525, 1.1755725, 2.31525, 0.5343512, 2.31525, -3.2137403
0.2731765, -0.0135958, 2.322, -0.0946655, 2.322, -0.9585571, 2.322, -0.3788452, 2.322, 1.0305344, 2.322, 0.4580153, 2.322, -3.3206108
0.2739706, -0.0137636, 2.32875, -0.0930786, 2.32875, -0.9595947, 2.32875, -0.3776855, 2.32875, 1.2900764, 2.32875, 0.3740458, 2.32875, -3.3282442
0.2747647, -0.0152743, 2.3355, -0.0916748, 2.3355, -0.9609375, 2.3355, -0.3757324, 2.3355, 1.1145039, 2.3355, 0.5572519, 2.3355, -3.3129771
0.2755588, -0.0194705, 2.34225, -0.0907593, 2.34225, -0.9602661, 2.34225, -0.375061, 2.34225, 1.129771, 2.34225, 0.648855, 2.34225, -3.2290077
0.2763529, -0.0199741, 2.349, -0.0889282, 2.349, -0.9608154, 2.349, -0.3792114, 2.349, 1.1450381, 2.349, 0.7328244, 2.349, -3.1679389
0.2771471, -0.0176242, 2.35575, -0.0879517, 2.35575, -0.9614258, 2.35575, -0.3800049, 2.35575, 1.3206106, 2.35575, 0.7709923, 2.35575, -3.1603053
0.2779412, -0.0198062, 2.3625, -0.0872192, 2.3625, -0.9577026, 2.3625, -0.3792725, 2.3625, 1.3129771, 2.3625, 0.8320611, 2.3625, -3.1526718
0.2787353, -0.0179599, 2.36925, -0.090271, 2.36925, -0.9596558, 2.36925, -0.3804932, 2.36925, 1.1450381, 2.36925, 0.9236641, 2.36925, -3.0610688
0.2795294, -0.0176242, 2.376, -0.0892944, 2.376, -0.9592896, 2.376, -0.3772583, 2.376, 1.3358779, 2.376, 1.0305344, 2.376, -3.1450381
0.2803235, -0.0169528, 2.38275, -0.0907593, 2.38275, -0.9611816, 2.38275, -0.3764038, 2.38275, 1.2290076, 2.38275, 1.091603, 2.38275, -3.2061069
0.2811176, -0.0154421, 2.3895, -0.0930176, 2.3895, -0.9616089, 2.3895, -0.3793335, 2.3895, 1.3206106, 2.3895, 1.1145039, 2.3895, -3.1908398
0.2819118, -0.0152743, 2.39625, -0.0924683, 2.39625, -0.9604492, 2.39625, -0.3768311, 2.39625, 1.3053435, 2.39625, 0.9770992, 2.39625, -3.0534351
0.2827059, -0.0135958, 2.403, -0.0922852, 2.403, -0.9622192, 2.403, -0.3757935, 2.403, 0.961832, 2.403, 0.7938932, 2.403, -3.1068702
0.2835, -0.0186313, 2.40975, -0.0957031, 2.40975, -0.9633789, 2.40975, -0.3757324, 2.40975, 1.0992366, 2.40975, 0.7328244, 2.40975, -3.259542
0.2842941, -0.0196384, 2.4165, -0.0941162, 2.4165, -0.963562, 2.4165, -0.3753052, 2.4165, 1.2824427, 2.4165, 0.6259542, 2.4165, -3.2290077
0.2850882, -0.0149386, 2.42325, -0.0928345, 2.42325, -0.9608154, 2.42325, -0.3754883, 2.42325, 1.2900764, 2.42325, 0.610687, 2.42325, -3.3435113
0.2858824, -0.0129244, 2.43, -0.092041, 2.43, -0.9607544, 2.43, -0.3771973, 2.43, 1.091603, 2.43, 0.5725191, 2.43, -3.2748091
0.2866765, -0.0132601, 2.43675, -0.0910645, 2.43675, -0.958374, 2.43675, -0.3764648, 2.43675, 1.2061069, 2.43675, 0.5419847, 2.43675, -3.2519083
0.2874706, -0.012253, 2.4435, -0.09021, 2.4435, -0.9580688, 2.4435, -0.3792725, 2.4435, 1.091603, 2.4435, 0.5572519, 2.4435, -3.1755726
0.2882647, -0.0099031, 2.45025, -0.0890503, 2.45025, -0.9592896, 2.45025, -0.3777466, 2.45025, 1.1221374, 2.45025, 0.6412213, 2.45025, -3.2824428
0.2890588, -0.0135958, 2.457, -0.0917969, 2.457, -0.9591675, 2.457, -0.3769531, 2.457, 1.1145039, 2.457, 0.5725191, 2.457, -3.351145
0.2898529, -0.0114137, 2.46375, -0.0909424, 2.46375, -0.9606934, 2.46375, -0.3783569, 2.46375, 1.1755725, 2.46375, 0.6870229, 2.46375, -3
0.2906471, -0.0109102, 2.4705, -0.0901489, 2.4705, -0.9605103, 2.4705, -0.3797607, 2.4705, 1.1145039, 2.4705, 0.7709923, 2.4705, -3.2290077
0.2914412, -0.0132601, 2.47725, -0.0932617, 2.47725, -0.9584961, 2.47725, -0.37677, 2.47725, 1.1526718, 2.47725, 0.6870229, 2.47725, -3.1755726
0.2922353, -0.017792, 2.484, -0.0903931, 2.484, -0.9625244, 2.484, -0.3755493, 2.484, 1.1450381, 2.484, 0.7862595, 2.484, -3.3206108
0.2930294, -0.0213169, 2.49075, -0.0946045, 2.49075, -0.9614868, 2.49075, -0.3728027, 2.49075, 1.0687023, 2.49075, 0.6793893, 2.49075, -3.2900763
0.2938235, -0.0206455, 2.4975, -0.093811, 2.4975, -0.9620361, 2.4975, -0.3720093, 2.4975, 0.9694657, 2.4975, 0.6564885, 2.4975, -3.1145039
0.2946176, -0.0196384, 2.50425, -0.0922852, 2.50425, -0.9631958, 2.50425, -0.3735962, 2.50425, 1.038168, 2.50425, 0.5954198, 2.50425, -3.2519083
0.2954118, -0.0176242, 2.511, -0.0930176, 2.511, -0.9640503, 2.511, -0.3743896, 2.511, 0.870229, 2.511, 0.5419847, 2.511, -3.2748091
0.2962059, -0.0208133, 2.51775, -0.0905151, 2.51775, -0.9620361, 2.51775, -0.3760376, 2.51775, 0.9007633, 2.51775, 0.5648855, 2.51775, -3.2366412
0.297, -0.0169528, 2.5245, -0.09021, 2.5245, -0.9605103, 2.5245, -0.3755493, 2.5245, 0.908397, 2.5245, 0.4580153, 2.5245, -3.3969467
0.2977941, -0.0164492, 2.53125, -0.0882568, 2.53125, -0.9578247, 2.53125, -0.3772583, 2.53125, 0.8778626, 2.53125, 0.519084, 2.53125, -3.3664122
0.2985882, -0.0169528, 2.538, -0.0869751, 2.538, -0.9604492, 2.538, -0.3795166, 2.538, 0.8473282, 2.538, 0.4732825, 2.538, -3.1679389
0.2993824, -0.0142672, 2.54475, -0.0907593, 2.54475, -0.9627686, 2.54475, -0.37854, 2.54475, 0.8320611, 2.54475, 0.5419847, 2.54475, -3.221374
0.3001765, -0.0135958, 2.5515, -0.0923462, 2.5515, -0.960022, 2.5515, -0.3807373, 2.5515, 0.9007633, 2.5515, 0.7022901, 2.5515, -3.3129771
0.3009706, -0.012253, 2.55825, -0.092041, 2.55825, -0.960083, 2.55825, -0.3814087, 2.55825, 0.7633588, 2.55825, 0.6793893, 2.55825, -3.1908398
0.3017647, -0.0105745, 2.565, -0.090332, 2.565, -0.9623413, 2.565, -0.3834229, 2.565, 1.0076336, 2.565, 0.8244275, 2.565, -3.1984732
0.3025588, -0.0077211, 2.57175, -0.0928955, 2.57175, -0.9611816, 2.57175, -0.381958, 2.57175, 0.9389313, 2.57175, 0.8167939, 2.57175, -3.3282442
0.3033529, -0.0092317, 2.5785, -0.095459, 2.5785, -0.9614868, 2.5785, -0.3796387, 2.5785, 0.9007633, 2.5785, 0.7328244, 2.5785, -3.1832061
0.3041471, -0.0124208, 2.58525, -0.0953979, 2.58525, -0.9619141, 2.58525, -0.3782349, 2.58525, 0.9694657, 2.58525, 0.8091603, 2.58525, -3.3206108
0.3049412, -0.0119173, 2.592, -0.0966797, 2.592, -0.9632568, 2.592, -0.3756714, 2.592, 1.1145039, 2.592, 0.8625954, 2.592, -3.3587787
0.3057353, -0.0082246, 2.59875, -0.0973511, 2.59875, -0.9607544, 2.59875, -0.3774414, 2.59875, 0.9389313, 2.59875, 0.5877863, 2.59875, -3.3664122
0.3065294, -0.012253, 2.6055, -0.0930786, 2.6055, -0.9609375, 2.6055, -0.3742065, 2.6055, 0.9541985, 2.6055, 0.7022901, 2.6055, -3.3206108
0.3073235, -0.0139315, 2.61225, -0.0931396, 2.61225, -0.9594116, 2.61225, -0.3771362, 2.61225, 0.9236641, 2.61225, 0.4427481, 2.61225, -3.3816793
0.3081176, -0.0140993, 2.619, -0.0939331, 2.619, -0.960022, 2.619, -0.3791504, 2.619, 0.9465649, 2.619, 0.4122137, 2.619, -3.4503818
0.3089118, -0.01561, 2.62575, -0.0932617, 2.62575, -0.9576416, 2.62575, -0.3766479, 2.62575, 0.908397, 2.62575, 0.3740458, 2.62575, -3.4580152
0.3097059, -0.0152743, 2.6325, -0.0896606, 2.6325, -0.9620361, 2.6325, -0.3776245, 2.6325, 0.8091603, 2.6325, 0.4122137, 2.6325, -3.2824428
0.3105, -0.0152743, 2.63925, -0.0857544, 2.63925, -0.9606934, 2.63925, -0.3771973, 2.63925, 0.7022901, 2.63925, 0.4503817, 2.63925, -3.389313
0.3112941, -0.0164492, 2.646, -0.0844116, 2.646, -0.9607544, 2.646, -0.3795776, 2.646, 0.8549618, 2.646, 0.648855, 2.646, -3.1603053
0.3120882, -0.0130922, 2.65275, -0.0889893, 2.65275, -0.9605713, 2.65275, -0.3774414, 2.65275, 0.9847328, 2.65275, 0.648855, 2.65275, -3.221374
0.3128824, -0.0132601, 2.6595, -0.088562, 2.6595, -0.9616089, 2.6595, -0.3786011, 2.6595, 1.0076336, 2.6595, 0.7862595, 2.6595, -3.1145039
0.3136765, -0.0146029, 2.66625, -0.0874634, 2.66625, -0.9595947, 2.66625, -0.3782959, 2.66625, 0.9541985, 2.66625, 0.9312977, 2.66625, -3.2824428
0.3144706, -0.0149386, 2.673, -0.0905762, 2.673, -0.9588623, 2.673, -0.3796387, 2.673, 0.7633588, 2.673, 0.9541985, 2.673, -3.1526718
0.3152647, -0.0142672, 2.67975, -0.0876465, 2.67975, -0.9596558, 2.67975, -0.3757935, 2.67975, 0.8244275, 2.67975, 1.2061069, 2.67975, -3.1679389
0.3160588, -0.0125887, 2.6865, -0.0928345, 2.6865, -0.9587402, 2.6865, -0.3773804, 2.6865, 0.8931298, 2.6865, 0.9312977, 2.6865, -3.038168
0.3168529, -0.0124208, 2.69325, -0.0946655, 2.69325, -0.9602051, 2.69325, -0.3786621, 2.69325, 0.7938932, 2.69325, 0.9465649, 2.69325, -3.1679389
0.3176471, -0.0104067, 2.7, -0.0958252, 2.7, -0.9587402, 2.7, -0.3772583, 2.7, 0.8396947, 2.7, 0.6641222, 2.7, -3.2519083
0.3184412, -0.0115816, 2.70675, -0.0917969, 2.70675, -0.9609375, 2.70675, -0.3765869, 2.70675, 0.8320611, 2.70675, 0.8091603, 2.70675, -3.3129771
0.3192353, -0.0115816, 2.7135, -0.0922852, 2.7135, -0.9597778, 2.7135, -0.3796997, 2.7135, 0.870229, 2.7135, 0.7099237, 2.7135, -3.221374
0.3200294, -0.0129244, 2.72025, -0.0911865, 2.72025, -0.961853, 2.72025, -0.378479, 2.72025, 0.9389313, 2.72025, 0.7251908, 2.72025, -3.1755726
0.3208235, -0.0149386, 2.727, -0.0897827, 2.727, -0.9605103, 2.727, -0.3793945, 2.727, 0.7480916, 2.727, 0.5419847, 2.727, -3.0458016
0.3216176, -0.0142672, 2.73375, -0.0889282, 2.73375, -0.9595337, 2.73375, -0.3821411, 2.73375, 0.6946565, 2.73375, 0.8167939, 2.73375, -3.1603053
0.3224118, -0.0157778, 2.7405, -0.0883179, 2.7405, -0.9591064, 2.7405, -0.3807983, 2.7405, 0.7633588, 2.7405, 1.091603, 2.7405, -2.9389312
0.3232059, -0.0135958, 2.74725, -0.0910645, 2.74725, -0.9581909, 2.74725, -0.3806763, 2.74725, 0.7175573, 2.74725, 1.1221374, 2.74725, -3.0229008
0.324, -0.0149386, 2.754, -0.0910645, 2.754, -0.9597168, 2.754, -0.3820801, 2.754, 0.7709923, 2.754, 1.1603054, 2.754, -3.0305343
0.3247941, -0.01561, 2.76075, -0.0897827, 2.76075, -0.9603882, 2.76075, -0.3799438, 2.76075, 0.7709923, 2.76075, 1.0458015, 2.76075, -3.129771
0.3255882, -0.0139315, 2.7675, -0.093689, 2.7675, -0.9633179, 2.7675, -0.37854, 2.7675, 0.8625954, 2.7675, 1.1908396, 2.7675, -2.9694657
0.3263824, -0.018967, 2.77425, -0.0945435, 2.77425, -0.9602661, 2.77425, -0.3759155, 2.77425, 0.9923664, 2.77425, 1.1908396, 2.77425, -3.1068702
0.3271765, -0.0149386, 2.781, -0.09198, 2.781, -0.9599609, 2.781, -0.3746948, 2.781, 0.8396947, 2.781, 1.1221374, 2.781, -2.9770992
0.3279706, -0.0135958, 2.78775, -0.0939331, 2.78775, -0.9574585, 2.78775, -0.37854, 2.78775, 0.9236641, 2.78775, 0.9694657, 2.78775, -3.1450381
0.3287647, -0.0162814, 2.7945, -0.0931396, 2.7945, -0.9574585, 2.7945, -0.378418, 2.7945, 0.8320611, 2.7945, 0.7709923, 2.7945, -3.0763359
0.3295588, -0.0162814, 2.80125, -0.0924072, 2.80125, -0.956604, 2.80125, -0.3771362, 2.80125, 0.8854962, 2.80125, 0.8625954, 2.80125, -3.2061069
0.3303529, -0.0176242, 2.808, -0.0932007, 2.808, -0.9584961, 2.808, -0.3795166, 2.808, 0.8396947, 2.808, 0.778626, 2.808, -3.1908398
0.3311471, -0.0186313, 2.81475, -0.0897217, 2.81475, -0.9596558, 2.81475, -0.3799438, 2.81475, 0.7633588, 2.81475, 0.7633588, 2.81475, -3.3740458
0.3319412, -0.0169528, 2.8215, -0.0889893, 2.8215, -0.9604492, 2.8215, -0.3811035, 2.8215, 0.8091603, 2.8215, 0.8931298, 2.8215, -3.2442749
0.3327353, -0.0162814, 2.82825, -0.0869141, 2.82825, -0.9575806, 2.82825, -0.383667, 2.82825, 0.8854962, 2.82825, 0.9389313, 2.82825, -3.0152671
0.3335294, -0.0159457, 2.835, -0.0894165, 2.835, -0.9596558, 2.835, -0.3828125, 2.835, 0.8549618, 2.835, 0.9847328, 2.835, -3.1145039
0.3343235, -0.0162814, 2.84175, -0.0880737, 2.84175, -0.961792, 2.84175, -0.3814697, 2.84175, 0.8778626, 2.84175, 1.0763359, 2.84175, -3.0152671
0.3351176, -0.0135958, 2.8485, -0.090271, 2.8485, -0.9606323, 2.8485, -0.3804321, 2.8485, 0.8854962, 2.8485, 1.0076336, 2.8485, -2.9312978
0.3359118, -0.0132601, 2.85525, -0.0915527, 2.85525, -0.9629517, 2.85525, -0.3818359, 2.85525, 0.7099237, 2.85525, 1.0763359, 2.85525, -3.1450381
0.3367059, -0.012253, 2.862, -0.0922852, 2.862, -0.9623413, 2.862, -0.3781128, 2.862, 0.778626, 2.862, 1.1603054, 2.862, -3.1832061
0.3375, -0.0162814, 2.86875, -0.0946655, 2.86875, -0.9620361, 2.86875, -0.3762207, 2.86875, 0.7480916, 2.86875, 0.8473282, 2.86875, -3.1679389
0.3382941, -0.0162814, 2.8755, -0.0960693, 2.8755, -0.960022, 2.8755, -0.3780518, 2.8755, 0.8244275, 2.8755, 0.6717557, 2.8755, -3.2977099
0.3390882, -0.0115816, 2.88225, -0.0927734, 2.88225, -0.9597778, 2.88225, -0.3775024, 2.88225, 0.8931298, 2.88225, 0.648855, 2.88225, -3.4503818
0.3398824, -0.0125887, 2.889, -0.0963745, 2.889, -0.9599609, 2.889, -0.3781738, 2.889, 0.9236641, 2.889, 0.5496183, 2.889, -3.4122138
0.3406765, -0.0152743, 2.89575, -0.0918579, 2.89575, -0.9591064, 2.89575, -0.3786621, 2.89575, 0.9770992, 2.89575, 0.5496183, 2.89575, -3.4427481
0.3414706, -0.0125887, 2.9025, -0.0928345, 2.9025, -0.9595337, 2.9025, -0.3796387, 2.9025, 0.9007633, 2.9025, 0.4045801, 2.9025, -3.4122138
0.3422647, -0.0109102, 2.90925, -0.0872803, 2.90925, -0.9589844, 2.90925, -0.3815918, 2.90925, 0.8473282, 2.90925, 0.4274809, 2.90925, -3.4961832
0.3430588, -0.0162814, 2.916, -0.0895386, 2.916, -0.9632568, 2.916, -0.3814087, 2.916, 0.9389313, 2.916, 0.6259542, 2.916, -3.3053436
0.3438529, -0.0149386, 2.92275, -0.086853, 2.92275, -0.9611206, 2.92275, -0.3794556, 2.92275, 0.908397, 2.92275, 0.8015267, 2.92275, -3.2290077
0.3446471, -0.0162814, 2.9295, -0.0841064, 2.9295, -0.9611816, 2.9295, -0.382019, 2.9295, 0.9236641, 2.9295, 0.9923664, 2.9295, -3.2366412
0.3454412, -0.0162814, 2.93625, -0.0877075, 2.93625, -0.9598999, 2.93625, -0.3820801, 2.93625, 0.9923664, 2.93625, 1.0839695, 2.93625, -3.2824428
0.3462353, -0.0139315, 2.943, -0.0908813, 2.943, -0.9598999, 2.943, -0.381958, 2.943, 1.038168, 2.943, 0.9770992, 2.943, -3.1679389
0.3470294, -0.0193027, 2.94975, -0.0916138, 2.94975, -0.9591064, 2.94975, -0.3787231, 2.94975, 0.961832, 2.94975, 1.0305344, 2.94975, -3.1526718
0.3478235, -0.0208133, 2.9565, -0.0925293, 2.9565, -0.9605103, 2.9565, -0.37854, 2.9565, 0.9694657, 2.9565, 0.9312977, 2.9565, -3.1908398
0.3486176, -0.0142672, 2.96325, -0.0927124, 2.96325, -0.9591675, 2.96325, -0.3776855, 2.96325, 0.870229, 2.96325, 0.8778626, 2.96325, -3.1374047
0.3494118, -0.014435, 2.97, -0.0922852, 2.97, -0.9592285, 2.97, -0.380249, 2.97, 0.870229, 2.97, 0.7328244, 2.97, -3.2290077
0.3502059, -0.0142672, 2.97675, -0.0914917, 2.97675, -0.9575806, 2.97675, -0.3782959, 2.97675, 0.9312977, 2.97675, 0.4885496, 2.97675, -3.3282442
0.351, -0.0146029, 2.9835, -0.0939941, 2.9835, -0.958252, 2.9835, -0.3781738, 2.9835, 0.961832, 2.9835, 0.4580153, 2.9835, -3.2748091
0.3517941, -0.0135958, 2.99025, -0.0942383, 2.99025, -0.960022, 2.99025, -0.3815308, 2.99025, 0.908397, 2.99025, 0.5343512, 2.99025, -3.2824428
0.3525882, -0.0115816, 2.997, -0.0927124, 2.997, -0.9609375, 2.997, -0.3795776, 2.997, 0.8244275, 2.997, 0.4503817, 2.997, -3.2977099
0.3533824, -0.0115816, 3.00375, -0.0930786, 3.00375, -0.9621582, 3.00375, -0.3821411, 3.00375, 1.0458015, 3.00375, 0.740458, 3.00375, -3.5267177
0.3541765, -0.0135958, 3.0105, -0.0895996, 3.0105, -0.9605103, 3.0105, -0.3812866, 3.0105, 0.961832, 3.0105, 0.6259542, 3.0105, -3.3129771
0.3549706, -0.0159457, 3.01725, -0.0900879, 3.01725, -0.9591675, 3.01725, -0.3799438, 3.01725, 1.0229008, 3.01725, 0.648855, 3.01725, -3.3282442
0.3557647, -0.0169528, 3.024, -0.0913696, 3.024, -0.9611206, 3.024, -0.3822021, 3.024, 1.1526718, 3.024, 0.7099237, 3.024, -3.4580152
0.3565588, -0.0137636, 3.03075, -0.0900879, 3.03075, -0.9589233, 3.03075, -0.3792725, 3.03075, 1.1068702, 3.03075, 0.7099237, 3.03075, -3.091603
0.3573529, -0.0132601, 3.0375, -0.0924072, 3.0375, -0.9594727, 3.0375, -0.3813477, 3.0375, 1.1068702, 3.0375, 0.5725191, 3.0375, -3.3435113
0.3581471, -0.0157778, 3.04425, -0.0950317, 3.04425, -0.9608154, 3.04425, -0.3788452, 3.04425, 1.1526718, 3.04425, 0.5572519, 3.04425, -3.2977099
0.3589412, -0.0196384, 3.051, -0.0933228, 3.051, -0.9621582, 3.051, -0.3760376, 3.051, 1.0839695, 3.051, 0.4351145, 3.051, -3.5343511
0.3597353, -0.0209812, 3.05775, -0.093689, 3.05775, -0.9606323, 3.05775, -0.3762817, 3.05775, 1.091603, 3.05775, 0.4274809, 3.05775, -3.4351146
0.3605294, -0.0162814, 3.0645, -0.0945435, 3.0645, -0.9594727, 3.0645, -0.3781738, 3.0645, 1.1526718, 3.0645, 0.2366412, 3.0645, -3.5267177
0.3613235, -0.0176242, 3.07125, -0.0917358, 3.07125, -0.9585571, 3.07125, -0.3829346, 3.07125, 1.1145039, 3.07125, 0.1832061, 3.07125, -3.519084
0.3621176, -0.0209812, 3.078, -0.0901489, 3.078, -0.9561157, 3.078, -0.3813477, 3.078, 1.0992366, 3.078, 0.221374, 3.078, -3.2977099
0.3629118, -0.0198062, 3.08475, -0.0883789, 3.08475, -0.9572144, 3.08475, -0.3818359, 3.08475, 1.0152671, 3.08475, 0.1603053, 3.08475, -3.3282442
0.3637059, -0.0176242, 3.0915, -0.0878906, 3.0915, -0.9602051, 3.0915, -0.3831787, 3.0915, 1.0229008, 3.0915, 0.4045801, 3.0915, -3.3435113
0.3645, -0.0166171, 3.09825, -0.0842285, 3.09825, -0.9627686, 3.09825, -0.3844604, 3.09825, 1.0534351, 3.09825, 0.7633588, 3.09825, -3.3969467
0.3652941, -0.012253, 3.105, -0.0858154, 3.105, -0.9634399, 3.105, -0.3820801, 3.105, 1.0458015, 3.105, 0.7709923, 3.105, -3.1450381
0.3660882, -0.0129244, 3.11175, -0.086792, 3.11175, -0.9619141, 3.11175, -0.3813477, 3.11175, 1.0305344, 3.11175, 0.8549618, 3.11175, -3.091603
0.3668824, -0.0095674, 3.1185, -0.088623, 3.1185, -0.9608765, 3.1185, -0.3800659, 3.1185, 0.9541985, 3.1185, 0.9465649, 3.1185, -2.9923663
0.3676765, -0.011078, 3.12525, -0.0891724, 3.12525, -0.9612427, 3.12525, -0.3815918, 3.12525, 1.1679389, 3.12525, 1.0687023, 3.12525, -3.1221373
0.3684706, -0.0099031, 3.132, -0.0908203, 3.132, -0.9591675, 3.132, -0.3822021, 3.132, 1.0763359, 3.132, 0.9694657, 3.132, -3.2290077
0.3692647, -0.0065461, 3.13875, -0.0924072, 3.13875, -0.9606934, 3.13875, -0.3824463, 3.13875, 0.8396947, 3.13875, 0.908397, 3.13875, -3.0610688
0.3700588, -0.0075532, 3.1455, -0.0952759, 3.1455, -0.9585571, 3.1455, -0.3821411, 3.1455, 1.038168, 3.1455, 0.7633588, 3.1455, -3.2290077
0.3708529, -0.0082246, 3.15225, -0.0914917, 3.15225, -0.9596558, 3.15225, -0.3825684, 3.15225, 0.9770992, 3.15225, 0.8854962, 3.15225, -3.1603053
0.3716471, -0.0075532, 3.159, -0.0921631, 3.159, -0.9592896, 3.159, -0.3840942, 3.159, 0.8625954, 3.159, 0.7175573, 3.159, -3.2748091
0.3724412, -0.0085603, 3.16575, -0.0884399, 3.16575, -0.9592285, 3.16575, -0.3787842, 3.16575, 1.0610687, 3.16575, 0.870229, 3.16575, -3.1679389
0.3732353, -0.011078, 3.1725, -0.0874023, 3.1725, -0.9603882, 3.1725, -0.3811035, 3.1725, 1.1145039, 3.1725, 0.9465649, 3.1725, -3.1603053
0.3740294, -0.0135958, 3.17925, -0.0883789, 3.17925, -0.958252, 3.17925, -0.3840332, 3.17925, 1.1450381, 3.17925, 1.1679389, 3.17925, -3.1679389
0.3748235, -0.0139315, 3.186, -0.0901489, 3.186, -0.9558105, 3.186, -0.3834839, 3.186, 1.1374046, 3.186, 1.2824427, 3.186, -3.0076337
0.3756176, -0.0182956, 3.19275, -0.0904541, 3.19275, -0.9562378, 3.19275, -0.3814697, 3.19275, 1.2977099, 3.19275, 1.3053435, 3.19275, -3.1145039
0.3764118, -0.0169528, 3.1995, -0.09375, 3.1995, -0.958313, 3.1995, -0.381958, 3.1995, 1.2748091, 3.1995, 1.4122137, 3.1995, -2.961832
0.3772059, -0.01561, 3.20625, -0.0922852, 3.20625, -0.956604, 3.20625, -0.3809204, 3.20625, 1.1908396, 3.20625, 1.1984733, 3.20625, -3.0839694
0.378, -0.0149386, 3.213, -0.0928955, 3.213, -0.9559937, 3.213, -0.3803711, 3.213, 1.3206106, 3.213, 1.0534351, 3.213, -3.0305343
0.3787941, -0.0130922, 3.21975, -0.0931396, 3.21975, -0.9597778, 3.21975, -0.3816528, 3.21975, 1.0992366, 3.21975, 0.9847328, 3.21975, -3.2671757
0.3795882, -0.01561, 3.2265, -0.0947266, 3.2265, -0.9616089, 3.2265, -0.3847046, 3.2265, 1.2442749, 3.2265, 0.9465649, 3.2265, -3.1755726
0.3803824, -0.0182956, 3.23325, -0.0963135, 3.23325, -0.9591064, 3.23325, -0.3855591, 3.23325, 1.4122137, 3.23325, 0.7099237, 3.23325, -3.3435113
0.3811765, -0.0186313, 3.24, -0.0925293, 3.24, -0.9603882, 3.24, -0.3822021, 3.24, 1.3664122, 3.24, 0.8625954, 3.24, -3.2290077
0.3819706, -0.018967, 3.24675, -0.0892334, 3.24675, -0.9606323, 3.24675, -0.3848877, 3.24675, 1.3053435, 3.24675, 0.8320611, 3.24675, -3.3435113
0.3827647, -0.0203098, 3.2535, -0.0895386, 3.2535, -0.9626465, 3.2535, -0.3817139, 3.2535, 1.4122137, 3.2535, 0.8244275, 3.2535, -3.1679389
0.3835588, -0.0159457, 3.26025, -0.0913696, 3.26025, -0.9614868, 3.26025, -0.3839722, 3.26025, 1.4580153, 3.26025, 1.0687023, 3.26025, -3.0992367
0.3843529, -0.0129244, 3.267, -0.0906982, 3.267, -0.9604492, 3.267, -0.383667, 3.267, 1.351145, 3.267, 0.9770992, 3.267, -3.221374
0.3851471, -0.0082246, 3.27375, -0.0926514, 3.27375, -0.9631348, 3.27375, -0.3822021, 3.27375, 1.4961832, 3.27375, 1.091603, 3.27375, -3.1603053
0.3859412, -0.0078889, 3.2805, -0.0924683, 3.2805, -0.9594116, 3.2805, -0.3813477, 3.2805, 1.4961832, 3.2805, 1.0305344, 3.2805, -3.2977099
0.3867353, -0.0090639, 3.28725, -0.0929565, 3.28725, -0.960022, 3.28725, -0.3799438, 3.28725, 1.5038168, 3.28725, 0.7328244, 3.28725, -3.2824428
0.3875294, -0.0097353, 3.294, -0.0910034, 3.294, -0.961792, 3.294, -0.3833008, 3.294, 1.5725191, 3.294, 0.7099237, 3.294, -3.2290077
0.3883235, -0.0109102, 3.30075, -0.0891113, 3.30075, -0.961853, 3.30075, -0.3795776, 3.30075, 1.4732825, 3.30075, 0.5877863, 3.30075, -3.2061069
0.3891176, -0.0149386, 3.3075, -0.0911255, 3.3075, -0.9642944, 3.3075, -0.3803711, 3.3075, 1.5801526, 3.3075, 0.5496183, 3.3075, -3.3358779
0.3899118, -0.0229953, 3.31425, -0.0852661, 3.31425, -0.961731, 3.31425, -0.3797607, 3.31425, 1.4656489, 3.31425, 0.6717557, 3.31425, -3.4961832
0.3907059, -0.0206455, 3.321, -0.0921631, 3.321, -0.9560547, 3.321, -0.3793945, 3.321, 1.3435115, 3.321, 0.7633588, 3.321, -3.3435113
0.3915, -0.0151064, 3.32775, -0.0931396, 3.32775, -0.9562988, 3.32775, -0.3751831, 3.32775, 1.4427481, 3.32775, 0.6717557, 3.32775, -3.4885497
0.3922941, -0.0169528, 3.3345, -0.090332, 3.3345, -0.9603882, 3.3345, -0.3803711, 3.3345, 1.4580153, 3.3345, 0.7328244, 3.3345, -3.3206108
0.3930882, -0.0169528, 3.34125, -0.0899048, 3.34125, -0.9592896, 3.34125, -0.3789673, 3.34125, 1.4122137, 3.34125, 0.5801527, 3.34125, -3.4045801
0.3938824, -0.0172885, 3.348, -0.0897827, 3.348, -0.9614258, 3.348, -0.3788452, 3.348, 1.3053435, 3.348, 0.389313, 3.348, -3.3816793
0.3946765, -0.0179599, 3.35475, -0.0923462, 3.35475, -0.9624023, 3.35475, -0.3765259, 3.35475, 1.4045801, 3.35475, 0.5267175, 3.35475, -3.3664122
0.3954706, -0.0174563, 3.3615, -0.0913696, 3.3615, -0.9567871, 3.3615, -0.3779297, 3.3615, 1.5114504, 3.3615, 0.5725191, 3.3615, -3.3435113
0.3962647, -0.018967, 3.36825, -0.0904541, 3.36825, -0.9589844, 3.36825, -0.3778076, 3.36825, 1.4045801, 3.36825, 0.3587786, 3.36825, -3.2748091
0.3970588, -0.0196384, 3.375, -0.090332, 3.375, -0.9584351, 3.375, -0.3786011, 3.375, 1.480916, 3.375, 0.4198473, 3.375, -3.3129771
0.3978529, -0.018967, 3.38175, -0.0925903, 3.38175, -0.9571533, 3.38175, -0.3797607, 3.38175, 1.4274809, 3.38175, 0.3435115, 3.38175, -3.2824428
0.3986471, -0.01561, 3.3885, -0.0901489, 3.3885, -0.9619141, 3.3885, -0.3792114, 3.3885, 1.4351145, 3.3885, 0.5572519, 3.3885, -3.2671757
0.3994412, -0.0142672, 3.39525, -0.0892334, 3.39525, -0.9613037, 3.39525, -0.3786621, 3.39525, 1.3358779, 3.39525, 0.648855, 3.39525, -3.3740458
0.4002353, -0.0149386, 3.402, -0.0871582, 3.402, -0.9591064, 3.402, -0.3805542, 3.402, 1.4122137, 3.402, 0.7099237, 3.402, -3.3435113
0.4010294, -0.0139315, 3.40875, -0.0886841, 3.40875, -0.9599609, 3.40875, -0.3817139, 3.40875, 1.4961832, 3.40875, 0.6641222, 3.40875, -3.3206108
0.4018235, -0.0142672, 3.4155, -0.0879517, 3.4155, -0.9603271, 3.4155, -0.3834839, 3.4155, 1.4198474, 3.4155, 0.7480916, 3.4155, -3.1832061
0.4026176, -0.0162814, 3.42225, -0.0888062, 3.42225, -0.9608154, 3.42225, -0.3828735, 3.42225, 1.4045801, 3.42225, 0.740458, 3.42225, -3.2900763
0.4034118, -0.0139315, 3.429, -0.088562, 3.429, -0.9627686, 3.429, -0.3799438, 3.429, 1.5572519, 3.429, 0.778626, 3.429, -3.2671757
0.4042059, -0.0109102, 3.43575, -0.0894165, 3.43575, -0.9621582, 3.43575, -0.3812866, 3.43575, 1.5725191, 3.43575, 0.8244275, 3.43575, -3.2671757
0.405, -0.0092317, 3.4425, -0.0911865, 3.4425, -0.9620972, 3.4425, -0.3823853, 3.4425, 1.480916, 3.4425, 0.9465649, 3.4425, -3.2900763
0.4057941, -0.0095674, 3.44925, -0.090332, 3.44925, -0.958374, 3.44925, -0.3822021, 3.44925, 1.389313, 3.44925, 0.8854962, 3.44925, -3.2671757
0.4065882, -0.012253, 3.456, -0.0905762, 3.456, -0.960022, 3.456, -0.3798828, 3.456, 1.4656489, 3.456, 0.9923664, 3.456, -3.2671757
0.4073824, -0.0152743, 3.46275, -0.095459, 3.46275, -0.956665, 3.46275, -0.3772583, 3.46275, 1.5114504, 3.46275, 0.870229, 3.46275, -3.091603
0.4081765, -0.0149386, 3.4695, -0.090332, 3.4695, -0.9577026, 3.4695, -0.3790283, 3.4695, 1.5267175, 3.4695, 0.8778626, 3.4695, -3.1145039
0.4089706, -0.0142672, 3.47625, -0.0914917, 3.47625, -0.956543, 3.47625, -0.3787842, 3.47625, 1.4732825, 3.47625, 0.7709923, 3.47625, -3.1984732
0.4097647, -0.0149386, 3.483, -0.0928345, 3.483, -0.9595947, 3.483, -0.3776245, 3.483, 1.6412214, 3.483, 0.6259542, 3.483, -3.2290077
0.4105588, -0.0166171, 3.48975, -0.0938721, 3.48975, -0.958374, 3.48975, -0.3772583, 3.48975, 1.5038168, 3.48975, 0.7251908, 3.48975, -3.259542
0.4113529, -0.018967, 3.4965, -0.0922241, 3.4965, -0.9591675, 3.4965, -0.3816528, 3.4965, 1.5572519, 3.4965, 0.5419847, 3.4965, -3.2824428
0.4121471, -0.0176242, 3.50325, -0.09375, 3.50325, -0.9624023, 3.50325, -0.380188, 3.50325, 1.4351145, 3.50325, 0.5801527, 3.50325, -3.3435113
0.4129412, -0.0182956, 3.51, -0.0908813, 3.51, -0.960144, 3.51, -0.3809814, 3.51, 1.4961832, 3.51, 0.519084, 3.51, -3.259542
0.4137353, -0.0193027, 3.51675, -0.090332, 3.51675, -0.9587402, 3.51675, -0.3788452, 3.51675, 1.5801526, 3.51675, 0.5648855, 3.51675, -3.389313
0.4145294, -0.0162814, 3.5235, -0.090332, 3.5235, -0.9604492, 3.5235, -0.3796997, 3.5235, 1.6030535, 3.5235, 0.6335878, 3.5235, -3.3053436
0.4153235, -0.0152743, 3.53025, -0.0905762, 3.53025, -0.9599609, 3.53025, -0.3798218, 3.53025, 1.5267175, 3.53025, 0.5343512, 3.53025, -3.0610688
0.4161176, -0.0139315, 3.537, -0.0908813, 3.537, -0.9613037, 3.537, -0.3789062, 3.537, 1.480916, 3.537, 0.7709923, 3.537, -3.1145039
0.4169118, -0.0129244, 3.54375, -0.0922852, 3.54375, -0.9595947, 3.54375, -0.3786621, 3.54375, 1.5496184, 3.54375, 0.7328244, 3.54375, -3.1679389
0.4177059, -0.0115816, 3.5505, -0.0892334, 3.5505, -0.9584961, 3.5505, -0.3793335, 3.5505, 1.4732825, 3.5505, 0.6793893, 3.5505, -3.2061069
0.4185, -0.0102388, 3.55725, -0.0877686, 3.55725, -0.9586182, 3.55725, -0.3775635, 3.55725, 1.3282443, 3.55725, 0.610687, 3.55725, -3.0687022
0.4192941, -0.0137636, 3.564, -0.09198, 3.564, -0.9578247, 3.564, -0.3808594, 3.564, 1.4351145, 3.564, 0.6030535, 3.564, -3.0610688
0.4200882, -0.0139315, 3.57075, -0.0891724, 3.57075, -0.9604492, 3.57075, -0.3776855, 3.57075, 1.5038168, 3.57075, 0.610687, 3.57075, -3.1526718
0.4208824, -0.0139315, 3.5775, -0.0924683, 3.5775, -0.9602051, 3.5775, -0.3804321, 3.5775, 1.4656489, 3.5775, 0.7175573, 3.5775, -3.0687022
0.4216765, -0.0129244, 3.58425, -0.0893555, 3.58425, -0.9594727, 3.58425, -0.3817749, 3.58425, 1.3282443, 3.58425, 0.7938932, 3.58425, -3.0305343
0.4224706, -0.0115816, 3.591, -0.0892334, 3.591, -0.9588623, 3.591, -0.3806152, 3.591, 1.1755725, 3.591, 0.8167939, 3.591, -3.2442749
0.4232647, -0.0159457, 3.59775, -0.0900269, 3.59775, -0.9594116, 3.59775, -0.3778076, 3.59775, 1.3435115, 3.59775, 0.8015267, 3.59775, -3.2137403
0.4240588, -0.0140993, 3.6045, -0.0946045, 3.6045, -0.9611816, 3.6045, -0.3787842, 3.6045, 1.4045801, 3.6045, 0.7709923, 3.6045, -3.0305343
0.4248529, -0.012253, 3.61125, -0.0933228, 3.61125, -0.9603271, 3.61125, -0.3814697, 3.61125, 1.3587786, 3.61125, 0.7175573, 3.61125, -3.2290077
0.4256471, -0.0130922, 3.618, -0.0933838, 3.618, -0.960144, 3.618, -0.380188, 3.618, 1.4732825, 3.618, 0.870229, 3.618, -3.2519083
0.4264412, -0.0146029, 3.62475, -0.0924683, 3.62475, -0.9570312, 3.62475, -0.3786011, 3.62475, 1.3740458, 3.62475, 0.8549618, 3.62475, -3.2442749
0.4272353, -0.017792, 3.6315, -0.0924072, 3.6315, -0.9597778, 3.6315, -0.3770752, 3.6315, 1.4503816, 3.6315, 0.7251908, 3.6315, -3.1832061
0.4280294, -0.0182956, 3.63825, -0.0932617, 3.63825, -0.9631348, 3.63825, -0.380188, 3.63825, 1.4503816, 3.63825, 0.5648855, 3.63825, -3.4885497
0.4288235, -0.0162814, 3.645, -0.0906982, 3.645, -0.9614258, 3.645, -0.3816528, 3.645, 1.5496184, 3.645, 0.4961832, 3.645, -3.1450381
0.4296176, -0.018967, 3.65175, -0.0909424, 3.65175, -0.960083, 3.65175, -0.3796997, 3.65175, 1.519084, 3.65175, 0.4274809, 3.65175, -3.3282442
0.4304118, -0.0182956, 3.6585, -0.0883789, 3.6585, -0.9625854, 3.6585, -0.3814087, 3.6585, 1.4045801, 3.6585, 0.4045801, 3.6585, -3.3435113
0.4312059, -0.0166171, 3.66525, -0.0874634, 3.66525, -0.9595337, 3.66525, -0.381958, 3.66525, 1.4885496, 3.66525, 0.5877863, 3.66525, -3.2977099
0.432, -0.018967, 3.672, -0.0893555, 3.672, -0.960144, 3.672, -0.3815918, 3.672, 1.6183206, 3.672, 0.7175573, 3.672, -3.2442749
0.4327941, -0.0176242, 3.67875, -0.0897217, 3.67875, -0.9624634, 3.67875, -0.3822021, 3.67875, 1.4122137, 3.67875, 0.7633588, 3.67875, -3.1374047
0.4335882, -0.01561, 3.6855, -0.0891724, 3.6855, -0.9599609, 3.6855, -0.3822632, 3.6855, 1.5572519, 3.6855, 0.7099237, 3.6855, -3.1908398
0.4343824, -0.0142672, 3.69225, -0.090332, 3.69225, -0.9597168, 3.69225, -0.3797607, 3.69225, 1.4732825, 3.69225, 0.8396947, 3.69225, -3.0763359
0.4351765, -0.0117494, 3.699, -0.0896606, 3.699, -0.9616089, 3.699, -0.3798218, 3.699, 1.5038168, 3.699, 0.7022901, 3.699, -3.0152671
0.4359706, -0.0132601, 3.70575, -0.0899658, 3.70575, -0.9588013, 3.70575, -0.3780518, 3.70575, 1.5725191, 3.70575, 0.7328244, 3.70575, -3.0839694
0.4367647, -0.0099031, 3.7125, -0.0906982, 3.7125, -0.9607544, 3.7125, -0.3770142, 3.7125, 1.5801526, 3.7125, 0.8778626, 3.7125, -3.2290077
0.4375588, -0.0085603, 3.71925, -0.0935669, 3.71925, -0.9626465, 3.71925, -0.3804932, 3.71925, 1.4961832, 3.71925, 1.0076336, 3.71925, -3.0687022
0.4383529, -0.008896, 3.726, -0.0910645, 3.726, -0.961792, 3.726, -0.378418, 3.726, 1.6412214, 3.726, 0.9694657, 3.726, -3.0076337
0.4391471, -0.0115816, 3.73275, -0.0924072, 3.73275, -0.9606934, 3.73275, -0.3770142, 3.73275, 1.6641221, 3.73275, 0.9007633, 3.73275, -2.9541984
0.4399412, -0.012253, 3.7395, -0.0927734, 3.7395, -0.9627075, 3.7395, -0.3791504, 3.7395, 1.5038168, 3.7395, 0.778626, 3.7395, -2.9770992
0.4407353, -0.010071, 3.74625, -0.0916748, 3.74625, -0.9630127, 3.74625, -0.375, 3.74625, 1.519084, 3.74625, 0.9007633, 3.74625, -2.961832
0.4415294, -0.0092317, 3.753, -0.0930176, 3.753, -0.9602661, 3.753, -0.3769531, 3.753, 1.4351145, 3.753, 0.7251908, 3.753, -3.1450381
0.4423235, -0.0117494, 3.75975, -0.0933228, 3.75975, -0.9616089, 3.75975, -0.3762817, 3.75975, 1.3435115, 3.75975, 0.5267175, 3.75975, -3.1068702
0.4431176, -0.0146029, 3.7665, -0.0949097, 3.7665, -0.9598999, 3.7665, -0.3777466, 3.7665, 1.2824427, 3.7665, 0.4885496, 3.7665, -3.1984732
0.4439118, -0.0162814, 3.77325, -0.0915527, 3.77325, -0.9606934, 3.77325, -0.3799438, 3.77325, 1.4122137, 3.77325, 0.5419847, 3.77325, -3.1832061
0.4447059, -0.0149386, 3.78, -0.0924683, 3.78, -0.9616089, 3.78, -0.3790894, 3.78, 1.3129771, 3.78, 0.519084, 3.78, -3.0763359
0.4455, -0.0149386, 3.78675, -0.0925903, 3.78675, -0.9602051, 3.78675, -0.3781738, 3.78675, 1.3358779, 3.78675, 0.7022901, 3.78675, -2.9847329
0.4462941, -0.0140993, 3.7935, -0.0893555, 3.7935, -0.960022, 3.7935, -0.3758545, 3.7935, 1.2977099, 3.7935, 0.7557252, 3.7935, -3.0687022
0.4470882, -0.0169528, 3.80025, -0.0927734, 3.80025, -0.9588623, 3.80025, -0.3756104, 3.80025, 1.3664122, 3.80025, 0.7328244, 3.80025, -3.038168
0.4478824, -0.017792, 3.807, -0.093689, 3.807, -0.9598999, 3.807, -0.3775024, 3.807, 1.2442749, 3.807, 0.8167939, 3.807, -3.221374
0.4486765, -0.0149386, 3.81375, -0.0935669, 3.81375, -0.9607544, 3.81375, -0.3766479, 3.81375, 1.1984733, 3.81375, 0.519084, 3.81375, -3.1374047
0.4494706, -0.0120851, 3.8205, -0.09375, 3.8205, -0.9609985, 3.8205, -0.3740234, 3.8205, 1.3816794, 3.8205, 0.2366412, 3.8205, -3.1832061
0.4502647, -0.0125887, 3.82725, -0.0944214, 3.82725, -0.9622803, 3.82725, -0.3752441, 3.82725, 1.1221374, 3.82725, 0.3435115, 3.82725, -3.1145039
0.4510588, -0.0149386, 3.834, -0.0934448, 3.834, -0.9605103, 3.834, -0.3761597, 3.834, 1.2366412, 3.834, 0.3435115, 3.834, -3.1221373
0.4518529, -0.0146029, 3.84075, -0.0899658, 3.84075, -0.9602051, 3.84075, -0.3791504, 3.84075, 1.0839695, 3.84075, 0.2671756, 3.84075, -3.2519083
0.4526471, -0.0142672, 3.8475, -0.0897827, 3.8475, -0.9605103, 3.8475, -0.3764648, 3.8475, 1.3206106, 3.8475, 0.4351145, 3.8475, -3.0992367
0.4534412, -0.0166171, 3.85425, -0.086853, 3.85425, -0.9588013, 3.85425, -0.3788452, 3.85425, 1.1908396, 3.85425, 0.5267175, 3.85425, -2.9160306
0.4542353, -0.0152743, 3.861, -0.0877075, 3.861, -0.9589233, 3.861, -0.381897, 3.861, 1.1908396, 3.861, 0.5343512, 3.861, -3.1908398
0.4550294, -0.012253, 3.86775, -0.0904541, 3.86775, -0.9608765, 3.86775, -0.380249, 3.86775, 1.221374, 3.86775, 0.740458, 3.86775, -3.1526718
0.4558235, -0.0152743, 3.8745, -0.0910645, 3.8745, -0.9591064, 3.8745, -0.3789673, 3.8745, 1.2366412, 3.8745, 0.7328244, 3.8745, -3.0534351
0.4566176, -0.0172885, 3.88125, -0.0961304, 3.88125, -0.9591064, 3.88125, -0.3788452, 3.88125, 1.3358779, 3.88125, 0.7022901, 3.88125, -3.1755726
0.4574118, -0.0196384, 3.888, -0.0941162, 3.888, -0.9619141, 3.888, -0.3770142, 3.888, 1.2519084, 3.888, 0.778626, 3.888, -3.1984732
0.4582059, -0.018967, 3.89475, -0.0950928, 3.89475, -0.960083, 3.89475, -0.3779907, 3.89475, 1.1679389, 3.89475, 0.6183206, 3.89475, -3.2061069
0.459, -0.0182956, 3.9015, -0.0932007, 3.9015, -0.9614868, 3.9015, -0.3763428, 3.9015, 1.2137405, 3.9015, 0.6564885, 3.9015, -3.2824428
0.4597941, -0.0176242, 3.90825, -0.0928955, 3.90825, -0.9613647, 3.90825, -0.3795166, 3.90825, 1.221374, 3.90825, 0.6717557, 3.90825, -3.221374
0.4605882, -0.0166171, 3.915, -0.0924683, 3.915, -0.9607544, 3.915, -0.3788452, 3.915, 1.2519084, 3.915, 0.5954198, 3.915, -3.3129771
0.4613824, -0.0191348, 3.92175, -0.0945435, 3.92175, -0.9598389, 3.92175, -0.3774414, 3.92175, 1.2290076, 3.92175, 0.4503817, 3.92175, -3.389313
0.4621765, -0.0169528, 3.9285, -0.0916748, 3.9285, -0.9622192, 3.9285, -0.3778687, 3.9285, 1.3969465, 3.9285, 0.4885496, 3.9285, -3.3816793
0.4629706, -0.0164492, 3.93525, -0.09552, 3.93525, -0.9589233, 3.93525, -0.380188, 3.93525, 1.351145, 3.93525, 0.4580153, 3.93525, -3.1068702
0.4637647, -0.0162814, 3.942, -0.0944824, 3.942, -0.9592285, 3.942, -0.3773804, 3.942, 1.2824427, 3.942, 0.5725191, 3.942, -3.259542
0.4645588, -0.0149386, 3.94875, -0.0928955, 3.94875, -0.9606323, 3.94875, -0.37854, 3.94875, 1.2061069, 3.94875, 0.5496183, 3.94875, -3.3282442
0.4653529, -0.0176242, 3.9555, -0.0894775, 3.9555, -0.9624634, 3.9555, -0.3814697, 3.9555, 1.4351145, 3.9555, 0.6259542, 3.9555, -3.1984732
0.4661471, -0.0176242, 3.96225, -0.0899048, 3.96225, -0.9591675, 3.96225, -0.3803101, 3.96225, 1.3206106, 3.96225, 0.6946565, 3.96225, -3.3435113
0.4669412, -0.01561, 3.969, -0.0903931, 3.969, -0.958252, 3.969, -0.3792114, 3.969, 1.4274809, 3.969, 0.6030535, 3.969, -3.1145039
0.4677353, -0.0109102, 3.97575, -0.0915527, 3.97575, -0.9585571, 3.97575, -0.3799438, 3.97575, 1.4122137, 3.97575, 0.8396947, 3.97575, -3.0076337
0.4685294, -0.0095674, 3.9825, -0.0913696, 3.9825, -0.9596558, 3.9825, -0.3787842, 3.9825, 1.5648855, 3.9825, 0.8244275, 3.9825, -3.2442749
0.4693235, -0.0082246, 3.98925, -0.0907593, 3.98925, -0.9619141, 3.98925, -0.3781738, 3.98925, 1.5038168, 3.98925, 0.9007633, 3.98925, -3.0229008
0.4701176, -0.0090639, 3.996, -0.0906982, 3.996, -0.965271, 3.996, -0.3804932, 3.996, 1.3282443, 3.996, 0.908397, 3.996, -3.259542
0.4709118, -0.0068818, 4.00275, -0.0931396, 4.00275, -0.961731, 4.00275, -0.3776245, 4.00275, 1.4274809, 4.00275, 0.8625954, 4.00275, -3.1145039
0.4717059, -0.0065461, 4.0095, -0.0942993, 4.0095, -0.9591675, 4.0095, -0.3777466, 4.0095, 1.3206106, 4.0095, 0.6259542, 4.0095, -3.2137403
0.4725, -0.0085603, 4.01625, -0.0928345, 4.01625, -0.9624634, 4.01625, -0.3783569, 4.01625, 1.3358779, 4.01625, 0.6717557, 4.01625, -3.2900763
0.4732941, -0.0077211, 4.023, -0.0932617, 4.023, -0.961853, 4.023, -0.3778076, 4.023, 1.1832061, 4.023, 0.6030535, 4.023, -3.1679389
0.4740882, -0.0092317, 4.02975, -0.0925293, 4.02975, -0.9616699, 4.02975, -0.3778076, 4.02975, 1.259542, 4.02975, 0.4732825, 4.02975, -3.3969467
0.4748824, -0.0115816, 4.0365, -0.0886841, 4.0365, -0.9595337, 4.0365, -0.3795776, 4.0365, 1.3969465, 4.0365, 0.5725191, 4.0365, -3.2519083
0.4756765, -0.0129244, 4.04325, -0.0888672, 4.04325, -0.9613037, 4.04325, -0.3790894, 4.04325, 1.3740458, 4.04325, 0.610687, 4.04325, -3.3435113
0.4764706, -0.0149386, 4.05, -0.0890503, 4.05, -0.9613647, 4.05, -0.3804932, 4.05, 1.2977099, 4.05, 0.6030535, 4.05, -3.221374
0.4772647, -0.012253, 4.05675, -0.0880737, 4.05675, -0.960144, 4.05675, -0.3760376, 4.05675, 1.3053435, 4.05675, 0.7938932, 4.05675, -3.0839694
0.4780588, -0.0162814, 4.0635, -0.0901489, 4.0635, -0.9643555, 4.0635, -0.3759766, 4.0635, 1.389313, 4.0635, 0.9389313, 4.0635, -3.2519083
0.4788529, -0.0203098, 4.07025, -0.0901489, 4.07025, -0.9605103, 4.07025, -0.3791504, 4.07025, 1.1832061, 4.07025, 0.908397, 4.07025, -3.2137403
0.4796471, -0.0179599, 4.077, -0.0907593, 4.077, -0.9542847, 4.077, -0.3773193, 4.077, 1.2824427, 4.077, 0.870229, 4.077, -3.1679389
0.4804412, -0.0162814, 4.08375, -0.0934448, 4.08375, -0.9614868, 4.08375, -0.3779297, 4.08375, 1.4274809, 4.08375, 0.9465649, 4.08375, -3.1832061
0.4812353, -0.0152743, 4.0905, -0.0930176, 4.0905, -0.963501, 4.0905, -0.3807373, 4.0905, 1.1374046, 4.0905, 0.6259542, 4.0905, -3.2977099
0.4820294, -0.017792, 4.09725, -0.0949097, 4.09725, -0.9602051, 4.09725, -0.3773193, 4.09725, 1.3358779, 4.09725, 0.7175573, 4.09725, -3.2900763
0.4828235, -0.0146029, 4.104, -0.0910645, 4.104, -0.9587402, 4.104, -0.3757935, 4.104, 1.2748091, 4.104, 0.5877863, 4.104, -3.3053436
0.4836176, -0.012253, 4.11075, -0.0917358, 4.11075, -0.9616089, 4.11075, -0.3795166, 4.11075, 1.259542, 4.11075, 0.4122137, 4.11075, -3.3664122
0.4844118, -0.0115816, 4.1175, -0.09198, 4.1175, -0.9611816, 4.1175, -0.3776855, 4.1175, 1.3664122, 4.1175, 0.610687, 4.1175, -3.2977099
0.4852059, -0.0130922, 4.12425, -0.0876465, 4.12425, -0.9607544, 4.12425, -0.3776855, 4.12425, 1.2519084, 4.12425, 0.6259542, 4.12425, -3.3129771
0.486, -0.0125887, 4.131, -0.0895386, 4.131, -0.9615479, 4.131, -0.3812866, 4.131, 1.3282443, 4.131, 0.740458, 4.131, -3.2748091
0.4867941, -0.0107424, 4.13775, -0.088623, 4.13775, -0.9610596, 4.13775, -0.3806763, 4.13775, 1.1450381, 4.13775, 1, 4.13775, -3.2977099
0.4875882, -0.0095674, 4.1445, -0.0886841, 4.1445, -0.9589233, 4.1445, -0.378418, 4.1445, 1.2748091, 4.1445, 0.908397, 4.1445, -3.3053436
0.4883824, -0.0085603, 4.15125, -0.090332, 4.15125, -0.9577637, 4.15125, -0.3815918, 4.15125, 1.3587786, 4.15125, 0.961832, 4.15125, -3.1374047
0.4891765, -0.0109102, 4.158, -0.0905151, 4.158, -0.9609375, 4.158, -0.3812256, 4.158, 1.2977099, 4.158, 0.9312977, 4.158, -3.259542
0.4899706, -0.0117494, 4.16475, -0.092041, 4.16475, -0.9619141, 4.16475, -0.3807983, 4.16475, 1.1832061, 4.16475, 1.0305344, 4.16475, -3.2061069
0.4907647, -0.0159457, 4.1715, -0.0938721, 4.1715, -0.9637451, 4.1715, -0.3807983, 4.1715, 1.4274809, 4.1715, 1, 4.1715, -3.0839694
0.4915588, -0.0199741, 4.17825, -0.0922852, 4.17825, -0.9594116, 4.17825, -0.3776245, 4.17825, 1.221374, 4.17825, 0.9312977, 4.17825, -3.2442749
0.4923529, -0.0193027, 4.185, -0.0941772, 4.185, -0.9606323, 4.185, -0.3759766, 4.185, 1.4122137, 4.185, 0.8625954, 4.185, -3.351145
0.4931471, -0.0193027, 4.19175, -0.0950928, 4.19175, -0.9596558, 4.19175, -0.3781738, 4.19175, 1.1984733, 4.19175, 0.7175573, 4.19175, -3.480916
0.4939412, -0.0203098, 4.1985, -0.0948486, 4.1985, -0.9621582, 4.1985, -0.3754272, 4.1985, 1.1145039, 4.1985, 0.5801527, 4.1985, -3.2366412
0.4947353, -0.0193027, 4.20525, -0.0947266, 4.20525, -0.9595337, 4.20525, -0.3765869, 4.20525, 1.2900764, 4.20525, 0.4198473, 4.20525, -3.3435113
0.4955294, -0.0176242, 4.212, -0.0917969, 4.212, -0.9592285, 4.212, -0.3778076, 4.212, 1.221374, 4.212, 0.2442748, 4.212, -3.351145
0.4963235, -0.0176242, 4.21875, -0.0899048, 4.21875, -0.9625854, 4.21875, -0.3809204, 4.21875, 1.1984733, 4.21875, 0.2748092, 4.21875, -3.3435113
0.4971176, -0.0181277, 4.2255, -0.0876465, 4.2255, -0.9595947, 4.2255, -0.3789673, 4.2255, 1.3664122, 4.2255, 0.4961832, 4.2255, -3.3740458
0.4979118, -0.0135958, 4.23225, -0.0869751, 4.23225, -0.9587402, 4.23225, -0.3797607, 4.23225, 1.2748091, 4.23225, 0.4732825, 4.23225, -3.3435113
0.4987059, -0.0115816, 4.239, -0.0863037, 4.239, -0.9602051, 4.239, -0.3808594, 4.239, 1.2290076, 4.239, 0.6335878, 4.239, -3.3587787
0.4995, -0.0130922, 4.24575, -0.088623, 4.24575, -0.9632568, 4.24575, -0.3814087, 4.24575, 1.2137405, 4.24575, 0.6641222, 4.24575, -3.3053436
0.5002941, -0.0125887, 4.2525, -0.0889893, 4.2525, -0.9628906, 4.2525, -0.3798218, 4.2525, 1.3435115, 4.2525, 0.6946565, 4.2525, -3.3740458
0.5010882, -0.01561, 4.25925, -0.0895386, 4.25925, -0.9587402, 4.25925, -0.3789673, 4.25925, 1.3816794, 4.25925, 0.7251908, 4.25925, -3.2137403
0.5018824, -0.0146029, 4.266, -0.0895386, 4.266, -0.961731, 4.266, -0.3770752, 4.266, 1.2748091, 4.266, 0.6870229, 4.266, -3.0458016
0.5026765, -0.0146029, 4.27275, -0.0932617, 4.27275, -0.9608765, 4.27275, -0.3765869, 4.27275, 1.2519084, 4.27275, 0.6183206, 4.27275, -3.2519083
0.5034706, -0.0162814, 4.2795, -0.0914307, 4.2795, -0.9605103, 4.2795, -0.3760986, 4.2795, 1.2748091, 4.2795, 0.5801527, 4.2795, -3.2366412
0.5042647, -0.0130922, 4.28625, -0.0909424, 4.28625, -0.9570923, 4.28625, -0.3762207, 4.28625, 1.3664122, 4.28625, 0.5725191, 4.28625, -3.4198472
0.5050588, -0.0135958, 4.293, -0.0901489, 4.293, -0.9598389, 4.293, -0.37677, 4.293, 1.351145, 4.293, 0.5954198, 4.293, -3.4198472
0.5058529, -0.0127565, 4.29975, -0.0913696, 4.29975, -0.9577637, 4.29975, -0.3756714, 4.29975, 1.2900764, 4.29975, 0.5343512, 4.29975, -3.2442749
0.5066471, -0.0152743, 4.3065, -0.088562, 4.3065, -0.963501, 4.3065, -0.3774414, 4.3065, 1.4351145, 4.3065, 0.6641222, 4.3065, -3.1755726
0.5074412, -0.0166171, 4.31325, -0.0888672, 4.31325, -0.9629517, 4.31325, -0.3789062, 4.31325, 1.2671756, 4.31325, 0.7175573, 4.31325, -3.1145039
0.5082353, -0.0137636, 4.32, -0.0912476, 4.32, -0.9606323, 4.32, -0.3800049, 4.32, 1.221374, 4.32, 0.7709923, 4.32, -3.2442749
0.5090294, -0.0152743, 4.32675, -0.0887451, 4.32675, -0.9608765, 4.32675, -0.380188, 4.32675, 1.1984733, 4.32675, 0.908397, 4.32675, -3.129771
0.5098235, -0.0172885, 4.3335, -0.0894775, 4.3335, -0.9620361, 4.3335, -0.3779297, 4.3335, 1.2366412, 4.3335, 0.9770992, 4.3335, -3.038168
0.5106176, -0.0186313, 4.34025, -0.0899048, 4.34025, -0.9628906, 4.34025, -0.3775635, 4.34025, 1.2366412, 4.34025, 0.9694657, 4.34025, -3.129771
0.5114118, -0.0203098, 4.347, -0.0914307, 4.347, -0.9595947, 4.347, -0.3781738, 4.347, 1.2900764, 4.347, 0.8854962, 4.347, -2.9694657
0.5122059, -0.0196384, 4.35375, -0.0924683, 4.35375, -0.9613037, 4.35375, -0.3799438, 4.35375, 1.3435115, 4.35375, 0.8473282, 4.35375, -3.2061069
0.513, -0.0169528, 4.3605, -0.0917969, 4.3605, -0.9609985, 4.3605, -0.3781128, 4.3605, 1.2137405, 4.3605, 0.9541985, 4.3605, -3.0687022
0.5137941, -0.0179599, 4.36725, -0.09198, 4.36725, -0.9594727, 4.36725, -0.3764648, 4.36725, 1.1984733, 4.36725, 0.8549618, 4.36725, -3.1221373
0.5145882, -0.0162814, 4.374, -0.0925293, 4.374, -0.9596558, 4.374, -0.3770142, 4.374, 1.2061069, 4.374, 0.8778626, 4.374, -3
0.5153824, -0.014435, 4.38075, -0.0908813, 4.38075, -0.9605713, 4.38075, -0.3791504, 4.38075, 1.259542, 4.38075, 1.0992366, 4.38075, -3.1526718
0.5161765, -0.0134279, 4.3875, -0.0888672, 4.3875, -0.9619141, 4.3875, -0.3782959, 4.3875, 1.2824427, 4.3875, 0.9160305, 4.3875, -3.1450381
0.5169706, -0.0132601, 4.39425, -0.09021, 4.39425, -0.9592896, 4.39425, -0.3783569, 4.39425, 1.1068702, 4.39425, 0.8931298, 4.39425, -3.1145039
0.5177647, -0.0139315, 4.401, -0.0906982, 4.401, -0.9597778, 4.401, -0.37854, 4.401, 1.1145039, 4.401, 0.9770992, 4.401, -3.129771
0.5185588, -0.0139315, 4.40775, -0.0883789, 4.40775, -0.9586792, 4.40775, -0.3776245, 4.40775, 1.0229008, 4.40775, 0.8549618, 4.40775, -3.1908398
0.5193529, -0.0092317, 4.4145, -0.0881958, 4.4145, -0.9590454, 4.4145, -0.3783569, 4.4145, 1.1603054, 4.4145, 0.961832, 4.4145, -3.1755726
0.5201471, -0.0075532, 4.42125, -0.0891724, 4.42125, -0.960144, 4.42125, -0.3773804, 4.42125, 1, 4.42125, 1.0305344, 4.42125, -3.0992367
0.5209412, -0.0132601, 4.428, -0.0910645, 4.428, -0.9598389, 4.428, -0.37854, 4.428, 1.2366412, 4.428, 0.9007633, 4.428, -3.0076337
0.5217353, -0.0135958, 4.43475, -0.0942383, 4.43475, -0.9597168, 4.43475, -0.3791504, 4.43475, 1.0992366, 4.43475, 0.8320611, 4.43475, -3.0534351
0.5225294, -0.0119173, 4.4415, -0.0930176, 4.4415, -0.9591064, 4.4415, -0.3782959, 4.4415, 1.1832061, 4.4415, 1.0152671, 4.4415, -3.0610688
0.5233235, -0.0112459, 4.44825, -0.0947266, 4.44825, -0.9603271, 4.44825, -0.3764648, 4.44825, 1.1832061, 4.44825, 0.9770992, 4.44825, -3.3282442
0.5241176, -0.0112459, 4.455, -0.0942383, 4.455, -0.9620361, 4.455, -0.378479, 4.455, 1.091603, 4.455, 0.9389313, 4.455, -3.2519083
0.5249118, -0.0115816, 4.46175, -0.0974731, 4.46175, -0.9631348, 4.46175, -0.378418, 4.46175, 1.2290076, 4.46175, 0.8091603, 4.46175, -3.1832061
0.5257059, -0.0157778, 4.4685, -0.0977173, 4.4685, -0.9616089, 4.4685, -0.3812256, 4.4685, 1.091603, 4.4685, 0.6946565, 4.4685, -3.1068702
0.5265, -0.0176242, 4.47525, -0.0924072, 4.47525, -0.9615479, 4.47525, -0.3781128, 4.47525, 1.1908396, 4.47525, 0.4732825, 4.47525, -3.2824428
0.5272941, -0.0194705, 4.482, -0.0910645, 4.482, -0.9592285, 4.482, -0.3804321, 4.482, 1.2748091, 4.482, 0.3816794, 4.482, -3.2900763
0.5280882, -0.0216526, 4.48875, -0.0930176, 4.48875, -0.9624634, 4.48875, -0.3812256, 4.48875, 1.2366412, 4.48875, 0.4961832, 4.48875, -3.2366412
0.5288824, -0.0196384, 4.4955, -0.0908813, 4.4955, -0.9627686, 4.4955, -0.3815308, 4.4955, 1.1832061, 4.4955, 0.5343512, 4.4955, -3.3740458
0.5296765, -0.0176242, 4.50225, -0.0911255, 4.50225, -0.9606934, 4.50225, -0.3812866, 4.50225, 1.1526718, 4.50225, 0.740458, 4.50225, -3.1908398
0.5304706, -0.0166171, 4.509, -0.0883789, 4.509, -0.9588623, 4.509, -0.3792725, 4.509, 1.351145, 4.509, 0.7175573, 4.509, -3.1832061
0.5312647, -0.01561, 4.51575, -0.0908813, 4.51575, -0.9575806, 4.51575, -0.3787842, 4.51575, 1.1984733, 4.51575, 0.7938932, 4.51575, -3.3206108
0.5320588, -0.0135958, 4.5225, -0.0921021, 4.5225, -0.9589233, 4.5225, -0.3755493, 4.5225, 1.2900764, 4.5225, 0.7557252, 4.5225, -3.1984732
0.5328529, -0.0146029, 4.52925, -0.0929565, 4.52925, -0.9593506, 4.52925, -0.3770142, 4.52925, 1.3053435, 4.52925, 0.8396947, 4.52925, -3.1908398
0.5336471, -0.0129244, 4.536, -0.0931396, 4.536, -0.9605103, 4.536, -0.3764648, 4.536, 1.2519084, 4.536, 0.6946565, 4.536, -3.1068702
0.5344412, -0.0129244, 4.54275, -0.0959473, 4.54275, -0.9595337, 4.54275, -0.3747559, 4.54275, 1.2824427, 4.54275, 0.648855, 4.54275, -3.1374047
0.5352353, -0.0151064, 4.5495, -0.0950317, 4.5495, -0.9591675, 4.5495, -0.378479, 4.5495, 0.9923664, 4.5495, 0.5038168, 4.5495, -3.2671757
0.5360294, -0.0146029, 4.55625, -0.0921021, 4.55625, -0.9589233, 4.55625, -0.3761597, 4.55625, 1.1832061, 4.55625, 0.4580153, 4.55625, -3.2442749
0.5368235, -0.0112459, 4.563, -0.0924072, 4.563, -0.9603271, 4.563, -0.3765259, 4.563, 1.2519084, 4.563, 0.480916, 4.563, -3.3664122
0.5376176, -0.0135958, 4.56975, -0.0915527, 4.56975, -0.9603271, 4.56975, -0.3770752, 4.56975, 1.1526718, 4.56975, 0.351145, 4.56975, -3.221374
0.5384118, -0.0135958, 4.5765, -0.0900269, 4.5765, -0.9607544, 4.5765, -0.3790283, 4.5765, 1.2671756, 4.5765, 0.4580153, 4.5765, -3.3435113
0.5392059, -0.0139315, 4.58325, -0.0878296, 4.58325, -0.9614258, 4.58325, -0.3820801, 4.58325, 1.1450381, 4.58325, 0.5343512, 4.58325, -3.1984732
0.54, -0.0157778, 4.59, -0.0888672, 4.59, -0.9612427, 4.59, -0.3816528, 4.59, 1.1374046, 4.59, 0.5725191, 4.59, -3.259542
0.5407941, -0.0154421, 4.59675, -0.0897827, 4.59675, -0.9620361, 4.59675, -0.3815918, 4.59675, 1.0763359, 4.59675, 0.7557252, 4.59675, -3.3435113
0.5415882, -0.0139315, 4.6035, -0.0908813, 4.6035, -0.9596558, 4.6035, -0.3782349, 4.6035, 1.1374046, 4.6035, 0.9694657, 4.6035, -3.221374
0.5423824, -0.0149386, 4.61025, -0.0911255, 4.61025, -0.9611816, 4.61025, -0.3777466, 4.61025, 1.2977099, 4.61025, 0.9541985, 4.61025, -3.1755726
0.5431765, -0.0172885, 4.617, -0.0901489, 4.617, -0.9620972, 4.617, -0.374939, 4.617, 1.1755725, 4.617, 0.9770992, 4.617, -3.2671757
0.5439706, -0.0152743, 4.62375, -0.090332, 4.62375, -0.9625854, 4.62375, -0.3768311, 4.62375, 1.1221374, 4.62375, 0.961832, 4.62375, -3.1908398
0.5447647, -0.0162814, 4.6305, -0.09198, 4.6305, -0.963501, 4.6305, -0.3748169, 4.6305, 1.0610687, 4.6305, 0.8473282, 4.6305, -3.129771
0.5455588, -0.0162814, 4.63725, -0.0940552, 4.63725, -0.9614258, 4.63725, -0.3756104, 4.63725, 1.1145039, 4.63725, 0.7099237, 4.63725, -3.1374047
0.5463529, -0.01561, 4.644, -0.0917969, 4.644, -0.9595947, 4.644, -0.3759155, 4.644, 1.091603, 4.644, 0.5801527, 4.644, -3.2824428
0.5471471, -0.0169528, 4.65075, -0.0927734, 4.65075, -0.9613647, 4.65075, -0.3743286, 4.65075, 1.1068702, 4.65075, 0.6717557, 4.65075, -3.1908398
0.5479412, -0.0169528, 4.6575, -0.0944824, 4.6575, -0.9605103, 4.6575, -0.3799438, 4.6575, 0.9923664, 4.6575, 0.6717557, 4.6575, -3.2366412
0.5487353, -0.0137636, 4.66425, -0.0926514, 4.66425, -0.9602051, 4.66425, -0.3782959, 4.66425, 1.1755725, 4.66425, 0.6564885, 4.66425, -3.091603
0.5495294, -0.0135958, 4.671, -0.0911865, 4.671, -0.9609375, 4.671, -0.3789673, 4.671, 1.2442749, 4.671, 0.6564885, 4.671, -3.2671757
0.5503235, -0.0135958, 4.67775, -0.0892944, 4.67775, -0.9569702, 4.67775, -0.380249, 4.67775, 1.1145039, 4.67775, 0.7633588, 4.67775, -3.1526718
0.5511176, -0.012253, 4.6845, -0.0922241, 4.6845, -0.958313, 4.6845, -0.3778076, 4.6845, 1.0992366, 4.6845, 0.6335878, 4.6845, -3.1832061
0.5519118, -0.0137636, 4.69125, -0.0916748, 4.69125, -0.9626465, 4.69125, -0.3806152, 4.69125, 1.1221374, 4.69125, 0.9236641, 4.69125, -3.0152671
0.5527059, -0.01561, 4.698, -0.0899048, 4.698, -0.960022, 4.698, -0.3792114, 4.698, 1.2519084, 4.698, 0.8320611, 4.698, -3.1679389
0.5535, -0.0129244, 4.70475, -0.0925293, 4.70475, -0.9590454, 4.70475, -0.3782349, 4.70475, 1.2366412, 4.70475, 0.7480916, 4.70475, -3.0992367
0.5542941, -0.012253, 4.7115, -0.0923462, 4.7115, -0.9615479, 4.7115, -0.3780518, 4.7115, 1.0458015, 4.7115, 0.6641222, 4.7115, -3.2442749
0.5550882, -0.012253, 4.71825, -0.0940552, 4.71825, -0.9609375, 4.71825, -0.3781738, 4.71825, 1.0992366, 4.71825, 0.7099237, 4.71825, -3.2977099
0.5558824, -0.0135958, 4.725, -0.0934448, 4.725, -0.9592896, 4.725, -0.3788452, 4.725, 1.2290076, 4.725, 0.8244275, 4.725, -3.129771
0.5566765, -0.012253, 4.73175, -0.09198, 4.73175, -0.9597778, 4.73175, -0.378418, 4.73175, 1.1526718, 4.73175, 0.6870229, 4.73175, -3.2824428
0.5574706, -0.0130922, 4.7385, -0.0928345, 4.7385, -0.9605103, 4.7385, -0.3776245, 4.7385, 1.091603, 4.7385, 0.648855, 4.7385, -3.351145
0.5582647, -0.0157778, 4.74525, -0.0899048, 4.74525, -0.9637451, 4.74525, -0.3797607, 4.74525, 1.2519084, 4.74525, 0.610687, 4.74525, -3.3587787
0.5590588, -0.0176242, 4.752, -0.0916748, 4.752, -0.9607544, 4.752, -0.3798218, 4.752, 1.2137405, 4.752, 0.6793893, 4.752, -3.1526718
0.5598529, -0.0209812, 4.75875, -0.0916138, 4.75875, -0.9581909, 4.75875, -0.3776855, 4.75875, 1.1908396, 4.75875, 0.6641222, 4.75875, -3.1679389
0.5606471, -0.0209812, 4.7655, -0.0918579, 4.7655, -0.9623413, 4.7655, -0.3793335, 4.7655, 1.259542, 4.7655, 0.6030535, 4.7655, -3.221374
0.5614412, -0.0186313, 4.77225, -0.093689, 4.77225, -0.9608765, 4.77225, -0.3832397, 4.77225, 1.2900764, 4.77225, 0.4961832, 4.77225, -3.1603053
0.5622353, -0.0169528, 4.779, -0.09375, 4.779, -0.9594116, 4.779, -0.3776245, 4.779, 1.3206106, 4.779, 0.5038168, 4.779, -3.1984732
0.5630294, -0.0203098, 4.78575, -0.0918579, 4.78575, -0.9613647, 4.78575, -0.378418, 4.78575, 1.3435115, 4.78575, 0.6030535, 4.78575, -3.2519083
0.5638235, -0.0224918, 4.7925, -0.0905151, 4.7925, -0.9580688, 4.7925, -0.380127, 4.7925, 1.3053435, 4.7925, 0.5725191, 4.7925, -3.1755726
0.5646176, -0.017792, 4.79925, -0.0914917, 4.79925, -0.9577637, 4.79925, -0.380127, 4.79925, 1.2748091, 4.79925, 0.4198473, 4.79925, -3.2977099
0.5654118, -0.0149386, 4.806, -0.0915527, 4.806, -0.9588623, 4.806, -0.3776245, 4.806, 1.3358779, 4.806, 0.4732825, 4.806, -3.2748091
0.5662059, -0.0135958, 4.81275, -0.0909424, 4.81275, -0.9595947, 4.81275, -0.3793945, 4.81275, 1.1603054, 4.81275, 0.6793893, 4.81275, -3.3282442
0.567, -0.0119173, 4.8195, -0.0895386, 4.8195, -0.9598999, 4.8195, -0.3797607, 4.8195, 1.1450381, 4.8195, 0.5954198, 4.8195, -3.221374
0.5677941, -0.0102388, 4.82625, -0.0905151, 4.82625, -0.9586792, 4.82625, -0.3779907, 4.82625, 1.3358779, 4.82625, 0.6183206, 4.82625, -3.2519083
0.5685882, -0.0146029, 4.833, -0.0934448, 4.833, -0.9590454, 4.833, -0.3792114, 4.833, 1.3587786, 4.833, 0.519084, 4.833, -3.2748091
0.5693824, -0.0146029, 4.83975, -0.0939941, 4.83975, -0.9597168, 4.83975, -0.3811646, 4.83975, 1.3358779, 4.83975, 0.4427481, 4.83975, -3.3053436
0.5701765, -0.0102388, 4.8465, -0.0925903, 4.8465, -0.9613037, 4.8465, -0.3769531, 4.8465, 1.2977099, 4.8465, 0.5572519, 4.8465, -3.3664122
0.5709706, -0.0072175, 4.85325, -0.0926514, 4.85325, -0.9614868, 4.85325, -0.3769531, 4.85325, 1.4427481, 4.85325, 0.480916, 4.85325, -3.5267177
0.5717647, -0.0115816, 4.86, -0.0933838, 4.86, -0.958252, 4.86, -0.3766479, 4.86, 1.4351145, 4.86, 0.4656489, 4.86, -3.351145
0.5725588, -0.011078, 4.86675, -0.0941162, 4.86675, -0.9596558, 4.86675, -0.380249, 4.86675, 1.4427481, 4.86675, 0.351145, 4.86675, -3.3664122
0.5733529, -0.012253, 4.8735, -0.0913086, 4.8735, -0.9593506, 4.8735, -0.3779907, 4.8735, 1.4351145, 4.8735, 0.4961832, 4.8735, -3.4503818
0.5741471, -0.0135958, 4.88025, -0.0895386, 4.88025, -0.9574585, 4.88025, -0.3799438, 4.88025, 1.2061069, 4.88025, 0.4045801, 4.88025, -3.4580152
0.5749412, -0.0125887, 4.887, -0.0896606, 4.887, -0.9613037, 4.887, -0.3793335, 4.887, 1.1908396, 4.887, 0.5954198, 4.887, -3.4961832
0.5757353, -0.0142672, 4.89375, -0.086792, 4.89375, -0.9664307, 4.89375, -0.3788452, 4.89375, 1.2824427, 4.89375, 0.6641222, 4.89375, -3.2824428
0.5765294, -0.0159457, 4.9005, -0.0864258, 4.9005, -0.9596558, 4.9005, -0.3793945, 4.9005, 1.3282443, 4.9005, 0.6564885, 4.9005, -3.3206108
0.5773235, -0.0132601, 4.90725, -0.0894165, 4.90725, -0.9607544, 4.90725, -0.3759766, 4.90725, 1.1984733, 4.90725, 0.6946565, 4.90725, -3.2519083
0.5781176, -0.0135958, 4.914, -0.0914917, 4.914, -0.9606934, 4.914, -0.3761597, 4.914, 1.0992366, 4.914, 0.6335878, 4.914, -3.1832061
0.5789118, -0.0171206, 4.92075, -0.0910645, 4.92075, -0.9589233, 4.92075, -0.3812866, 4.92075, 1.1068702, 4.92075, 0.6946565, 4.92075, -3.2519083
0.5797059, -0.0179599, 4.9275, -0.0910034, 4.9275, -0.9581299, 4.9275, -0.3779907, 4.9275, 1.2137405, 4.9275, 0.5801527, 4.9275, -3.1374047
0.5805, -0.0193027, 4.93425, -0.0917969, 4.93425, -0.9590454, 4.93425, -0.3791504, 4.93425, 1.0992366, 4.93425, 0.7480916, 4.93425, -3.2137403
0.5812941, -0.0179599, 4.941, -0.0900269, 4.941, -0.9590454, 4.941, -0.3776855, 4.941, 1.3435115, 4.941, 0.6183206, 4.941, -3.3282442
0.5820882, -0.0159457, 4.94775, -0.0913696, 4.94775, -0.9597168, 4.94775, -0.3799438, 4.94775, 1.1603054, 4.94775, 0.5725191, 4.94775, -3.4045801
0.5828824, -0.0162814, 4.9545, -0.088623, 4.9545, -0.9593506, 4.9545, -0.3768311, 4.9545, 1.1908396, 4.9545, 0.7328244, 4.9545, -3.351145
0.5836765, -0.01561, 4.96125, -0.0921631, 4.96125, -0.9615479, 4.96125, -0.3799438, 4.96125, 1.1908396, 4.96125, 0.8167939, 4.96125, -3.2290077
0.5844706, -0.0152743, 4.968, -0.0931396, 4.968, -0.9597778, 4.968, -0.3789673, 4.968, 1.1984733, 4.968, 0.7251908, 4.968, -3.0992367
0.5852647, -0.0124208, 4.97475, -0.0922241, 4.97475, -0.9607544, 4.97475, -0.3761597, 4.97475, 1.3053435, 4.97475, 0.8931298, 4.97475, -3.1068702
0.5860588, -0.0095674, 4.9815, -0.0933838, 4.9815, -0.9623413, 4.9815, -0.3765869, 4.9815, 1.4656489, 4.9815, 0.8549618, 4.9815, -3.1526718
0.5868529, -0.0082246, 4.98825, -0.0929565, 4.98825, -0.9625854, 4.98825, -0.3757935, 4.98825, 1.3053435, 4.98825, 0.7633588, 4.98825, -3.3664122
0.5876471, -0.0109102, 4.995, -0.0931396, 4.995, -0.9604492, 4.995, -0.3777466, 4.995, 1.3358779, 4.995, 0.8091603, 4.995, -3.389313
0.5884412, -0.012253, 5.00175, -0.0907593, 5.00175, -0.9591675, 5.00175, -0.3756714, 5.00175, 1.3740458, 5.00175, 0.7938932, 5.00175, -3.1450381
0.5892353, -0.0149386, 5.0085, -0.0933838, 5.0085, -0.9592285, 5.0085, -0.3779907, 5.0085, 1.3358779, 5.0085, 0.6564885, 5.0085, -3.1145039
0.5900294, -0.0132601, 5.01525, -0.0884399, 5.01525, -0.9578857, 5.01525, -0.3812256, 5.01525, 1.389313, 5.01525, 0.6717557, 5.01525, -3.3206108
0.5908235, -0.0142672, 5.022, -0.0869751, 5.022, -0.9592896, 5.022, -0.381958, 5.022, 1.2290076, 5.022, 0.5496183, 5.022, -3.2290077
0.5916176, -0.0149386, 5.02875, -0.0905762, 5.02875, -0.9613037, 5.02875, -0.3829956, 5.02875, 1.3053435, 5.02875, 0.8015267, 5.02875, -3.2900763
0.5924118, -0.0169528, 5.0355, -0.0892944, 5.0355, -0.9592285, 5.0355, -0.380127, 5.0355, 1.3358779, 5.0355, 0.8854962, 5.0355, -3.2366412
0.5932059, -0.0184634, 5.04225, -0.0888672, 5.04225, -0.9593506, 5.04225, -0.3810425, 5.04225, 1.2977099, 5.04225, 1.0687023, 5.04225, -2.9770992
0.594, -0.018967, 5.049, -0.0913696, 5.049, -0.9607544, 5.049, -0.3818359, 5.049, 1.389313, 5.049, 1.0152671, 5.049, -2.9923663
0.5947941, -0.0198062, 5.05575, -0.0923462, 5.05575, -0.9591064, 5.05575, -0.3771973, 5.05575, 1.4580153, 5.05575, 1.0839695, 5.05575, -3.1679389
0.5955882, -0.0196384, 5.0625, -0.0932007, 5.0625, -0.9602051, 5.0625, -0.3780518, 5.0625, 1.3435115, 5.0625, 1.221374, 5.0625, -3.1526718
0.5963824, -0.01561, 5.06925, -0.0941162, 5.06925, -0.956665, 5.06925, -0.3768311, 5.06925, 1.3740458, 5.06925, 1.0839695, 5.06925, -3.3053436
0.5971765, -0.014435, 5.076, -0.0961914, 5.076, -0.9589233, 5.076, -0.3759766, 5.076, 1.3358779, 5.076, 1, 5.076, -3.4274809
0.5979706, -0.0142672, 5.08275, -0.0932007, 5.08275, -0.9622192, 5.08275, -0.3745728, 5.08275, 1.2442749, 5.08275, 0.7175573, 5.08275, -3.2900763
0.5987647, -0.0119173, 5.0895, -0.0936279, 5.0895, -0.9649658, 5.0895, -0.3788452, 5.0895, 1.2137405, 5.0895, 0.7022901, 5.0895, -3.3206108
0.5995588, -0.0129244, 5.09625, -0.0913086, 5.09625, -0.9598389, 5.09625, -0.3773193, 5.09625, 1.2748091, 5.09625, 0.6870229, 5.09625, -3.2137403
0.6003529, -0.0125887, 5.103, -0.0923462, 5.103, -0.9585571, 5.103, -0.3766479, 5.103, 1.1450381, 5.103, 0.5801527, 5.103, -3.4351146
0.6011471, -0.0087282, 5.10975, -0.0866699, 5.10975, -0.9591064, 5.10975, -0.3775635, 5.10975, 1.3816794, 5.10975, 0.6259542, 5.10975, -3.3587787
0.6019412, -0.0095674, 5.1165, -0.0871582, 5.1165, -0.9572754, 5.1165, -0.3769531, 5.1165, 1.2671756, 5.1165, 0.610687, 5.1165, -3.1908398
0.6027353, -0.0109102, 5.12325, -0.0881348, 5.12325, -0.9585571, 5.12325, -0.3791504, 5.12325, 1.2519084, 5.12325, 0.8778626, 5.12325, -3.2519083
0.6035294, -0.0095674, 5.13, -0.0908203, 5.13, -0.9596558, 5.13, -0.3764038, 5.13, 1.2900764, 5.13, 0.7480916, 5.13, -3.259542
0.6043235, -0.0142672, 5.13675, -0.0941772, 5.13675, -0.9606934, 5.13675, -0.3795166, 5.13675, 1.1908396, 5.13675, 0.648855, 5.13675, -3.1755726
0.6051176, -0.0130922, 5.1435, -0.093689, 5.1435, -0.9595947, 5.1435, -0.3774414, 5.1435, 1.1832061, 5.1435, 0.7328244, 5.1435, -3.3053436
0.6059118, -0.0162814, 5.15025, -0.0942383, 5.15025, -0.9598389, 5.15025, -0.3773193, 5.15025, 1.2977099, 5.15025, 0.5267175, 5.15025, -3.2442749
0.6067059, -0.0162814, 5.157, -0.0945435, 5.157, -0.9611206, 5.157, -0.3763428, 5.157, 1.1755725, 5.157, 0.4198473, 5.157, -3.3740458
0.6075, -0.014435, 5.16375, -0.0942993, 5.16375, -0.9604492, 5.16375, -0.3765869, 5.16375, 1.2061069, 5.16375, 0.4274809, 5.16375, -3.2900763
0.6082941, -0.0172885, 5.1705, -0.0950928, 5.1705, -0.9613037, 5.1705, -0.3778687, 5.1705, 1.1145039, 5.1705, 0.3664122, 5.1705, -3.0458016
0.6090882, -0.0172885, 5.17725, -0.0939331, 5.17725, -0.9602661, 5.17725, -0.3790894, 5.17725, 1.0305344, 5.17725, 0.4274809, 5.17725, -3.2137403
0.6098824, -0.0162814, 5.184, -0.0924072, 5.184, -0.9622803, 5.184, -0.3765869, 5.184, 0.9847328, 5.184, 0.3969466, 5.184, -3.2748091
0.6106765, -0.0152743, 5.19075, -0.0927124, 5.19075, -0.9612427, 5.19075, -0.3790894, 5.19075, 1.1755725, 5.19075, 0.480916, 5.19075, -3.3816793
0.6114706, -0.0157778, 5.1975, -0.0908813, 5.1975, -0.9596558, 5.1975, -0.3800049, 5.1975, 1.1145039, 5.1975, 0.4274809, 5.1975, -3.1755726
0.6122647, -0.0172885, 5.20425, -0.0921631, 5.20425, -0.9593506, 5.20425, -0.3803711, 5.20425, 1.1832061, 5.20425, 0.5114504, 5.20425, -3.1679389
0.6130588, -0.0182956, 5.211, -0.0907593, 5.211, -0.9586182, 5.211, -0.3788452, 5.211, 1.0305344, 5.211, 0.5496183, 5.211, -3.1526718
0.6138529, -0.0169528, 5.21775, -0.0897827, 5.21775, -0.9588623, 5.21775, -0.3774414, 5.21775, 0.9770992, 5.21775, 0.6564885, 5.21775, -3.129771
0.6146471, -0.0169528, 5.2245, -0.0881348, 5.2245, -0.9590454, 5.2245, -0.3768311, 5.2245, 1.2366412, 5.2245, 0.5801527, 5.2245, -3.1603053
0.6154412, -0.0169528, 5.23125, -0.0900879, 5.23125, -0.960144, 5.23125, -0.3768311, 5.23125, 1.1603054, 5.23125, 0.4580153, 5.23125, -3.2061069
0.6162353, -0.0146029, 5.238, -0.0894775, 5.238, -0.9576416, 5.238, -0.3774414, 5.238, 1.1832061, 5.238, 0.4885496, 5.238, -3.1679389
0.6170294, -0.0115816, 5.24475, -0.0896606, 5.24475, -0.9567261, 5.24475, -0.3781738, 5.24475, 1.0992366, 5.24475, 0.6717557, 5.24475, -3.0992367
0.6178235, -0.0137636, 5.2515, -0.0903931, 5.2515, -0.9636841, 5.2515, -0.3773193, 5.2515, 1.0763359, 5.2515, 0.7175573, 5.2515, -3.091603
0.6186176, -0.012253, 5.25825, -0.0930786, 5.25825, -0.9606323, 5.25825, -0.3803101, 5.25825, 1.038168, 5.25825, 0.740458, 5.25825, -3.0839694
0.6194118, -0.0068818, 5.265, -0.0916138, 5.265, -0.9610596, 5.265, -0.3799438, 5.265, 1.1145039, 5.265, 0.5725191, 5.265, -3.0687022
0.6202059, -0.0090639, 5.27175, -0.0945435, 5.27175, -0.9589844, 5.27175, -0.3776245, 5.27175, 1.2137405, 5.27175, 0.7328244, 5.27175, -3.2061069
0.621, -0.0092317, 5.2785, -0.0917358, 5.2785, -0.9595337, 5.2785, -0.3771973, 5.2785, 1.038168, 5.2785, 0.5648855, 5.2785, -3.0534351
0.6217941, -0.0109102, 5.28525, -0.0935669, 5.28525, -0.9586792, 5.28525, -0.3763428, 5.28525, 0.9694657, 5.28525, 0.648855, 5.28525, -3.2748091
0.6225882, -0.0162814, 5.292, -0.0931396, 5.292, -0.9619751, 5.292, -0.3793945, 5.292, 1.0763359, 5.292, 0.5419847, 5.292, -3.3664122
0.6233824, -0.0172885, 5.29875, -0.0914307, 5.29875, -0.9633179, 5.29875, -0.3804321, 5.29875, 1.1603054, 5.29875, 0.519084, 5.29875, -3.4122138
0.6241765, -0.0149386, 5.3055, -0.0910034, 5.3055, -0.963623, 5.3055, -0.3815918, 5.3055, 1.0687023, 5.3055, 0.5572519, 5.3055, -3.3206108
0.6249706, -0.0149386, 5.31225, -0.0893555, 5.31225, -0.9608154, 5.31225, -0.3803101, 5.31225, 1.129771, 5.31225, 0.4656489, 5.31225, -3.1450381
0.6257647, -0.0182956, 5.319, -0.0895996, 5.319, -0.9589233, 5.319, -0.3829346, 5.319, 0.870229, 5.319, 0.4274809, 5.319, -3.3282442
0.6265588, -0.0182956, 5.32575, -0.0928955, 5.32575, -0.9602051, 5.32575, -0.3825684, 5.32575, 0.9160305, 5.32575, 0.5267175, 5.32575, -3.2671757
0.6273529, -0.018967, 5.3325, -0.0878906, 5.3325, -0.9608765, 5.3325, -0.3847046, 5.3325, 1.0534351, 5.3325, 0.610687, 5.3325, -3.2290077
0.6281471, -0.0191348, 5.33925, -0.0900269, 5.33925, -0.9573975, 5.33925, -0.3847046, 5.33925, 1.0763359, 5.33925, 0.8778626, 5.33925, -3.3206108
0.6289412, -0.0169528, 5.346, -0.0897827, 5.346, -0.9574585, 5.346, -0.3828125, 5.346, 1.1908396, 5.346, 0.870229, 5.346, -3.4045801
0.6297353, -0.0176242, 5.35275, -0.0940552, 5.35275, -0.9613037, 5.35275, -0.3824463, 5.35275, 1.0534351, 5.35275, 0.8625954, 5.35275, -3.129771
0.6305294, -0.0182956, 5.3595, -0.0927124, 5.3595, -0.9613647, 5.3595, -0.3775024, 5.3595, 1.1068702, 5.3595, 0.7480916, 5.3595, -3.1908398
0.6313235, -0.0176242, 5.36625, -0.097229, 5.36625, -0.960144, 5.36625, -0.3799438, 5.36625, 1.1374046, 5.36625, 0.7709923, 5.36625, -3.2977099
0.6321176, -0.0129244, 5.373, -0.0980225, 5.373, -0.9627686, 5.373, -0.3787842, 5.373, 1.2977099, 5.373, 0.5267175, 5.373, -3.4045801
0.6329118, -0.0129244, 5.37975, -0.0969238, 5.37975, -0.9614868, 5.37975, -0.3788452, 5.37975, 1.3358779, 5.37975, 0.4656489, 5.37975, -3.351145
0.6337059, -0.0095674, 5.3865, -0.0985718, 5.3865, -0.9610596, 5.3865, -0.3771973, 5.3865, 1.3435115, 5.3865, 0.3053435, 5.3865, -3.5114503
0.6345, -0.0105745, 5.39325, -0.0928955, 5.39325, -0.9609985, 5.39325, -0.3770142, 5.39325, 1.2442749, 5.39325, 0.1374046, 5.39325, -3.5954199
0.6352941, -0.0119173, 5.4, -0.0932007, 5.4, -0.9589233, 5.4, -0.3777466, 5.4, 1.2748091, 5.4, -0.0152672, 5.4, -3.4961832
0.6360882, -0.008896, 5.40675, -0.0947266, 5.40675, -0.9611206, 5.40675, -0.3753052, 5.40675, 1.3969465, 5.40675, 0.0610687, 5.40675, -3.3969467
0.6368824, -0.0117494, 5.4135, -0.0935059, 5.4135, -0.960144, 5.4135, -0.3799438, 5.4135, 1.4580153, 5.4135, -0.0305344, 5.4135, -3.4961832
0.6376765, -0.0099031, 5.42025, -0.0921631, 5.42025, -0.9614258, 5.42025, -0.3825684, 5.42025, 1.5648855, 5.42025, 0.259542, 5.42025, -3.7862597
0.6384706, -0.0104067, 5.427, -0.0942383, 5.427, -0.9579468, 5.427, -0.3811035, 5.427, 1.5343511, 5.427, 0.2137405, 5.427, -3.4885497
0.6392647, -0.0142672, 5.43375, -0.0910034, 5.43375, -0.9577637, 5.43375, -0.3796387, 5.43375, 1.5496184, 5.43375, 0.1908397, 5.43375, -3.4885497
0.6400588, -0.014435, 5.4405, -0.0930176, 5.4405, -0.9581909, 5.4405, -0.378479, 5.4405, 1.5725191, 5.4405, 0.2519084, 5.4405, -3.5419848
0.6408529, -0.0142672, 5.44725, -0.0922241, 5.44725, -0.9586182, 5.44725, -0.3768311, 5.44725, 1.5419847, 5.44725, 0.3129771, 5.44725, -3.519084
0.6416471, -0.0176242, 5.454, -0.093689, 5.454, -0.9591064, 5.454, -0.3776855, 5.454, 1.6030535, 5.454, 0.2366412, 5.454, -3.6717558
0.6424412, -0.0176242, 5.46075, -0.0952148, 5.46075, -0.9544067, 5.46075, -0.3764648, 5.46075, 1.8015267, 5.46075, 0.2977099, 5.46075, -3.7328243
0.6432353, -0.0162814, 5.4675, -0.0928345, 5.4675, -0.956543, 5.4675, -0.3757935, 5.4675, 1.7328244, 5.4675, 0.2900763, 5.4675, -3.8854961
0.6440294, -0.0179599, 5.47425, -0.0931396, 5.47425, -0.9581909, 5.47425, -0.3765259, 5.47425, 1.8625954, 5.47425, 0.2137405, 5.47425, -3.9312978
0.6448235, -0.018967, 5.481, -0.0923462, 5.481, -0.9604492, 5.481, -0.3792114, 5.481, 1.7175573, 5.481, -0.0687023, 5.481, -3.740458
0.6456176, -0.0166171, 5.48775, -0.0907593, 5.48775, -0.9630127, 5.48775, -0.3810425, 5.48775, 1.8625954, 5.48775, -0.1603053, 5.48775, -4.0076337
0.6464118, -0.0149386, 5.4945, -0.0900879, 5.4945, -0.9642944, 5.4945, -0.3803711, 5.4945, 1.7328244, 5.4945, -0.1374046, 5.4945, -4.0610685
0.6472059, -0.0149386, 5.50125, -0.0917358, 5.50125, -0.9638062, 5.50125, -0.3811646, 5.50125, 1.7633588, 5.50125, 0.0229008, 5.50125, -3.7938931
0.648, -0.0152743, 5.508, -0.0879517, 5.508, -0.9642944, 5.508, -0.3847656, 5.508, 1.7938931, 5.508, 0.3053435, 5.508, -3.8473282
0.6487941, -0.017792, 5.51475, -0.0888062, 5.51475, -0.9641724, 5.51475, -0.3850098, 5.51475, 1.7633588, 5.51475, 0.4198473, 5.51475, -3.908397
0.6495882, -0.0139315, 5.5215, -0.0914917, 5.5215, -0.9625244, 5.5215, -0.3813477, 5.5215, 1.7480916, 5.5215, 0.6259542, 5.5215, -4.0152674
0.6503824, -0.0092317, 5.52825, -0.0906372, 5.52825, -0.9656982, 5.52825, -0.3793335, 5.52825, 1.8473282, 5.52825, 0.8854962, 5.52825, -3.8549619
0.6511765, -0.0095674, 5.535, -0.0855713, 5.535, -0.961853, 5.535, -0.3756104, 5.535, 2.0076337, 5.535, 0.9923664, 5.535, -3.778626
0.6519706, -0.0099031, 5.54175, -0.0878906, 5.54175, -0.9573975, 5.54175, -0.3796997, 5.54175, 1.908397, 5.54175, 0.870229, 5.54175, -3.7022901
0.6527647, -0.0130922, 5.5485, -0.0961914, 5.5485, -0.9630127, 5.5485, -0.3828125, 5.5485, 1.6793894, 5.5485, 0.8549618, 5.5485, -3.8473282
0.6535588, -0.0114137, 5.55525, -0.097168, 5.55525, -0.9608154, 5.55525, -0.3803101, 5.55525, 2.1984732, 5.55525, 0.9694657, 5.55525, -3.8091602
0.6543529, -0.0115816, 5.562, -0.0948486, 5.562, -0.956543, 5.562, -0.381897, 5.562, 2.1374047, 5.562, 0.5114504, 5.562, -4.1221375
0.6551471, -0.01561, 5.56875, -0.0932617, 5.56875, -0.9595947, 5.56875, -0.3806763, 5.56875, 1.8320611, 5.56875, -0.0381679, 5.56875, -4.2290077
0.6559412, -0.0139315, 5.5755, -0.0886841, 5.5755, -0.9629517, 5.5755, -0.37854, 5.5755, 2.2290077, 5.5755, 0.3053435, 5.5755, -4.1679387
0.6567353, -0.0146029, 5.58225, -0.0834961, 5.58225, -0.9598389, 5.58225, -0.3782349, 5.58225, 2.2748091, 5.58225, 0.3358779, 5.58225, -4.1526718
0.6575294, -0.0152743, 5.589, -0.0848999, 5.589, -0.9588623, 5.589, -0.3782349, 5.589, 2.1679389, 5.589, 0.4427481, 5.589, -4.1908398
0.6583235, -0.0157778, 5.59575, -0.0828857, 5.59575, -0.9569092, 5.59575, -0.3778076, 5.59575, 2.3816793, 5.59575, 0.5114504, 5.59575, -3.8549619
0.6591176, -0.0166171, 5.6025, -0.0855713, 5.6025, -0.956604, 5.6025, -0.3759155, 5.6025, 2.480916, 5.6025, 0.8320611, 5.6025, -3.8473282
0.6599118, -0.0162814, 5.60925, -0.0838623, 5.60925, -0.956665, 5.60925, -0.3763428, 5.60925, 2.2442749, 5.60925, 0.7938932, 5.60925, -3.7099237
0.6607059, -0.0124208, 5.616, -0.0855713, 5.616, -0.9591064, 5.616, -0.3768921, 5.616, 2.3740458, 5.616, 1.0458015, 5.616, -3.6946564
0.6615, -0.0172885, 5.62275, -0.0844116, 5.62275, -0.960083, 5.62275, -0.3778687, 5.62275, 2.3816793, 5.62275, 1.129771, 5.62275, -3.648855
0.6622941, -0.0169528, 5.6295, -0.0858765, 5.6295, -0.9588013, 5.6295, -0.3789062, 5.6295, 2.3969467, 5.6295, 0.7938932, 5.6295, -3.6412213
0.6630882, -0.0162814, 5.63625, -0.0877075, 5.63625, -0.9611816, 5.63625, -0.3753052, 5.63625, 2.5038168, 5.63625, 0.778626, 5.63625, -3.8015268
0.6638824, -0.0182956, 5.643, -0.0894775, 5.643, -0.9610596, 5.643, -0.3752441, 5.643, 2.3664122, 5.643, 0.5419847, 5.643, -3.7251909
0.6646765, -0.0203098, 5.64975, -0.0966187, 5.64975, -0.9632568, 5.64975, -0.3754883, 5.64975, 2.2290077, 5.64975, 0.519084, 5.64975, -3.648855
0.6654706, -0.0199741, 5.6565, -0.0916748, 5.6565, -0.9641724, 5.6565, -0.3794556, 5.6565, 2.3587787, 5.6565, 0.351145, 5.6565, -3.648855
0.6662647, -0.0196384, 5.66325, -0.0876465, 5.66325, -0.9644775, 5.66325, -0.3771973, 5.66325, 2.389313, 5.66325, 0.1755725, 5.66325, -3.5267177
0.6670588, -0.0182956, 5.67, -0.0863037, 5.67, -0.9672852, 5.67, -0.3751221, 5.67, 2.1832061, 5.67, 0.1679389, 5.67, -3.351145
0.6678529, -0.01561, 5.67675, -0.0878906, 5.67675, -0.9596558, 5.67675, -0.3771362, 5.67675, 2.2900763, 5.67675, 0.221374, 5.67675, -3.4351146
0.6686471, -0.0146029, 5.6835, -0.083252, 5.6835, -0.961792, 5.6835, -0.3718872, 5.6835, 2.4503818, 5.6835, 0.4427481, 5.6835, -3.4198472
0.6694412, -0.0146029, 5.69025, -0.0865479, 5.69025, -0.960083, 5.69025, -0.3759155, 5.69025, 2.4351146, 5.69025, 0.1832061, 5.69025, -3.3664122
0.6702353, -0.0109102, 5.697, -0.085022, 5.697, -0.9589844, 5.697, -0.3769531, 5.697, 2.2442749, 5.697, 0.1526718, 5.697, -3.1984732
0.6710294, -0.0083925, 5.70375, -0.0853882, 5.70375, -0.9615479, 5.70375, -0.3747559, 5.70375, 2.259542, 5.70375, 0.2977099, 5.70375, -3.221374
0.6718235, -0.0105745, 5.7105, -0.0856934, 5.7105, -0.9611816, 5.7105, -0.3728027, 5.7105, 2.1526718, 5.7105, 0.4885496, 5.7105, -3.1603053
0.6726176, -0.0125887, 5.71725, -0.0880127, 5.71725, -0.9602051, 5.71725, -0.3731079, 5.71725, 1.8167939, 5.71725, 0.4198473, 5.71725, -3.1679389
0.6734118, -0.0132601, 5.724, -0.0864868, 5.724, -0.9594116, 5.724, -0.3701172, 5.724, 1.8167939, 5.724, 0.5419847, 5.724, -3.1526718
0.6742059, -0.01561, 5.73075, -0.0892944, 5.73075, -0.9605103, 5.73075, -0.3686523, 5.73075, 1.9847329, 5.73075, 0.3129771, 5.73075, -3.0839694
0.675, -0.0169528, 5.7375, -0.0883789, 5.7375, -0.9607544, 5.7375, -0.3684692, 5.7375, 1.7557251, 5.7375, 0.3587786, 5.7375, -3.0229008
0.6757941, -0.0184634, 5.74425, -0.0866089, 5.74425, -0.9633179, 5.74425, -0.3716431, 5.74425, 1.4885496, 5.74425, 0.5419847, 5.74425, -3.038168
0.6765882, -0.0176242, 5.751, -0.088501, 5.751, -0.960144, 5.751, -0.3693237, 5.751, 1.5801526, 5.751, 0.6335878, 5.751, -3
