Application:, Trigno Discover (1.7.0)
Date/Time:, 2026/9/9 下午 12:54:27
Collection Length (seconds):, 113.8185
Avanti Sensor 11 (69574)
sensor mode: 50
EMG 1 Time Series (s), EMG 1 (mV), ACC X Time Series (s), ACC X (G), ACC Y Time Series (s), ACC Y (G), ACC Z Time Series (s), ACC Z (G), GYRO X Time Series (s), GYRO X (deg/s), GYRO Y Time Series (s), GYRO Y (deg/s), GYRO Z Time Series (s), GYRO Z (deg/s)
, 1259.2593 Hz, , 148.1481 Hz, , 148.1481 Hz, , 148.1481 Hz, , 148.1481 Hz, , 148.1481 Hz, , 148.1481 Hz
0, -0.0115816, 0, -0.1088867, 0, -1.0009155, 0, -0.0349121, 0, 1.1068702, 0, 1.6641221, 0, -3.3816793
0.0007941, -0.0119173, 0.00675, -0.1074829, 0.00675, -0.9995117, 0.00675, -0.0371704, 0.00675, 0.9465649, 0.00675, 1.480916, 0.00675, -3.5419848
0.0015882, -0.0109102, 0.0135, -0.104187, 0.0135, -1.000061, 0.0135, -0.0362549, 0.0135, 1.1603054, 0.0135, 1.3206106, 0.0135, -3.3358779
0.0023824, -0.0109102, 0.02025, -0.105896, 0.02025, -0.9996338, 0.02025, -0.0339355, 0.02025, 1.2977099, 0.02025, 1.4885496, 0.02025, -3.3664122
0.0031765, -0.0109102, 0.027, -0.1066895, 0.027, -1.0012207, 0.027, -0.036499, 0.027, 1.4351145, 0.027, 1.4503816, 0.027, -3.5038168
0.0039706, -0.0102388, 0.03375, -0.1072388, 0.03375, -0.9987183, 0.03375, -0.0352783, 0.03375, 1.259542, 0.03375, 1.3435115, 0.03375, -3.6335878
0.0047647, -0.0095674, 0.0405, -0.1068115, 0.0405, -0.9976196, 0.0405, -0.0354614, 0.0405, 1.2748091, 0.0405, 1.2061069, 0.0405, -3.5038168
0.0055588, -0.0078889, 0.04725, -0.1046753, 0.04725, -0.9995117, 0.04725, -0.0355835, 0.04725, 1.351145, 0.04725, 1.221374, 0.04725, -3.5038168
0.0063529, -0.0095674, 0.054, -0.1052246, 0.054, -1.0008545, 0.054, -0.0365601, 0.054, 1.5114504, 0.054, 1.2442749, 0.054, -3.480916
0.0071471, -0.012253, 0.06075, -0.1019897, 0.06075, -0.9983521, 0.06075, -0.0379028, 0.06075, 1.389313, 0.06075, 1.4656489, 0.06075, -3.6259542
0.0079412, -0.0115816, 0.0675, -0.1017456, 0.0675, -1.0007935, 0.0675, -0.0346069, 0.0675, 1.5114504, 0.0675, 1.3358779, 0.0675, -3.221374
0.0087353, -0.0119173, 0.07425, -0.1000366, 0.07425, -0.9997559, 0.07425, -0.036499, 0.07425, 1.6030535, 0.07425, 1.3053435, 0.07425, -3.5114503
0.0095294, -0.0169528, 0.081, -0.0994263, 0.081, -0.9989014, 0.081, -0.036377, 0.081, 1.4427481, 0.081, 1.2977099, 0.081, -3.351145
0.0103235, -0.0169528, 0.08775, -0.0979614, 0.08775, -1.0007935, 0.08775, -0.0357666, 0.08775, 1.610687, 0.08775, 1.1908396, 0.08775, -3.2748091
0.0111176, -0.0184634, 0.0945, -0.1000977, 0.0945, -0.9985352, 0.0945, -0.0375366, 0.0945, 1.5648855, 0.0945, 1.2366412, 0.0945, -3.4503818
0.0119118, -0.0172885, 0.10125, -0.1054077, 0.10125, -1.0009766, 0.10125, -0.0344238, 0.10125, 1.6259542, 0.10125, 1.259542, 0.10125, -3.2671757
0.0127059, -0.0159457, 0.108, -0.1078491, 0.108, -1.0054932, 0.108, -0.0369263, 0.108, 1.8244275, 0.108, 0.9770992, 0.108, -3.4351146
0.0135, -0.0169528, 0.11475, -0.1066284, 0.11475, -1.0012817, 0.11475, -0.0368042, 0.11475, 1.7099236, 0.11475, 0.8167939, 0.11475, -3.4732823
0.0142941, -0.0181277, 0.1215, -0.1079102, 0.1215, -1.0013428, 0.1215, -0.0367432, 0.1215, 1.6717557, 0.1215, 0.6183206, 0.1215, -3.3587787
0.0150882, -0.014435, 0.12825, -0.1051025, 0.12825, -1, 0.12825, -0.0360718, 0.12825, 1.7022901, 0.12825, 0.3129771, 0.12825, -3.2671757
0.0158824, -0.0135958, 0.135, -0.100769, 0.135, -1.0009155, 0.135, -0.03302, 0.135, 1.6870229, 0.135, 0.2519084, 0.135, -3.1374047
0.0166765, -0.0171206, 0.14175, -0.0982056, 0.14175, -0.9972534, 0.14175, -0.0322876, 0.14175, 1.740458, 0.14175, 0.3206107, 0.14175, -3.221374
0.0174706, -0.0169528, 0.1485, -0.0957031, 0.1485, -0.9943848, 0.1485, -0.0293579, 0.1485, 1.6183206, 0.1485, 0.8320611, 0.1485, -3.2366412
0.0182647, -0.0176242, 0.15525, -0.0968018, 0.15525, -0.99646, 0.15525, -0.0283203, 0.15525, 1.7022901, 0.15525, 0.9389313, 0.15525, -3.1374047
0.0190588, -0.0171206, 0.162, -0.1012573, 0.162, -0.9991455, 0.162, -0.026062, 0.162, 1.8244275, 0.162, 1.1526718, 0.162, -3.2442749
0.0198529, -0.0196384, 0.16875, -0.1005859, 0.16875, -0.9991455, 0.16875, -0.0288086, 0.16875, 1.8167939, 0.16875, 1.1450381, 0.16875, -3.0763359
0.0206471, -0.0176242, 0.1755, -0.1026611, 0.1755, -0.998291, 0.1755, -0.0319824, 0.1755, 1.7480916, 0.1755, 1.2442749, 0.1755, -3.2748091
0.0214412, -0.0162814, 0.18225, -0.1018066, 0.18225, -0.9966431, 0.18225, -0.0300903, 0.18225, 1.7557251, 0.18225, 1.3358779, 0.18225, -3.0992367
0.0222353, -0.01561, 0.189, -0.1017456, 0.189, -1.0005493, 0.189, -0.0325317, 0.189, 1.4580153, 0.189, 1.6870229, 0.189, -3.129771
0.0230294, -0.0129244, 0.19575, -0.1038818, 0.19575, -1.0045166, 0.19575, -0.0303345, 0.19575, 1.4503816, 0.19575, 1.7099236, 0.19575, -3.0458016
0.0238235, -0.0109102, 0.2025, -0.1029053, 0.2025, -1.0018921, 0.2025, -0.0298462, 0.2025, 1.5496184, 0.2025, 1.8396946, 0.2025, -3.1603053
0.0246176, -0.0097353, 0.20925, -0.1035156, 0.20925, -1.0012207, 0.20925, -0.0285034, 0.20925, 1.519084, 0.20925, 1.7175573, 0.20925, -3.0229008
0.0254118, -0.0149386, 0.216, -0.1013794, 0.216, -0.9978638, 0.216, -0.0302124, 0.216, 1.5419847, 0.216, 1.6412214, 0.216, -2.9770992
0.0262059, -0.0176242, 0.22275, -0.0976562, 0.22275, -0.9998169, 0.22275, -0.0317383, 0.22275, 1.5267175, 0.22275, 1.7938931, 0.22275, -2.8015268
0.027, -0.0152743, 0.2295, -0.1004028, 0.2295, -1.0007324, 0.2295, -0.0313721, 0.2295, 1.6641221, 0.2295, 1.9923664, 0.2295, -2.8854961
0.0277941, -0.0166171, 0.23625, -0.1022339, 0.23625, -1.0018311, 0.23625, -0.0324097, 0.23625, 1.610687, 0.23625, 1.8396946, 0.23625, -2.740458
0.0285882, -0.0193027, 0.243, -0.1037598, 0.243, -1.0002441, 0.243, -0.0319824, 0.243, 1.3816794, 0.243, 1.7099236, 0.243, -2.7251909
0.0293824, -0.0226596, 0.24975, -0.1021118, 0.24975, -1.0027466, 0.24975, -0.03302, 0.24975, 1.6183206, 0.24975, 1.5038168, 0.24975, -2.7480917
0.0301765, -0.0229953, 0.2565, -0.1032104, 0.2565, -1.0007935, 0.2565, -0.0346069, 0.2565, 1.5877863, 0.2565, 1.3816794, 0.2565, -2.8167939
0.0309706, -0.0203098, 0.26325, -0.1017456, 0.26325, -1.0025024, 0.26325, -0.0321655, 0.26325, 1.6412214, 0.26325, 1.4351145, 0.26325, -2.7328243
0.0317647, -0.0182956, 0.27, -0.1018677, 0.27, -1.0012207, 0.27, -0.0356445, 0.27, 1.6717557, 0.27, 1.3664122, 0.27, -2.7557251
0.0325588, -0.0157778, 0.27675, -0.1021729, 0.27675, -1.0008545, 0.27675, -0.0335693, 0.27675, 1.648855, 0.27675, 1.4885496, 0.27675, -2.6335878
0.0333529, -0.0135958, 0.2835, -0.1025391, 0.2835, -1.0026245, 0.2835, -0.0327148, 0.2835, 1.5648855, 0.2835, 1.1908396, 0.2835, -2.7557251
0.0341471, -0.0139315, 0.29025, -0.1062622, 0.29025, -0.9993286, 0.29025, -0.0337524, 0.29025, 1.5419847, 0.29025, 0.9847328, 0.29025, -2.6793892
0.0349412, -0.0135958, 0.297, -0.1044312, 0.297, -0.9991455, 0.297, -0.0322266, 0.297, 1.5725191, 0.297, 0.8244275, 0.297, -2.5954199
0.0357353, -0.0135958, 0.30375, -0.1055908, 0.30375, -1.0023193, 0.30375, -0.0361328, 0.30375, 1.5954199, 0.30375, 0.7251908, 0.30375, -2.6641221
0.0365294, -0.014435, 0.3105, -0.1046753, 0.3105, -1.0033569, 0.3105, -0.0318604, 0.3105, 1.7633588, 0.3105, 0.5496183, 0.3105, -2.9312978
0.0373235, -0.0102388, 0.31725, -0.1056519, 0.31725, -1.0010986, 0.31725, -0.0345459, 0.31725, 1.6870229, 0.31725, 0.519084, 0.31725, -2.7328243
0.0381176, -0.0102388, 0.324, -0.1046143, 0.324, -1.0011597, 0.324, -0.0357666, 0.324, 1.8778626, 0.324, 0.4427481, 0.324, -2.6717558
0.0389118, -0.0135958, 0.33075, -0.1052856, 0.33075, -1.0003052, 0.33075, -0.0368652, 0.33075, 1.9007634, 0.33075, 0.5343512, 0.33075, -2.7175572
0.0397059, -0.0151064, 0.3375, -0.1074829, 0.3375, -0.9997559, 0.3375, -0.0360718, 0.3375, 1.908397, 0.3375, 0.3435115, 0.3375, -2.648855
0.0405, -0.0115816, 0.34425, -0.1080933, 0.34425, -0.9998169, 0.34425, -0.0386353, 0.34425, 1.9465649, 0.34425, 0.1908397, 0.34425, -2.6335878
0.0412941, -0.0102388, 0.351, -0.1074219, 0.351, -1.0014038, 0.351, -0.0355225, 0.351, 1.9541985, 0.351, -0.0152672, 0.351, -2.5801528
0.0420882, -0.0130922, 0.35775, -0.1020508, 0.35775, -0.9990845, 0.35775, -0.0327759, 0.35775, 1.9160305, 0.35775, -0.221374, 0.35775, -2.7251909
0.0428824, -0.0152743, 0.3645, -0.0994873, 0.3645, -1.0001221, 0.3645, -0.0342407, 0.3645, 1.9465649, 0.3645, -0.3358779, 0.3645, -2.7099237
0.0436765, -0.0129244, 0.37125, -0.100708, 0.37125, -0.9995728, 0.37125, -0.0310669, 0.37125, 1.8854961, 0.37125, -0.1755725, 0.37125, -2.519084
0.0444706, -0.0139315, 0.378, -0.1019287, 0.378, -0.9998169, 0.378, -0.0292969, 0.378, 1.8473282, 0.378, -0.0839695, 0.378, -2.6259542
0.0452647, -0.0139315, 0.38475, -0.1021729, 0.38475, -0.9991455, 0.38475, -0.0297852, 0.38475, 1.8244275, 0.38475, -0.0534351, 0.38475, -2.6641221
0.0460588, -0.0149386, 0.3915, -0.1040039, 0.3915, -0.9970093, 0.3915, -0.0292358, 0.3915, 1.7938931, 0.3915, -0.2977099, 0.3915, -2.480916
0.0468529, -0.01561, 0.39825, -0.1038208, 0.39825, -0.9987793, 0.39825, -0.0285645, 0.39825, 1.6259542, 0.39825, -0.3358779, 0.39825, -2.5496182
0.0476471, -0.0186313, 0.405, -0.1056519, 0.405, -0.9997559, 0.405, -0.029541, 0.405, 1.6641221, 0.405, -0.2366412, 0.405, -2.648855
0.0484412, -0.0172885, 0.41175, -0.109436, 0.41175, -0.9989624, 0.41175, -0.0307007, 0.41175, 1.5954199, 0.41175, -0.4427481, 0.41175, -2.7480917
0.0492353, -0.0159457, 0.4185, -0.1105957, 0.4185, -0.9977417, 0.4185, -0.0284424, 0.4185, 1.5801526, 0.4185, -0.4961832, 0.4185, -2.4351146
0.0500294, -0.0182956, 0.42525, -0.1052246, 0.42525, -1.0004272, 0.42525, -0.0290527, 0.42525, 1.5419847, 0.42525, -0.4656489, 0.42525, -2.610687
0.0508235, -0.0124208, 0.432, -0.1047363, 0.432, -0.9992676, 0.432, -0.0286865, 0.432, 1.5954199, 0.432, -0.6335878, 0.432, -2.5343511
0.0516176, -0.0092317, 0.43875, -0.1035767, 0.43875, -1.0001831, 0.43875, -0.0300903, 0.43875, 1.6183206, 0.43875, -0.2137405, 0.43875, -2.3740458
0.0524118, -0.0102388, 0.4455, -0.1034546, 0.4455, -0.9995117, 0.4455, -0.0299683, 0.4455, 1.6183206, 0.4455, 0.1068702, 0.4455, -2.5572519
0.0532059, -0.0132601, 0.45225, -0.1030884, 0.45225, -0.9979248, 0.45225, -0.0302124, 0.45225, 1.7633588, 0.45225, 0.3969466, 0.45225, -2.5954199
0.054, -0.0092317, 0.459, -0.104248, 0.459, -0.9997559, 0.459, -0.0288696, 0.459, 1.6793894, 0.459, 0.5267175, 0.459, -2.519084
0.0547941, -0.0112459, 0.46575, -0.1067505, 0.46575, -0.9996948, 0.46575, -0.0291138, 0.46575, 1.6946565, 0.46575, 0.6183206, 0.46575, -2.4732823
0.0555882, -0.0104067, 0.4725, -0.1082764, 0.4725, -0.9981689, 0.4725, -0.0267334, 0.4725, 1.6183206, 0.4725, 0.6412213, 0.4725, -2.5343511
0.0563824, -0.0112459, 0.47925, -0.1090088, 0.47925, -0.996521, 0.47925, -0.0266113, 0.47925, 1.5877863, 0.47925, 0.648855, 0.47925, -2.5419848
0.0571765, -0.0099031, 0.486, -0.1088867, 0.486, -0.9960938, 0.486, -0.0279541, 0.486, 1.480916, 0.486, 0.5419847, 0.486, -2.4885497
0.0579706, -0.0080568, 0.49275, -0.1083374, 0.49275, -0.9984131, 0.49275, -0.027832, 0.49275, 1.5267175, 0.49275, 0.4656489, 0.49275, -2.5801528
0.0587647, -0.0083925, 0.4995, -0.1083374, 0.4995, -0.9981079, 0.4995, -0.0254517, 0.4995, 1.5801526, 0.4995, 0.4122137, 0.4995, -2.5954199
0.0595588, -0.0104067, 0.50625, -0.1063843, 0.50625, -0.9960327, 0.50625, -0.0266724, 0.50625, 1.4503816, 0.50625, 0.3358779, 0.50625, -2.7175572
0.0603529, -0.014435, 0.513, -0.1065674, 0.513, -0.99823, 0.513, -0.0286865, 0.513, 1.4732825, 0.513, 0.6564885, 0.513, -2.8320611
0.0611471, -0.0159457, 0.51975, -0.1066895, 0.51975, -0.9985962, 0.51975, -0.0287476, 0.51975, 1.6717557, 0.51975, 0.7557252, 0.51975, -2.7328243
0.0619412, -0.014435, 0.5265, -0.1094971, 0.5265, -0.9983521, 0.5265, -0.0311279, 0.5265, 1.4503816, 0.5265, 0.9465649, 0.5265, -2.6870229
0.0627353, -0.0159457, 0.53325, -0.1106567, 0.53325, -0.9973755, 0.53325, -0.0298462, 0.53325, 1.3206106, 0.53325, 0.778626, 0.53325, -2.5877862
0.0635294, -0.018967, 0.54, -0.1080933, 0.54, -0.9981079, 0.54, -0.0288086, 0.54, 1.4045801, 0.54, 0.7709923, 0.54, -2.7328243
0.0643235, -0.0172885, 0.54675, -0.1077271, 0.54675, -1.0001221, 0.54675, -0.0296021, 0.54675, 1.4198474, 0.54675, 0.8320611, 0.54675, -2.7938931
0.0651176, -0.01561, 0.5535, -0.1104126, 0.5535, -0.9990234, 0.5535, -0.0288086, 0.5535, 1.4580153, 0.5535, 1.0610687, 0.5535, -2.9923663
0.0659118, -0.01561, 0.56025, -0.1069946, 0.56025, -0.9980469, 0.56025, -0.0307007, 0.56025, 1.5114504, 0.56025, 1.1679389, 0.56025, -3.0076337
0.0667059, -0.0146029, 0.567, -0.1112061, 0.567, -0.998291, 0.567, -0.0324097, 0.567, 1.4732825, 0.567, 1.2290076, 0.567, -2.9923663
0.0675, -0.0152743, 0.57375, -0.1105957, 0.57375, -1.000061, 0.57375, -0.0300903, 0.57375, 1.4122137, 0.57375, 1.1145039, 0.57375, -3.0229008
0.0682941, -0.0169528, 0.5805, -0.1113892, 0.5805, -0.9967651, 0.5805, -0.0296021, 0.5805, 1.3969465, 0.5805, 1.0610687, 0.5805, -3.0152671
0.0690882, -0.0171206, 0.58725, -0.112793, 0.58725, -0.9962769, 0.58725, -0.0274048, 0.58725, 1.4427481, 0.58725, 1.1832061, 0.58725, -2.9847329
0.0698824, -0.0142672, 0.594, -0.1103516, 0.594, -0.9990234, 0.594, -0.0291748, 0.594, 1.5572519, 0.594, 1.0229008, 0.594, -2.9389312
0.0706765, -0.012253, 0.60075, -0.1085815, 0.60075, -0.99823, 0.60075, -0.0280762, 0.60075, 1.4427481, 0.60075, 1.038168, 0.60075, -3.038168
0.0714706, -0.011078, 0.6075, -0.1079712, 0.6075, -0.9991455, 0.6075, -0.0306396, 0.6075, 1.351145, 0.6075, 0.9236641, 0.6075, -3.1374047
0.0722647, -0.0095674, 0.61425, -0.1084595, 0.61425, -0.9991455, 0.61425, -0.0259399, 0.61425, 1.4656489, 0.61425, 0.9923664, 0.61425, -3.0687022
0.0730588, -0.0105745, 0.621, -0.1089478, 0.621, -1.001709, 0.621, -0.0294189, 0.621, 1.4961832, 0.621, 1.1450381, 0.621, -3.2977099
0.0738529, -0.012253, 0.62775, -0.1101685, 0.62775, -0.9971924, 0.62775, -0.0297852, 0.62775, 1.5725191, 0.62775, 1.038168, 0.62775, -3.2366412
0.0746471, -0.0117494, 0.6345, -0.1051636, 0.6345, -0.9983521, 0.6345, -0.0296631, 0.6345, 1.5038168, 0.6345, 0.9312977, 0.6345, -3.0458016
0.0754412, -0.0117494, 0.64125, -0.1073608, 0.64125, -0.9972534, 0.64125, -0.0272217, 0.64125, 1.4961832, 0.64125, 0.908397, 0.64125, -3.2137403
0.0762353, -0.0152743, 0.648, -0.105835, 0.648, -0.998291, 0.648, -0.027771, 0.648, 1.4885496, 0.648, 1.0076336, 0.648, -3.3358779
0.0770294, -0.01561, 0.65475, -0.1107788, 0.65475, -0.9980469, 0.65475, -0.0280151, 0.65475, 1.5725191, 0.65475, 1.0152671, 0.65475, -3.389313
0.0778235, -0.0166171, 0.6615, -0.1095581, 0.6615, -0.9978638, 0.6615, -0.0291138, 0.6615, 1.4198474, 0.6615, 0.961832, 0.6615, -3.2748091
0.0786176, -0.018967, 0.66825, -0.1068115, 0.66825, -0.9998169, 0.66825, -0.0274658, 0.66825, 1.351145, 0.66825, 1.0458015, 0.66825, -3.1832061
0.0794118, -0.0203098, 0.675, -0.1040649, 0.675, -0.9993896, 0.675, -0.0275269, 0.675, 1.3129771, 0.675, 1.0763359, 0.675, -3.1908398
0.0802059, -0.0219883, 0.68175, -0.1037598, 0.68175, -0.9997559, 0.68175, -0.0291748, 0.68175, 1.2824427, 0.68175, 1.2137405, 0.68175, -3.4122138
0.081, -0.0238346, 0.6885, -0.1054077, 0.6885, -0.9987793, 0.6885, -0.0292358, 0.6885, 1.2977099, 0.6885, 1.4427481, 0.6885, -3.1984732
0.0817941, -0.0240024, 0.69525, -0.1072388, 0.69525, -0.9971313, 0.69525, -0.0290527, 0.69525, 1.4351145, 0.69525, 1.5267175, 0.69525, -3.3587787
0.0825882, -0.023331, 0.702, -0.1079102, 0.702, -0.999939, 0.702, -0.0339966, 0.702, 1.4274809, 0.702, 1.3740458, 0.702, -3.1755726
0.0833824, -0.0238346, 0.70875, -0.1090698, 0.70875, -0.9975586, 0.70875, -0.0326538, 0.70875, 1.3816794, 0.70875, 1.2824427, 0.70875, -3.2519083
0.0841765, -0.0203098, 0.7155, -0.1091309, 0.7155, -0.9981079, 0.7155, -0.0297241, 0.7155, 1.4045801, 0.7155, 1.1374046, 0.7155, -3.3358779
0.0849706, -0.0146029, 0.72225, -0.1062622, 0.72225, -1.0016479, 0.72225, -0.0317383, 0.72225, 1.2290076, 0.72225, 1.0839695, 0.72225, -3.3129771
0.0857647, -0.0142672, 0.729, -0.1077881, 0.729, -1.0001221, 0.729, -0.0328979, 0.729, 1.4732825, 0.729, 1.1068702, 0.729, -3.2671757
0.0865588, -0.0149386, 0.73575, -0.1087646, 0.73575, -0.9981689, 0.73575, -0.0284424, 0.73575, 1.480916, 0.73575, 0.9694657, 0.73575, -3.1450381
0.0873529, -0.0135958, 0.7425, -0.1074829, 0.7425, -1.0001831, 0.7425, -0.0305786, 0.7425, 1.4045801, 0.7425, 1.2061069, 0.7425, -3.1832061
0.0881471, -0.0105745, 0.74925, -0.1068115, 0.74925, -0.9988403, 0.74925, -0.0300903, 0.74925, 1.480916, 0.74925, 0.9770992, 0.74925, -3.2977099
0.0889412, -0.0104067, 0.756, -0.1072388, 0.756, -0.9989014, 0.756, -0.0296631, 0.756, 1.2442749, 0.756, 1.0687023, 0.756, -3.1603053
0.0897353, -0.01561, 0.76275, -0.1043091, 0.76275, -0.9980469, 0.76275, -0.0288696, 0.76275, 1.3282443, 0.76275, 0.9770992, 0.76275, -3.4351146
0.0905294, -0.0176242, 0.7695, -0.1047363, 0.7695, -0.9974976, 0.7695, -0.0267944, 0.7695, 1.5648855, 0.7695, 1.1755725, 0.7695, -3.3435113
0.0913235, -0.0119173, 0.77625, -0.1113281, 0.77625, -0.9983521, 0.77625, -0.0301514, 0.77625, 1.4045801, 0.77625, 1.2519084, 0.77625, -3.221374
0.0921176, -0.0075532, 0.783, -0.1098022, 0.783, -0.9963379, 0.783, -0.0302124, 0.783, 1.3587786, 0.783, 1.129771, 0.783, -3.2519083
0.0929118, -0.0135958, 0.78975, -0.1118774, 0.78975, -1.0006104, 0.78975, -0.029541, 0.78975, 1.3435115, 0.78975, 0.8549618, 0.78975, -3.3969467
0.0937059, -0.0179599, 0.7965, -0.1087646, 0.7965, -1.0009155, 0.7965, -0.0313721, 0.7965, 1.351145, 0.7965, 1.0152671, 0.7965, -3.3206108
0.0945, -0.0186313, 0.80325, -0.1083374, 0.80325, -0.9989624, 0.80325, -0.0302734, 0.80325, 1.3435115, 0.80325, 1.2137405, 0.80325, -3.2671757
0.0952941, -0.0184634, 0.81, -0.1099243, 0.81, -0.9974976, 0.81, -0.0305176, 0.81, 1.3435115, 0.81, 1.1374046, 0.81, -3.4427481
0.0960882, -0.0166171, 0.81675, -0.1086426, 0.81675, -0.9978027, 0.81675, -0.0297241, 0.81675, 1.3816794, 0.81675, 1.2137405, 0.81675, -3.4961832
0.0968824, -0.0193027, 0.8235, -0.105957, 0.8235, -0.9984741, 0.8235, -0.0297852, 0.8235, 1.3664122, 0.8235, 1.2977099, 0.8235, -3.4122138
0.0976765, -0.0223239, 0.83025, -0.1062622, 0.83025, -0.9984131, 0.83025, -0.0316772, 0.83025, 1.3664122, 0.83025, 1.1908396, 0.83025, -3.2061069
0.0984706, -0.0203098, 0.837, -0.1066284, 0.837, -1.0002441, 0.837, -0.0303345, 0.837, 1.480916, 0.837, 1.1908396, 0.837, -3.2824428
0.0992647, -0.0159457, 0.84375, -0.1072998, 0.84375, -1.0013428, 0.84375, -0.029541, 0.84375, 1.4274809, 0.84375, 1.0839695, 0.84375, -3.3740458
0.1000588, -0.0149386, 0.8505, -0.1083984, 0.8505, -0.9998169, 0.8505, -0.0309448, 0.8505, 1.259542, 0.8505, 1.0610687, 0.8505, -3.4885497
0.1008529, -0.0166171, 0.85725, -0.1082764, 0.85725, -1.0005493, 0.85725, -0.0292969, 0.85725, 1.3206106, 0.85725, 1, 0.85725, -3.351145
0.1016471, -0.012253, 0.864, -0.1098022, 0.864, -0.9966431, 0.864, -0.031189, 0.864, 1.4198474, 0.864, 0.9007633, 0.864, -3.3969467
0.1024412, -0.0112459, 0.87075, -0.1081543, 0.87075, -0.9978638, 0.87075, -0.0314331, 0.87075, 1.4274809, 0.87075, 0.8625954, 0.87075, -3.3969467
0.1032353, -0.0135958, 0.8775, -0.1084595, 0.8775, -1.0032959, 0.8775, -0.0316162, 0.8775, 1.2671756, 0.8775, 0.6870229, 0.8775, -3.3587787
0.1040294, -0.014435, 0.88425, -0.1077271, 0.88425, -1.0007935, 0.88425, -0.0313721, 0.88425, 1.4885496, 0.88425, 0.8167939, 0.88425, -3.2977099
0.1048235, -0.0095674, 0.891, -0.1075439, 0.891, -0.9996338, 0.891, -0.0307617, 0.891, 1.3969465, 0.891, 0.7633588, 0.891, -3.3053436
0.1056176, -0.0095674, 0.89775, -0.1098022, 0.89775, -1.0002441, 0.89775, -0.0285034, 0.89775, 1.4351145, 0.89775, 0.7251908, 0.89775, -3.2671757
0.1064118, -0.012253, 0.9045, -0.1086426, 0.9045, -1.0006104, 0.9045, -0.026001, 0.9045, 1.389313, 0.9045, 0.7862595, 0.9045, -3.3358779
0.1072059, -0.0112459, 0.91125, -0.1090698, 0.91125, -0.9998169, 0.91125, -0.0320435, 0.91125, 1.4961832, 0.91125, 0.7862595, 0.91125, -3.4656489
0.108, -0.011078, 0.918, -0.107666, 0.918, -0.9992676, 0.918, -0.0310059, 0.918, 1.5419847, 0.918, 0.7328244, 0.918, -3.2366412
0.1087941, -0.0117494, 0.92475, -0.1090698, 0.92475, -0.9979248, 0.92475, -0.031311, 0.92475, 1.4961832, 0.92475, 0.5648855, 0.92475, -3.351145
0.1095882, -0.0125887, 0.9315, -0.1055908, 0.9315, -1.0005493, 0.9315, -0.0316162, 0.9315, 1.5954199, 0.9315, 0.7175573, 0.9315, -3.3587787
0.1103824, -0.0125887, 0.93825, -0.104187, 0.93825, -0.9978638, 0.93825, -0.0291748, 0.93825, 1.519084, 0.93825, 0.7633588, 0.93825, -3.2290077
0.1111765, -0.0139315, 0.945, -0.1050415, 0.945, -0.9970093, 0.945, -0.0280151, 0.945, 1.5725191, 0.945, 0.8167939, 0.945, -3.5343511
0.1119706, -0.0132601, 0.95175, -0.1049805, 0.95175, -0.9993286, 0.95175, -0.0284424, 0.95175, 1.5114504, 0.95175, 0.778626, 0.95175, -3.3358779
0.1127647, -0.0152743, 0.9585, -0.1074829, 0.9585, -1.0004272, 0.9585, -0.0303955, 0.9585, 1.5954199, 0.9585, 0.7480916, 0.9585, -3.3816793
0.1135588, -0.0176242, 0.96525, -0.1055908, 0.96525, -1.0015259, 0.96525, -0.0261841, 0.96525, 1.480916, 0.96525, 0.4274809, 0.96525, -3.3740458
0.1143529, -0.0203098, 0.972, -0.1053467, 0.972, -0.9995117, 0.972, -0.0304565, 0.972, 1.5496184, 0.972, 0.2824427, 0.972, -3.1450381
0.1151471, -0.0159457, 0.97875, -0.104187, 0.97875, -0.996521, 0.97875, -0.0299683, 0.97875, 1.4961832, 0.97875, 0.5343512, 0.97875, -3.3435113
0.1159412, -0.0151064, 0.9855, -0.1055908, 0.9855, -0.9990234, 0.9855, -0.0287476, 0.9855, 1.6030535, 0.9855, 0.5801527, 0.9855, -3.2900763
0.1167353, -0.0193027, 0.99225, -0.1082153, 0.99225, -0.9987793, 0.99225, -0.0296021, 0.99225, 1.389313, 0.99225, 0.4198473, 0.99225, -3.2366412
0.1175294, -0.017792, 0.999, -0.1080322, 0.999, -1.0020142, 0.999, -0.0278931, 0.999, 1.4122137, 0.999, 0.4656489, 0.999, -3.3740458
0.1183235, -0.0135958, 1.00575, -0.1057129, 1.00575, -0.9996948, 1.00575, -0.0288086, 1.00575, 1.4427481, 1.00575, 0.2671756, 1.00575, -3.3206108
0.1191176, -0.012253, 1.0125, -0.107666, 1.0125, -1.0020752, 1.0125, -0.0261841, 1.0125, 1.4198474, 1.0125, 0.221374, 1.0125, -3.3587787
0.1199118, -0.014435, 1.01925, -0.1055908, 1.01925, -1.000061, 1.01925, -0.0275269, 1.01925, 1.3664122, 1.01925, 0.2366412, 1.01925, -3.351145
0.1207059, -0.0115816, 1.026, -0.1072388, 1.026, -0.9987793, 1.026, -0.031189, 1.026, 1.4732825, 1.026, 0.4961832, 1.026, -3.4198472
0.1215, -0.0109102, 1.03275, -0.1077881, 1.03275, -0.9978638, 1.03275, -0.0303345, 1.03275, 1.4961832, 1.03275, 0.4274809, 1.03275, -3.389313
0.1222941, -0.0085603, 1.0395, -0.1098633, 1.0395, -1.0010986, 1.0395, -0.031189, 1.0395, 1.5801526, 1.0395, 0.3358779, 1.0395, -3.3282442
0.1230882, -0.0078889, 1.04625, -0.1078491, 1.04625, -0.9995117, 1.04625, -0.0297241, 1.04625, 1.5419847, 1.04625, 0.351145, 1.04625, -3.4351146
0.1238824, -0.0135958, 1.053, -0.1049805, 1.053, -1.0023804, 1.053, -0.0290527, 1.053, 1.4885496, 1.053, 0.2366412, 1.053, -3.3587787
0.1246765, -0.0166171, 1.05975, -0.1035156, 1.05975, -1.0018311, 1.05975, -0.02948, 1.05975, 1.5267175, 1.05975, 0.2290076, 1.05975, -3.2977099
0.1254706, -0.0149386, 1.0665, -0.1037598, 1.0665, -0.9971313, 1.0665, -0.0299683, 1.0665, 1.6183206, 1.0665, 0.4045801, 1.0665, -3.2366412
0.1262647, -0.0135958, 1.07325, -0.1039429, 1.07325, -1.0007324, 1.07325, -0.027771, 1.07325, 1.5343511, 1.07325, 0.4427481, 1.07325, -3.3206108
0.1270588, -0.014435, 1.08, -0.1070557, 1.08, -0.9996948, 1.08, -0.0286255, 1.08, 1.3587786, 1.08, 0.5572519, 1.08, -3.1984732
0.1278529, -0.0171206, 1.08675, -0.1080933, 1.08675, -1, 1.08675, -0.0288696, 1.08675, 1.4656489, 1.08675, 0.5267175, 1.08675, -3.3282442
0.1286471, -0.0172885, 1.0935, -0.109314, 1.0935, -0.9992065, 1.0935, -0.029541, 1.0935, 1.5648855, 1.0935, 0.5114504, 1.0935, -3.480916
0.1294412, -0.0169528, 1.10025, -0.1068726, 1.10025, -0.9957886, 1.10025, -0.0309448, 1.10025, 1.4580153, 1.10025, 0.4351145, 1.10025, -3.4351146
0.1302353, -0.0171206, 1.107, -0.107666, 1.107, -0.9990234, 1.107, -0.0282593, 1.107, 1.4885496, 1.107, 0.5877863, 1.107, -3.2824428
0.1310294, -0.0191348, 1.11375, -0.1064453, 1.11375, -1.0003662, 1.11375, -0.0285645, 1.11375, 1.4885496, 1.11375, 0.4503817, 1.11375, -3.4961832
0.1318235, -0.0159457, 1.1205, -0.105896, 1.1205, -1.0003662, 1.1205, -0.0301514, 1.1205, 1.610687, 1.1205, 0.5648855, 1.1205, -3.389313
0.1326176, -0.0182956, 1.12725, -0.1050415, 1.12725, -1.0027466, 1.12725, -0.0305176, 1.12725, 1.5496184, 1.12725, 0.4885496, 1.12725, -3.1984732
0.1334118, -0.0166171, 1.134, -0.1070557, 1.134, -0.9990845, 1.134, -0.0305786, 1.134, 1.519084, 1.134, 0.5343512, 1.134, -3.221374
0.1342059, -0.0129244, 1.14075, -0.1085205, 1.14075, -0.9989014, 1.14075, -0.0299683, 1.14075, 1.6030535, 1.14075, 0.7175573, 1.14075, -3.3587787
0.135, -0.0139315, 1.1475, -0.1079712, 1.1475, -0.9979858, 1.1475, -0.0314941, 1.1475, 1.4427481, 1.1475, 0.4580153, 1.1475, -3.4198472
0.1357941, -0.0149386, 1.15425, -0.1057129, 1.15425, -1.0001221, 1.15425, -0.0262451, 1.15425, 1.6641221, 1.15425, 0.6335878, 1.15425, -3.3740458
0.1365882, -0.0142672, 1.161, -0.104187, 1.161, -0.9984741, 1.161, -0.0273438, 1.161, 1.3664122, 1.161, 0.4580153, 1.161, -3.3969467
0.1373824, -0.0125887, 1.16775, -0.1072388, 1.16775, -0.9993286, 1.16775, -0.0273438, 1.16775, 1.480916, 1.16775, 0.4122137, 1.16775, -3.3129771
0.1381765, -0.0139315, 1.1745, -0.1063843, 1.1745, -1.0018921, 1.1745, -0.0267944, 1.1745, 1.3664122, 1.1745, 0.5267175, 1.1745, -3.2900763
0.1389706, -0.0119173, 1.18125, -0.1064453, 1.18125, -1.0003662, 1.18125, -0.0284424, 1.18125, 1.3664122, 1.18125, 0.5725191, 1.18125, -3.2977099
0.1397647, -0.0065461, 1.188, -0.1043091, 1.188, -1.00177, 1.188, -0.0253296, 1.188, 1.4045801, 1.188, 0.4961832, 1.188, -3.3816793
0.1405588, -0.0095674, 1.19475, -0.1030884, 1.19475, -1.0020142, 1.19475, -0.0239258, 1.19475, 1.4274809, 1.19475, 0.6335878, 1.19475, -3.3969467
0.1413529, -0.0135958, 1.2015, -0.1043091, 1.2015, -1.0037231, 1.2015, -0.0287476, 1.2015, 1.4580153, 1.2015, 0.778626, 1.2015, -3.3282442
0.1421471, -0.0115816, 1.20825, -0.107666, 1.20825, -1.0015259, 1.20825, -0.0297241, 1.20825, 1.4503816, 1.20825, 0.8931298, 1.20825, -3.3664122
0.1429412, -0.011078, 1.215, -0.1073608, 1.215, -0.9995728, 1.215, -0.0317383, 1.215, 1.3282443, 1.215, 0.8396947, 1.215, -3.2748091
0.1437353, -0.0129244, 1.22175, -0.1083984, 1.22175, -0.99823, 1.22175, -0.0291138, 1.22175, 1.2061069, 1.22175, 0.8473282, 1.22175, -3.3969467
0.1445294, -0.0152743, 1.2285, -0.105896, 1.2285, -0.9983521, 1.2285, -0.0321655, 1.2285, 1.3664122, 1.2285, 0.740458, 1.2285, -3.5648854
0.1453235, -0.0164492, 1.23525, -0.1077271, 1.23525, -1.0029907, 1.23525, -0.0319214, 1.23525, 1.2366412, 1.23525, 0.6641222, 1.23525, -3.5343511
0.1461176, -0.0166171, 1.242, -0.1065063, 1.242, -1.0004272, 1.242, -0.0316162, 1.242, 1.5038168, 1.242, 0.6335878, 1.242, -3.3435113
0.1469118, -0.0176242, 1.24875, -0.105896, 1.24875, -0.9968262, 1.24875, -0.0306396, 1.24875, 1.4656489, 1.24875, 0.778626, 1.24875, -3.4351146
0.1477059, -0.0179599, 1.2555, -0.1054688, 1.2555, -0.9962769, 1.2555, -0.0292358, 1.2555, 1.3053435, 1.2555, 0.6870229, 1.2555, -3.389313
0.1485, -0.0179599, 1.26225, -0.1030884, 1.26225, -1, 1.26225, -0.0285645, 1.26225, 1.4503816, 1.26225, 0.6793893, 1.26225, -3.3740458
0.1492941, -0.0193027, 1.269, -0.1002808, 1.269, -1.0010376, 1.269, -0.0265503, 1.269, 1.4656489, 1.269, 0.6564885, 1.269, -3.389313
0.1500882, -0.0231632, 1.27575, -0.1019897, 1.27575, -0.9995117, 1.27575, -0.0273438, 1.27575, 1.4580153, 1.27575, 1.0687023, 1.27575, -3.3740458
0.1508824, -0.0219883, 1.2825, -0.1029053, 1.2825, -0.9949341, 1.2825, -0.0283203, 1.2825, 1.3969465, 1.2825, 1.0763359, 1.2825, -3.4580152
0.1516765, -0.0209812, 1.28925, -0.1053467, 1.28925, -0.9967651, 1.28925, -0.0245361, 1.28925, 1.1679389, 1.28925, 1.1221374, 1.28925, -3.2671757
0.1524706, -0.0169528, 1.296, -0.1046143, 1.296, -0.9967041, 1.296, -0.0264893, 1.296, 1.3969465, 1.296, 1.0152671, 1.296, -3.2748091
0.1532647, -0.014435, 1.30275, -0.1037598, 1.30275, -0.99823, 1.30275, -0.0285034, 1.30275, 1.3587786, 1.30275, 1.0458015, 1.30275, -3.3587787
0.1540588, -0.0132601, 1.3095, -0.1053467, 1.3095, -1.000061, 1.3095, -0.0289917, 1.3095, 1.2519084, 1.3095, 0.9694657, 1.3095, -3.2824428
0.1548529, -0.0135958, 1.31625, -0.1050415, 1.31625, -0.9985352, 1.31625, -0.0279541, 1.31625, 1.3053435, 1.31625, 0.9541985, 1.31625, -3.2824428
0.1556471, -0.0132601, 1.323, -0.1037598, 1.323, -0.9981079, 1.323, -0.0258179, 1.323, 1.2977099, 1.323, 0.8778626, 1.323, -3.3206108
0.1564412, -0.0104067, 1.32975, -0.1055908, 1.32975, -0.9990234, 1.32975, -0.0296021, 1.32975, 1.389313, 1.32975, 0.8778626, 1.32975, -3.2137403
0.1572353, -0.0115816, 1.3365, -0.1043701, 1.3365, -1.0001221, 1.3365, -0.0256958, 1.3365, 1.3206106, 1.3365, 0.9007633, 1.3365, -3.2519083
0.1580294, -0.0107424, 1.34325, -0.1032104, 1.34325, -0.9984131, 1.34325, -0.0235596, 1.34325, 1.2137405, 1.34325, 0.5343512, 1.34325, -3.4351146
0.1588235, -0.0075532, 1.35, -0.105957, 1.35, -0.9973755, 1.35, -0.0284424, 1.35, 1.129771, 1.35, 0.6870229, 1.35, -3.1450381
0.1596176, -0.0075532, 1.35675, -0.1035767, 1.35675, -0.9989014, 1.35675, -0.0255737, 1.35675, 1.2519084, 1.35675, 0.7099237, 1.35675, -3.1526718
0.1604118, -0.0115816, 1.3635, -0.1040649, 1.3635, -1.0006714, 1.3635, -0.0264282, 1.3635, 1.1679389, 1.3635, 0.6870229, 1.3635, -3.1984732
0.1612059, -0.014435, 1.37025, -0.1031494, 1.37025, -0.9984131, 1.37025, -0.0244751, 1.37025, 1.2824427, 1.37025, 0.7328244, 1.37025, -3
0.162, -0.0112459, 1.377, -0.1035767, 1.377, -0.9989624, 1.377, -0.0249023, 1.377, 1.3053435, 1.377, 0.8015267, 1.377, -3.129771
0.1627941, -0.01561, 1.38375, -0.1038818, 1.38375, -1.0003052, 1.38375, -0.0269775, 1.38375, 1.2366412, 1.38375, 0.9923664, 1.38375, -3.3129771
0.1635882, -0.01561, 1.3905, -0.1049805, 1.3905, -0.9978027, 1.3905, -0.0271606, 1.3905, 1.1679389, 1.3905, 1.2137405, 1.3905, -3.351145
0.1643824, -0.0161135, 1.39725, -0.1069336, 1.39725, -0.9991455, 1.39725, -0.0280762, 1.39725, 1.1755725, 1.39725, 1.3129771, 1.39725, -3.1145039
0.1651765, -0.017792, 1.404, -0.1066284, 1.404, -0.9970093, 1.404, -0.0304565, 1.404, 1.259542, 1.404, 1.1832061, 1.404, -3.2519083
0.1659706, -0.0184634, 1.41075, -0.1102295, 1.41075, -0.9957886, 1.41075, -0.0309448, 1.41075, 1.351145, 1.41075, 1, 1.41075, -3.2519083
0.1667647, -0.0182956, 1.4175, -0.1080933, 1.4175, -0.9985352, 1.4175, -0.0267334, 1.4175, 1.221374, 1.4175, 0.6717557, 1.4175, -3.1908398
0.1675588, -0.0157778, 1.42425, -0.1050415, 1.42425, -1.0010376, 1.42425, -0.0286255, 1.42425, 1.2671756, 1.42425, 0.7862595, 1.42425, -3.2290077
0.1683529, -0.0166171, 1.431, -0.1019897, 1.431, -1.0020142, 1.431, -0.0292969, 1.431, 1.1832061, 1.431, 0.7328244, 1.431, -3.3587787
0.1691471, -0.0146029, 1.43775, -0.1040039, 1.43775, -1.0018921, 1.43775, -0.0305786, 1.43775, 1.259542, 1.43775, 0.7480916, 1.43775, -3.1984732
0.1699412, -0.0082246, 1.4445, -0.1035156, 1.4445, -0.9972534, 1.4445, -0.0273438, 1.4445, 1.389313, 1.4445, 0.8473282, 1.4445, -3.2748091
0.1707353, -0.0058747, 1.45125, -0.1043091, 1.45125, -0.9990234, 1.45125, -0.0273438, 1.45125, 1.3206106, 1.45125, 0.8854962, 1.45125, -3.221374
0.1715294, -0.0092317, 1.458, -0.1068726, 1.458, -0.9980469, 1.458, -0.0283203, 1.458, 1.3206106, 1.458, 0.7480916, 1.458, -3.259542
0.1723235, -0.008896, 1.46475, -0.1077881, 1.46475, -1.0011597, 1.46475, -0.0267944, 1.46475, 1.3435115, 1.46475, 0.7251908, 1.46475, -3.2442749
0.1731176, -0.0105745, 1.4715, -0.1120605, 1.4715, -1.0002441, 1.4715, -0.0294189, 1.4715, 1.4198474, 1.4715, 0.778626, 1.4715, -3.1145039
0.1739118, -0.0135958, 1.47825, -0.1068115, 1.47825, -0.9981079, 1.47825, -0.0304565, 1.47825, 1.3816794, 1.47825, 0.6717557, 1.47825, -3.2442749
0.1747059, -0.0132601, 1.485, -0.1071777, 1.485, -0.9994507, 1.485, -0.027832, 1.485, 1.2366412, 1.485, 0.6717557, 1.485, -3.3282442
0.1755, -0.0112459, 1.49175, -0.1035767, 1.49175, -0.9988403, 1.49175, -0.0276489, 1.49175, 1.259542, 1.49175, 0.6717557, 1.49175, -3.0992367
0.1762941, -0.0112459, 1.4985, -0.1015625, 1.4985, -1.0001831, 1.4985, -0.0269165, 1.4985, 1.3587786, 1.4985, 0.7709923, 1.4985, -3.3740458
0.1770882, -0.0135958, 1.50525, -0.1004639, 1.50525, -0.9994507, 1.50525, -0.024353, 1.50525, 1.351145, 1.50525, 0.8625954, 1.50525, -3.2061069
0.1778824, -0.0176242, 1.512, -0.1002197, 1.512, -0.9989014, 1.512, -0.0251465, 1.512, 1.3053435, 1.512, 1.0076336, 1.512, -3.0229008
0.1786765, -0.0193027, 1.51875, -0.1018677, 1.51875, -0.9976807, 1.51875, -0.0262451, 1.51875, 1.4045801, 1.51875, 1.0152671, 1.51875, -3.0687022
0.1794706, -0.0176242, 1.5255, -0.1019287, 1.5255, -0.9981079, 1.5255, -0.0255127, 1.5255, 1.2748091, 1.5255, 1.0687023, 1.5255, -2.961832
0.1802647, -0.0176242, 1.53225, -0.1064453, 1.53225, -0.9992676, 1.53225, -0.0253906, 1.53225, 1.2748091, 1.53225, 1.0229008, 1.53225, -3.0076337
0.1810588, -0.0186313, 1.539, -0.1070557, 1.539, -0.9978638, 1.539, -0.0270996, 1.539, 1.2137405, 1.539, 1.0229008, 1.539, -2.908397
0.1818529, -0.0203098, 1.54575, -0.1047974, 1.54575, -0.9978638, 1.54575, -0.0261841, 1.54575, 1.1908396, 1.54575, 1, 1.54575, -3.0610688
0.1826471, -0.0196384, 1.5525, -0.1026001, 1.5525, -1.0009766, 1.5525, -0.0283813, 1.5525, 1.2824427, 1.5525, 1.0458015, 1.5525, -2.9236641
0.1834412, -0.018967, 1.55925, -0.1002808, 1.55925, -1.0001221, 1.55925, -0.026001, 1.55925, 1.1755725, 1.55925, 1.0152671, 1.55925, -3.0458016
0.1842353, -0.0209812, 1.566, -0.1008911, 1.566, -1.0001831, 1.566, -0.0275879, 1.566, 1.0610687, 1.566, 1.0152671, 1.566, -3.0839694
0.1850294, -0.0169528, 1.57275, -0.1032715, 1.57275, -0.9995728, 1.57275, -0.0303345, 1.57275, 1.1526718, 1.57275, 1.3129771, 1.57275, -3.0687022
0.1858235, -0.0135958, 1.5795, -0.105835, 1.5795, -1.0013428, 1.5795, -0.0286255, 1.5795, 1.221374, 1.5795, 1.480916, 1.5795, -3.038168
0.1866176, -0.0159457, 1.58625, -0.109314, 1.58625, -0.9994507, 1.58625, -0.0292358, 1.58625, 1.1679389, 1.58625, 1.4656489, 1.58625, -3.038168
0.1874118, -0.0157778, 1.593, -0.1109009, 1.593, -1.0020142, 1.593, -0.0283203, 1.593, 1.1755725, 1.593, 1.351145, 1.593, -3.0152671
0.1882059, -0.014435, 1.59975, -0.1083374, 1.59975, -0.9993896, 1.59975, -0.0291748, 1.59975, 1.1374046, 1.59975, 1.0305344, 1.59975, -2.8931298
0.189, -0.008896, 1.6065, -0.109314, 1.6065, -0.9985962, 1.6065, -0.0306396, 1.6065, 1.1679389, 1.6065, 0.8931298, 1.6065, -2.9236641
0.1897941, -0.0090639, 1.61325, -0.1072388, 1.61325, -0.9995117, 1.61325, -0.0299683, 1.61325, 1.3053435, 1.61325, 0.6641222, 1.61325, -2.8396947
0.1905882, -0.0102388, 1.62, -0.1039429, 1.62, -0.9981689, 1.62, -0.0307007, 1.62, 1.091603, 1.62, 0.6641222, 1.62, -3.038168
0.1913824, -0.0117494, 1.62675, -0.1032715, 1.62675, -0.9974976, 1.62675, -0.0302734, 1.62675, 1.259542, 1.62675, 0.6870229, 1.62675, -3.0152671
0.1921765, -0.017792, 1.6335, -0.1054077, 1.6335, -0.9978638, 1.6335, -0.0322876, 1.6335, 1.1755725, 1.6335, 0.5954198, 1.6335, -2.9541984
0.1929706, -0.0164492, 1.64025, -0.1086426, 1.64025, -0.9976196, 1.64025, -0.0307617, 1.64025, 1.1832061, 1.64025, 0.7862595, 1.64025, -3.0152671
0.1937647, -0.0164492, 1.647, -0.112854, 1.647, -0.9962769, 1.647, -0.0322266, 1.647, 1.2137405, 1.647, 0.6564885, 1.647, -3.0458016
0.1945588, -0.01561, 1.65375, -0.1117554, 1.65375, -0.9992065, 1.65375, -0.03125, 1.65375, 1.2671756, 1.65375, 0.3816794, 1.65375, -2.961832
0.1953529, -0.0166171, 1.6605, -0.1126709, 1.6605, -1.0009155, 1.6605, -0.03302, 1.6605, 1.221374, 1.6605, 0.1755725, 1.6605, -2.9465649
0.1961471, -0.0172885, 1.66725, -0.1070557, 1.66725, -1.0027466, 1.66725, -0.0293579, 1.66725, 1.4274809, 1.66725, 0.221374, 1.66725, -3.129771
0.1969412, -0.018967, 1.674, -0.1055298, 1.674, -0.9993896, 1.674, -0.031311, 1.674, 1.4503816, 1.674, 0.1450382, 1.674, -3.1603053
0.1977353, -0.018967, 1.68075, -0.102478, 1.68075, -0.996582, 1.68075, -0.0297852, 1.68075, 1.5267175, 1.68075, 0.1450382, 1.68075, -3.1679389
0.1985294, -0.0196384, 1.6875, -0.1013794, 1.6875, -0.9980469, 1.6875, -0.0291748, 1.6875, 1.259542, 1.6875, 0.4503817, 1.6875, -3.1984732
0.1993235, -0.0176242, 1.69425, -0.1029663, 1.69425, -1, 1.69425, -0.0297241, 1.69425, 1.4198474, 1.69425, 0.6412213, 1.69425, -3.0152671
0.2001176, -0.0169528, 1.701, -0.1079102, 1.701, -0.9996948, 1.701, -0.0267944, 1.701, 1.4503816, 1.701, 0.6412213, 1.701, -3.0305343
0.2009118, -0.0152743, 1.70775, -0.1069946, 1.70775, -0.9998779, 1.70775, -0.0258789, 1.70775, 1.4045801, 1.70775, 0.6259542, 1.70775, -3.0610688
0.2017059, -0.0149386, 1.7145, -0.1074219, 1.7145, -1.0010986, 1.7145, -0.0283813, 1.7145, 1.2900764, 1.7145, 0.6335878, 1.7145, -3.038168
0.2025, -0.0135958, 1.72125, -0.1074829, 1.72125, -0.9997559, 1.72125, -0.0303955, 1.72125, 1.2748091, 1.72125, 0.6564885, 1.72125, -2.9465649
0.2032941, -0.0119173, 1.728, -0.109436, 1.728, -0.9985352, 1.728, -0.0307007, 1.728, 1.3358779, 1.728, 0.4580153, 1.728, -3.0763359
0.2040882, -0.0082246, 1.73475, -0.1075439, 1.73475, -0.9992065, 1.73475, -0.0283813, 1.73475, 1.1832061, 1.73475, 0.2442748, 1.73475, -3.0610688
0.2048824, -0.0085603, 1.7415, -0.1054688, 1.7415, -0.9998779, 1.7415, -0.0304565, 1.7415, 1.3206106, 1.7415, 0.221374, 1.7415, -3.0076337
0.2056765, -0.0129244, 1.74825, -0.1044312, 1.74825, -1.0004883, 1.74825, -0.0299683, 1.74825, 1.351145, 1.74825, 0.2824427, 1.74825, -3.091603
0.2064706, -0.0139315, 1.755, -0.1057129, 1.755, -0.9992065, 1.755, -0.0303955, 1.755, 1.480916, 1.755, 0.2977099, 1.755, -3.2366412
0.2072647, -0.0135958, 1.76175, -0.1054077, 1.76175, -0.9990234, 1.76175, -0.0283203, 1.76175, 1.2519084, 1.76175, 0.1603053, 1.76175, -3.2442749
0.2080588, -0.0146029, 1.7685, -0.1100464, 1.7685, -1.0008545, 1.7685, -0.0283813, 1.7685, 1.5801526, 1.7685, 0.2366412, 1.7685, -3.1755726
0.2088529, -0.01561, 1.77525, -0.1063843, 1.77525, -1.0004883, 1.77525, -0.0324097, 1.77525, 1.389313, 1.77525, 0.3358779, 1.77525, -3.1145039
0.2096471, -0.0135958, 1.782, -0.1051636, 1.782, -1.0002441, 1.782, -0.0294189, 1.782, 1.1984733, 1.782, 0.2824427, 1.782, -3.0152671
0.2104412, -0.0129244, 1.78875, -0.1038818, 1.78875, -1.0006714, 1.78875, -0.0310059, 1.78875, 1.4198474, 1.78875, 0.4351145, 1.78875, -2.9312978
0.2112353, -0.0151064, 1.7955, -0.1020508, 1.7955, -1.0005493, 1.7955, -0.0274048, 1.7955, 1.4503816, 1.7955, 0.6717557, 1.7955, -2.9465649
0.2120294, -0.0164492, 1.80225, -0.1036377, 1.80225, -0.9990845, 1.80225, -0.026001, 1.80225, 1.2824427, 1.80225, 0.870229, 1.80225, -2.9847329
0.2128235, -0.0142672, 1.809, -0.100647, 1.809, -1.0005493, 1.809, -0.0231323, 1.809, 1.2748091, 1.809, 0.9847328, 1.809, -3.1068702
0.2136176, -0.0179599, 1.81575, -0.1050415, 1.81575, -0.9990845, 1.81575, -0.024231, 1.81575, 1.2824427, 1.81575, 1.1679389, 1.81575, -3.1374047
0.2144118, -0.0196384, 1.8225, -0.1060791, 1.8225, -0.9977417, 1.8225, -0.0249023, 1.8225, 1.1221374, 1.8225, 1.1984733, 1.8225, -3.1145039
0.2152059, -0.0169528, 1.82925, -0.1071777, 1.82925, -0.9961548, 1.82925, -0.022583, 1.82925, 1.0839695, 1.82925, 1.0687023, 1.82925, -2.9694657
0.216, -0.0149386, 1.836, -0.1053467, 1.836, -0.9968872, 1.836, -0.024231, 1.836, 1.1603054, 1.836, 1.129771, 1.836, -2.9770992
0.2167941, -0.0130922, 1.84275, -0.1070557, 1.84275, -0.9973755, 1.84275, -0.0272217, 1.84275, 1.1832061, 1.84275, 1.1450381, 1.84275, -3.091603
0.2175882, -0.0115816, 1.8495, -0.1057129, 1.8495, -0.9987793, 1.8495, -0.0264893, 1.8495, 1.091603, 1.8495, 1.129771, 1.8495, -2.908397
0.2183824, -0.012253, 1.85625, -0.1066895, 1.85625, -0.9990845, 1.85625, -0.0257568, 1.85625, 1.0839695, 1.85625, 0.8625954, 1.85625, -3.0229008
0.2191765, -0.0129244, 1.863, -0.1106567, 1.863, -0.9994507, 1.863, -0.029541, 1.863, 1.091603, 1.863, 1, 1.863, -2.908397
0.2199706, -0.0129244, 1.86975, -0.1108398, 1.86975, -0.9993896, 1.86975, -0.0306396, 1.86975, 1.0305344, 1.86975, 0.8625954, 1.86975, -2.9160306
0.2207647, -0.012253, 1.8765, -0.1113892, 1.8765, -0.9963379, 1.8765, -0.0299683, 1.8765, 1.129771, 1.8765, 0.7633588, 1.8765, -3.1221373
0.2215588, -0.0135958, 1.88325, -0.1119385, 1.88325, -0.9951172, 1.88325, -0.0284424, 1.88325, 1.0687023, 1.88325, 0.6030535, 1.88325, -2.9541984
0.2223529, -0.012253, 1.89, -0.109436, 1.89, -1.0010986, 1.89, -0.0281982, 1.89, 1.0534351, 1.89, 0.5572519, 1.89, -3.038168
0.2231471, -0.0109102, 1.89675, -0.1099854, 1.89675, -0.9991455, 1.89675, -0.0270996, 1.89675, 1.1374046, 1.89675, 0.5801527, 1.89675, -2.961832
0.2239412, -0.0083925, 1.9035, -0.107605, 1.9035, -1.001709, 1.9035, -0.0274048, 1.9035, 1.0839695, 1.9035, 0.5648855, 1.9035, -3.0076337
0.2247353, -0.0082246, 1.91025, -0.1091309, 1.91025, -1.0010376, 1.91025, -0.0294189, 1.91025, 0.9541985, 1.91025, 0.8244275, 1.91025, -3.1221373
0.2255294, -0.0129244, 1.917, -0.1087646, 1.917, -0.9977417, 1.917, -0.0305176, 1.917, 1, 1.917, 0.8015267, 1.917, -2.9160306
0.2263235, -0.0162814, 1.92375, -0.1121216, 1.92375, -0.9989624, 1.92375, -0.0302124, 1.92375, 1.0152671, 1.92375, 0.5648855, 1.92375, -3.038168
0.2271176, -0.0162814, 1.9305, -0.1088867, 1.9305, -0.9995728, 1.9305, -0.0291748, 1.9305, 0.8473282, 1.9305, 0.4274809, 1.9305, -3.1755726
0.2279118, -0.01561, 1.93725, -0.1087036, 1.93725, -0.9987183, 1.93725, -0.0288086, 1.93725, 1.0152671, 1.93725, 0.3282443, 1.93725, -3.2366412
0.2287059, -0.0146029, 1.944, -0.1099854, 1.944, -0.99823, 1.944, -0.0269165, 1.944, 0.961832, 1.944, 0.2900763, 1.944, -3.1984732
0.2295, -0.014435, 1.95075, -0.104248, 1.95075, -0.9967651, 1.95075, -0.0321655, 1.95075, 1.038168, 1.95075, 0.2900763, 1.95075, -3.1679389
0.2302941, -0.0151064, 1.9575, -0.109436, 1.9575, -0.9986572, 1.9575, -0.0308228, 1.9575, 0.9770992, 1.9575, 0.4198473, 1.9575, -3.1908398
0.2310882, -0.0149386, 1.96425, -0.1072388, 1.96425, -0.9984741, 1.96425, -0.0314331, 1.96425, 1.0687023, 1.96425, 0.351145, 1.96425, -3.1755726
0.2318824, -0.0206455, 1.971, -0.1064453, 1.971, -0.9970093, 1.971, -0.029541, 1.971, 0.961832, 1.971, 0.3358779, 1.971, -3.2442749
0.2326765, -0.0229953, 1.97775, -0.1036987, 1.97775, -0.9972534, 1.97775, -0.0307617, 1.97775, 1.0534351, 1.97775, 0.2290076, 1.97775, -3.2977099
0.2334706, -0.0176242, 1.9845, -0.1070557, 1.9845, -1.0001221, 1.9845, -0.0328979, 1.9845, 1.0610687, 1.9845, 0.1908397, 1.9845, -3.3282442
0.2342647, -0.0179599, 1.99125, -0.1061401, 1.99125, -1.0007935, 1.99125, -0.0293579, 1.99125, 0.961832, 1.99125, 0.3129771, 1.99125, -3.259542
0.2350588, -0.0140993, 1.998, -0.1069336, 1.998, -1.0005493, 1.998, -0.0283203, 1.998, 1.2061069, 1.998, 0.2824427, 1.998, -3.2977099
0.2358529, -0.0129244, 2.00475, -0.1083374, 2.00475, -1.0015259, 2.00475, -0.0291748, 2.00475, 1.1068702, 2.00475, 0.3587786, 2.00475, -3.259542
0.2366471, -0.0137636, 2.0115, -0.1099854, 2.0115, -1.0006714, 2.0115, -0.0280151, 2.0115, 1.0076336, 2.0115, 0.2748092, 2.0115, -3.3435113
0.2374412, -0.0115816, 2.01825, -0.1098022, 2.01825, -0.9998779, 2.01825, -0.0286255, 2.01825, 1.0458015, 2.01825, 0.0381679, 2.01825, -3.3435113
0.2382353, -0.0068818, 2.025, -0.1090088, 2.025, -1.0006714, 2.025, -0.0276489, 2.025, 1.1603054, 2.025, 0.1221374, 2.025, -3.4198472
0.2390294, -0.0070497, 2.03175, -0.1039429, 2.03175, -1.0012207, 2.03175, -0.0264282, 2.03175, 1.0305344, 2.03175, 0.2671756, 2.03175, -3.351145
0.2398235, -0.0028534, 2.0385, -0.1026001, 2.0385, -1.0011597, 2.0385, -0.0259399, 2.0385, 1.1145039, 2.0385, 0.4198473, 2.0385, -3.3969467
0.2406176, -0.005539, 2.04525, -0.1052856, 2.04525, -0.9985352, 2.04525, -0.0267334, 2.04525, 1.1221374, 2.04525, 0.6641222, 2.04525, -3.351145
0.2414118, -0.012253, 2.052, -0.1078491, 2.052, -1.0006104, 2.052, -0.0271606, 2.052, 1.2137405, 2.052, 0.7328244, 2.052, -3.3206108
0.2422059, -0.0124208, 2.05875, -0.1096802, 2.05875, -1.0005493, 2.05875, -0.031311, 2.05875, 1.038168, 2.05875, 0.7480916, 2.05875, -3.3053436
0.243, -0.0117494, 2.0655, -0.107605, 2.0655, -1.0006714, 2.0655, -0.027771, 2.0655, 1.0839695, 2.0655, 0.7175573, 2.0655, -3.2977099
0.2437941, -0.0152743, 2.07225, -0.1100464, 2.07225, -1.0003662, 2.07225, -0.0279541, 2.07225, 1.0152671, 2.07225, 0.480916, 2.07225, -3.2900763
0.2445882, -0.0132601, 2.079, -0.1089478, 2.079, -0.9971313, 2.079, -0.0322876, 2.079, 0.9694657, 2.079, 0.4045801, 2.079, -3.5114503
0.2453824, -0.0140993, 2.08575, -0.109436, 2.08575, -0.9974976, 2.08575, -0.0290527, 2.08575, 1.0839695, 2.08575, 0.2900763, 2.08575, -3.4198472
0.2461765, -0.0182956, 2.0925, -0.1044922, 2.0925, -0.998291, 2.0925, -0.027832, 2.0925, 1.1221374, 2.0925, 0.2290076, 2.0925, -3.3664122
0.2469706, -0.0186313, 2.09925, -0.1002197, 2.09925, -1.0020142, 2.09925, -0.0252686, 2.09925, 1.0839695, 2.09925, 0.4427481, 2.09925, -3.4274809
0.2477647, -0.0176242, 2.106, -0.098999, 2.106, -0.9985352, 2.106, -0.024292, 2.106, 1.2290076, 2.106, 0.4961832, 2.106, -3.3587787
0.2485588, -0.0203098, 2.11275, -0.1015625, 2.11275, -1.0002441, 2.11275, -0.0271606, 2.11275, 1.1374046, 2.11275, 0.9312977, 2.11275, -3.1603053
0.2493529, -0.0179599, 2.1195, -0.1044922, 2.1195, -1.0005493, 2.1195, -0.0256958, 2.1195, 1.2671756, 2.1195, 1.1068702, 2.1195, -3.389313
0.2501471, -0.0146029, 2.12625, -0.1068726, 2.12625, -0.99823, 2.12625, -0.0253906, 2.12625, 1.0687023, 2.12625, 1.0687023, 2.12625, -3.2290077
0.2509412, -0.0135958, 2.133, -0.1073608, 2.133, -1.0001831, 2.133, -0.0246582, 2.133, 0.9847328, 2.133, 1.1374046, 2.133, -3.1679389
0.2517353, -0.0112459, 2.13975, -0.105957, 2.13975, -1.0001221, 2.13975, -0.0285034, 2.13975, 1.1450381, 2.13975, 1.1603054, 2.13975, -3.1984732
0.2525294, -0.0115816, 2.1465, -0.1048584, 2.1465, -0.9973145, 2.1465, -0.0282593, 2.1465, 1.1603054, 2.1465, 1.0076336, 2.1465, -3.1145039
0.2533235, -0.012253, 2.15325, -0.1049805, 2.15325, -0.999939, 2.15325, -0.0270386, 2.15325, 0.8320611, 2.15325, 1.1908396, 2.15325, -3.351145
0.2541176, -0.0095674, 2.16, -0.1085205, 2.16, -1.0001221, 2.16, -0.0281372, 2.16, 0.7328244, 2.16, 0.9312977, 2.16, -3.2519083
0.2549118, -0.0102388, 2.16675, -0.1072998, 2.16675, -1.0010986, 2.16675, -0.0305176, 2.16675, 0.740458, 2.16675, 1.0076336, 2.16675, -3.1908398
0.2557059, -0.0102388, 2.1735, -0.1082764, 2.1735, -1.0025635, 2.1735, -0.0328369, 2.1735, 0.778626, 2.1735, 1.091603, 2.1735, -3.2824428
0.2565, -0.0092317, 2.18025, -0.1090698, 2.18025, -1.0020142, 2.18025, -0.0334473, 2.18025, 0.8625954, 2.18025, 0.9312977, 2.18025, -3.1755726
0.2572941, -0.0109102, 2.187, -0.1069946, 2.187, -0.9987183, 2.187, -0.0336914, 2.187, 1.0152671, 2.187, 0.9465649, 2.187, -3.1603053
0.2580882, -0.0125887, 2.19375, -0.1071777, 2.19375, -1.0002441, 2.19375, -0.0316162, 2.19375, 0.9694657, 2.19375, 1.0305344, 2.19375, -3.4045801
0.2588824, -0.0125887, 2.2005, -0.1065063, 2.2005, -0.999939, 2.2005, -0.0319824, 2.2005, 1.091603, 2.2005, 1.1908396, 2.2005, -3.1984732
0.2596765, -0.01561, 2.20725, -0.104126, 2.20725, -0.9993896, 2.20725, -0.0345459, 2.20725, 1.0610687, 2.20725, 1.221374, 2.20725, -3.2977099
0.2604706, -0.0149386, 2.214, -0.1082764, 2.214, -0.9985962, 2.214, -0.0321045, 2.214, 1.0534351, 2.214, 1.2290076, 2.214, -3.3282442
0.2612647, -0.0162814, 2.22075, -0.1091309, 2.22075, -1.0004883, 2.22075, -0.0321045, 2.22075, 1.2137405, 2.22075, 1.1908396, 2.22075, -3.2671757
0.2620588, -0.0196384, 2.2275, -0.1103516, 2.2275, -1, 2.2275, -0.0331421, 2.2275, 1.0610687, 2.2275, 0.8244275, 2.2275, -3.4045801
0.2628529, -0.0193027, 2.23425, -0.1088867, 2.23425, -0.9989624, 2.23425, -0.0323486, 2.23425, 1.1526718, 2.23425, 0.6946565, 2.23425, -3.3206108
0.2636471, -0.0223239, 2.241, -0.1071777, 2.241, -0.9978027, 2.241, -0.0344238, 2.241, 1.1145039, 2.241, 0.6259542, 2.241, -3.4045801
0.2644412, -0.0229953, 2.24775, -0.1069946, 2.24775, -1.0020142, 2.24775, -0.0316772, 2.24775, 1.1755725, 2.24775, 0.3129771, 2.24775, -3.3053436
0.2652353, -0.0223239, 2.2545, -0.1060181, 2.2545, -1.0026245, 2.2545, -0.0300903, 2.2545, 1.1755725, 2.2545, 0.2977099, 2.2545, -3.3587787
0.2660294, -0.0236667, 2.26125, -0.1044922, 2.26125, -1.0023804, 2.26125, -0.0308838, 2.26125, 1.2671756, 2.26125, 0.1526718, 2.26125, -3.3740458
0.2668235, -0.0176242, 2.268, -0.1026611, 2.268, -0.9995117, 2.268, -0.0324097, 2.268, 1.1984733, 2.268, 0.2977099, 2.268, -3.3206108
0.2676176, -0.0162814, 2.27475, -0.1027832, 2.27475, -1.0030518, 2.27475, -0.0308228, 2.27475, 1.0763359, 2.27475, 0.351145, 2.27475, -3.4122138
0.2684118, -0.018967, 2.2815, -0.1052246, 2.2815, -1.0020752, 2.2815, -0.0302124, 2.2815, 1.2290076, 2.2815, 0.5572519, 2.2815, -3.2977099
0.2692059, -0.0159457, 2.28825, -0.1054077, 2.28825, -1.0036011, 2.28825, -0.027771, 2.28825, 1, 2.28825, 0.7251908, 2.28825, -3.3053436
0.27, -0.0135958, 2.295, -0.1050415, 2.295, -0.9988403, 2.295, -0.0280151, 2.295, 1.2290076, 2.295, 0.5267175, 2.295, -3.3358779
0.2707941, -0.0152743, 2.30175, -0.1080933, 2.30175, -0.996521, 2.30175, -0.0292969, 2.30175, 1.2824427, 2.30175, 0.5648855, 2.30175, -3.259542
0.2715882, -0.0149386, 2.3085, -0.1073608, 2.3085, -0.9973755, 2.3085, -0.0286865, 2.3085, 1.259542, 2.3085, 0.5572519, 2.3085, -3.3664122
0.2723824, -0.0162814, 2.31525, -0.1069336, 2.31525, -0.9956665, 2.31525, -0.0300903, 2.31525, 1.2748091, 2.31525, 0.519084, 2.31525, -3.1908398
0.2731765, -0.0164492, 2.322, -0.1055298, 2.322, -0.9968262, 2.322, -0.0300293, 2.322, 1.0534351, 2.322, 0.3358779, 2.322, -3.3282442
0.2739706, -0.0135958, 2.32875, -0.1030884, 2.32875, -0.9992065, 2.32875, -0.0287476, 2.32875, 1.1526718, 2.32875, 0.2671756, 2.32875, -3.1603053
0.2747647, -0.0109102, 2.3355, -0.1012573, 2.3355, -1.0006714, 2.3355, -0.0315552, 2.3355, 1.0992366, 2.3355, 0.3129771, 2.3355, -3.2519083
0.2755588, -0.0142672, 2.34225, -0.1034546, 2.34225, -1.0021973, 2.34225, -0.0310059, 2.34225, 1.1603054, 2.34225, 0.3053435, 2.34225, -3.4122138
0.2763529, -0.0172885, 2.349, -0.1069946, 2.349, -1.0003662, 2.349, -0.0316162, 2.349, 1.1068702, 2.349, 0.4198473, 2.349, -3.3969467
0.2771471, -0.0164492, 2.35575, -0.1054688, 2.35575, -0.9995117, 2.35575, -0.0305786, 2.35575, 1.0458015, 2.35575, 0.4198473, 2.35575, -3.389313
0.2779412, -0.0154421, 2.3625, -0.1078491, 2.3625, -0.9987793, 2.3625, -0.0303955, 2.3625, 1.0534351, 2.3625, 0.3435115, 2.3625, -3.1832061
0.2787353, -0.0182956, 2.36925, -0.1071167, 2.36925, -1.0009155, 2.36925, -0.0298462, 2.36925, 1.1450381, 2.36925, 0.221374, 2.36925, -3.2290077
0.2795294, -0.0186313, 2.376, -0.1077271, 2.376, -1.0010376, 2.376, -0.0300293, 2.376, 1.2061069, 2.376, 0.0992366, 2.376, -3.3435113
0.2803235, -0.0186313, 2.38275, -0.1082153, 2.38275, -0.9993286, 2.38275, -0.0290527, 2.38275, 1.3053435, 2.38275, -0.0687023, 2.38275, -3.129771
0.2811176, -0.0162814, 2.3895, -0.1069336, 2.3895, -1.0006714, 2.3895, -0.0297241, 2.3895, 1.1984733, 2.3895, 0.2290076, 2.3895, -3.2977099
0.2819118, -0.0152743, 2.39625, -0.1047363, 2.39625, -1.0006104, 2.39625, -0.0286865, 2.39625, 1.129771, 2.39625, 0.1755725, 2.39625, -3.351145
0.2827059, -0.0152743, 2.403, -0.1016846, 2.403, -1.0011597, 2.403, -0.026123, 2.403, 1.2748091, 2.403, 0.3435115, 2.403, -3.2290077
0.2835, -0.0135958, 2.40975, -0.102417, 2.40975, -1.0005493, 2.40975, -0.0265503, 2.40975, 1.2061069, 2.40975, 0.5877863, 2.40975, -3.221374
0.2842941, -0.0135958, 2.4165, -0.0994873, 2.4165, -1.0009766, 2.4165, -0.0269165, 2.4165, 1.1145039, 2.4165, 0.8549618, 2.4165, -3.0839694
0.2850882, -0.0129244, 2.42325, -0.104248, 2.42325, -0.9976196, 2.42325, -0.0263672, 2.42325, 1.1755725, 2.42325, 1.0839695, 2.42325, -3
0.2858824, -0.0149386, 2.43, -0.1043701, 2.43, -0.9996338, 2.43, -0.026123, 2.43, 1.1755725, 2.43, 1.2137405, 2.43, -3.0839694
0.2866765, -0.0149386, 2.43675, -0.1046143, 2.43675, -0.9993896, 2.43675, -0.0267944, 2.43675, 1.1068702, 2.43675, 1.2442749, 2.43675, -3.0229008
0.2874706, -0.0112459, 2.4435, -0.1065674, 2.4435, -0.9987793, 2.4435, -0.0305786, 2.4435, 1.0687023, 2.4435, 1.1603054, 2.4435, -3.1145039
0.2882647, -0.0072175, 2.45025, -0.1044312, 2.45025, -0.9984741, 2.45025, -0.0326538, 2.45025, 1.0763359, 2.45025, 1.129771, 2.45025, -3.038168
0.2890588, -0.0102388, 2.457, -0.1030884, 2.457, -0.9976807, 2.457, -0.031189, 2.457, 0.9923664, 2.457, 0.9007633, 2.457, -3.1145039
0.2898529, -0.0102388, 2.46375, -0.1036987, 2.46375, -0.9990234, 2.46375, -0.0336304, 2.46375, 1.0152671, 2.46375, 0.6946565, 2.46375, -3.1755726
0.2906471, -0.008896, 2.4705, -0.1049194, 2.4705, -1.0004272, 2.4705, -0.031311, 2.4705, 0.9007633, 2.4705, 0.6793893, 2.4705, -3.1603053
0.2914412, -0.0129244, 2.47725, -0.1019897, 2.47725, -1.0001221, 2.47725, -0.0304565, 2.47725, 0.9770992, 2.47725, 0.6564885, 2.47725, -3.0305343
0.2922353, -0.0125887, 2.484, -0.1049805, 2.484, -0.999939, 2.484, -0.0293579, 2.484, 0.9007633, 2.484, 0.5267175, 2.484, -3.1221373
0.2930294, -0.0117494, 2.49075, -0.1025391, 2.49075, -1.0001221, 2.49075, -0.0324097, 2.49075, 0.9007633, 2.49075, 0.5496183, 2.49075, -3.1832061
0.2938235, -0.0097353, 2.4975, -0.1046143, 2.4975, -0.9976807, 2.4975, -0.0316772, 2.4975, 0.9541985, 2.4975, 0.7175573, 2.4975, -3.0839694
0.2946176, -0.0109102, 2.50425, -0.1027222, 2.50425, -0.9960327, 2.50425, -0.03125, 2.50425, 1.0534351, 2.50425, 0.7099237, 2.50425, -3.1450381
0.2954118, -0.0169528, 2.511, -0.1029663, 2.511, -1.0005493, 2.511, -0.0315552, 2.511, 0.9541985, 2.511, 0.6946565, 2.511, -2.9770992
0.2962059, -0.0166171, 2.51775, -0.1060181, 2.51775, -1.0022583, 2.51775, -0.0314941, 2.51775, 0.8854962, 2.51775, 0.7938932, 2.51775, -2.9923663
0.297, -0.0142672, 2.5245, -0.1060181, 2.5245, -1.0026245, 2.5245, -0.02771, 2.5245, 1.1374046, 2.5245, 0.8091603, 2.5245, -3.0763359
0.2977941, -0.0157778, 2.53125, -0.107605, 2.53125, -1.0032959, 2.53125, -0.0282593, 2.53125, 1.0076336, 2.53125, 0.9389313, 2.53125, -3.129771
0.2985882, -0.017792, 2.538, -0.1067505, 2.538, -1.0003662, 2.538, -0.0299683, 2.538, 1.0458015, 2.538, 0.9541985, 2.538, -3.1603053
0.2993824, -0.0182956, 2.54475, -0.1104736, 2.54475, -0.9981079, 2.54475, -0.029541, 2.54475, 1.0152671, 2.54475, 0.7709923, 2.54475, -3.1450381
0.3001765, -0.0182956, 2.5515, -0.1085815, 2.5515, -0.9998169, 2.5515, -0.0322266, 2.5515, 0.9847328, 2.5515, 0.480916, 2.5515, -3.0610688
0.3009706, -0.0166171, 2.55825, -0.1040039, 2.55825, -0.9998779, 2.55825, -0.0316162, 2.55825, 0.9694657, 2.55825, 0.3358779, 2.55825, -3.1908398
0.3017647, -0.0167849, 2.565, -0.1046753, 2.565, -1.0020752, 2.565, -0.0331421, 2.565, 1.091603, 2.565, 0.4885496, 2.565, -3.1984732
0.3025588, -0.017792, 2.57175, -0.1046143, 2.57175, -0.9990234, 2.57175, -0.0316162, 2.57175, 1.038168, 2.57175, 0.6717557, 2.57175, -3.129771
0.3033529, -0.0172885, 2.5785, -0.1035767, 2.5785, -0.9985352, 2.5785, -0.0321655, 2.5785, 1.038168, 2.5785, 0.6717557, 2.5785, -3.038168
0.3041471, -0.0142672, 2.58525, -0.1057739, 2.58525, -0.9976196, 2.58525, -0.0292969, 2.58525, 1.129771, 2.58525, 0.6335878, 2.58525, -3.1145039
0.3049412, -0.0095674, 2.592, -0.1034546, 2.592, -0.9993286, 2.592, -0.0339355, 2.592, 1.0992366, 2.592, 0.740458, 2.592, -3.1832061
0.3057353, -0.0104067, 2.59875, -0.1015015, 2.59875, -0.9984131, 2.59875, -0.0303345, 2.59875, 1.1679389, 2.59875, 0.6793893, 2.59875, -3.129771
0.3065294, -0.0157778, 2.6055, -0.1046143, 2.6055, -0.9986572, 2.6055, -0.0332031, 2.6055, 1.038168, 2.6055, 0.7099237, 2.6055, -3.1984732
0.3073235, -0.0127565, 2.61225, -0.1036377, 2.61225, -1.0008545, 2.61225, -0.0307617, 2.61225, 1.0839695, 2.61225, 0.8244275, 2.61225, -3.2519083
0.3081176, -0.0142672, 2.619, -0.104248, 2.619, -0.9990845, 2.619, -0.0300293, 2.619, 1.1984733, 2.619, 0.961832, 2.619, -3.1908398
0.3089118, -0.0149386, 2.62575, -0.1044312, 2.62575, -0.999939, 2.62575, -0.0308228, 2.62575, 1.0839695, 2.62575, 0.8091603, 2.62575, -3.091603
0.3097059, -0.0166171, 2.6325, -0.1060181, 2.6325, -0.9992676, 2.6325, -0.0316772, 2.6325, 1.4045801, 2.6325, 0.7328244, 2.6325, -3.0992367
0.3105, -0.0176242, 2.63925, -0.1063232, 2.63925, -1.0006714, 2.63925, -0.0327759, 2.63925, 1.221374, 2.63925, 0.778626, 2.63925, -3.0992367
0.3112941, -0.0204776, 2.646, -0.1065674, 2.646, -1.0043335, 2.646, -0.0333252, 2.646, 1.1755725, 2.646, 0.6946565, 2.646, -3.1145039
0.3120882, -0.018967, 2.65275, -0.1088867, 2.65275, -1.0013428, 2.65275, -0.0356445, 2.65275, 1.0076336, 2.65275, 0.610687, 2.65275, -3.2824428
0.3128824, -0.0198062, 2.6595, -0.1053467, 2.6595, -1.0036621, 2.6595, -0.0353394, 2.6595, 1.1984733, 2.6595, 0.5648855, 2.6595, -3.1908398
0.3136765, -0.0216526, 2.66625, -0.1062622, 2.66625, -1.0015259, 2.66625, -0.0366821, 2.66625, 1.2442749, 2.66625, 0.5648855, 2.66625, -3.1755726
0.3144706, -0.0196384, 2.673, -0.1080322, 2.673, -0.9993896, 2.673, -0.0369263, 2.673, 1.2900764, 2.673, 0.4045801, 2.673, -3.1145039
0.3152647, -0.01561, 2.67975, -0.1063232, 2.67975, -1.0009155, 2.67975, -0.0371094, 2.67975, 1.2366412, 2.67975, 0.4045801, 2.67975, -3.1374047
0.3160588, -0.01561, 2.6865, -0.1046753, 2.6865, -0.9984741, 2.6865, -0.0345459, 2.6865, 1.2442749, 2.6865, 0.519084, 2.6865, -3.2290077
0.3168529, -0.0159457, 2.69325, -0.104187, 2.69325, -1.0005493, 2.69325, -0.0334473, 2.69325, 1.3664122, 2.69325, 0.5496183, 2.69325, -3.1068702
0.3176471, -0.0119173, 2.7, -0.105835, 2.7, -0.9973145, 2.7, -0.0328979, 2.7, 1.4961832, 2.7, 0.6870229, 2.7, -3.0687022
0.3184412, -0.0142672, 2.70675, -0.1061401, 2.70675, -0.9981079, 2.70675, -0.0336914, 2.70675, 1.5114504, 2.70675, 0.6183206, 2.70675, -3.1603053
0.3192353, -0.0172885, 2.7135, -0.1069336, 2.7135, -0.9992676, 2.7135, -0.0346069, 2.7135, 1.4045801, 2.7135, 0.4198473, 2.7135, -3.2671757
0.3200294, -0.0181277, 2.72025, -0.1082153, 2.72025, -0.9996338, 2.72025, -0.0319824, 2.72025, 1.5572519, 2.72025, 0.3969466, 2.72025, -3.0687022
0.3208235, -0.0115816, 2.727, -0.1103516, 2.727, -0.9995117, 2.727, -0.0335693, 2.727, 1.4656489, 2.727, 0.3587786, 2.727, -3.1679389
0.3216176, -0.0142672, 2.73375, -0.1054688, 2.73375, -0.9976196, 2.73375, -0.0319214, 2.73375, 1.6030535, 2.73375, 0.3358779, 2.73375, -3.0534351
0.3224118, -0.0162814, 2.7405, -0.1065674, 2.7405, -0.9996948, 2.7405, -0.0285645, 2.7405, 1.4656489, 2.7405, 0.1755725, 2.7405, -3.3053436
0.3232059, -0.0142672, 2.74725, -0.1063232, 2.74725, -1.0003662, 2.74725, -0.0313721, 2.74725, 1.5114504, 2.74725, 0.2824427, 2.74725, -3.0458016
0.324, -0.0115816, 2.754, -0.1054688, 2.754, -0.9993286, 2.754, -0.0313721, 2.754, 1.4732825, 2.754, 0.0992366, 2.754, -3.1374047
0.3247941, -0.0125887, 2.76075, -0.1052856, 2.76075, -1.0015259, 2.76075, -0.0291138, 2.76075, 1.5114504, 2.76075, -0.0458015, 2.76075, -3.091603
0.3255882, -0.012253, 2.7675, -0.1044312, 2.7675, -0.9995117, 2.7675, -0.0281372, 2.7675, 1.4885496, 2.7675, 0.2061069, 2.7675, -3.3053436
0.3263824, -0.0114137, 2.77425, -0.1039429, 2.77425, -1.0011597, 2.77425, -0.0276489, 2.77425, 1.5419847, 2.77425, 0.2519084, 2.77425, -3.0305343
0.3271765, -0.0125887, 2.781, -0.1030273, 2.781, -1.0031128, 2.781, -0.0273438, 2.781, 1.519084, 2.781, 0.4732825, 2.781, -3.2900763
0.3279706, -0.0115816, 2.78775, -0.1030273, 2.78775, -1.0004272, 2.78775, -0.0286865, 2.78775, 1.5114504, 2.78775, 0.4732825, 2.78775, -3.0687022
0.3287647, -0.0115816, 2.7945, -0.1031494, 2.7945, -1.0033569, 2.7945, -0.0286255, 2.7945, 1.3664122, 2.7945, 0.6641222, 2.7945, -3.0229008
0.3295588, -0.0169528, 2.80125, -0.1052856, 2.80125, -1.0020752, 2.80125, -0.0285645, 2.80125, 1.2824427, 2.80125, 0.3587786, 2.80125, -3.1832061
0.3303529, -0.0218204, 2.808, -0.104187, 2.808, -0.9989624, 2.808, -0.0279541, 2.808, 1.259542, 2.808, 0.3969466, 2.808, -3.221374
0.3311471, -0.0206455, 2.81475, -0.1045532, 2.81475, -0.998291, 2.81475, -0.0288086, 2.81475, 1.2824427, 2.81475, 0.4351145, 2.81475, -2.9389312
0.3319412, -0.0199741, 2.8215, -0.1012573, 2.8215, -0.9988403, 2.8215, -0.0279541, 2.8215, 1.1984733, 2.8215, 0.3129771, 2.8215, -2.9160306
0.3327353, -0.0203098, 2.82825, -0.1032715, 2.82825, -0.9985962, 2.82825, -0.0307007, 2.82825, 1.1145039, 2.82825, 0.389313, 2.82825, -3.2290077
0.3335294, -0.0172885, 2.835, -0.1016846, 2.835, -1.0007935, 2.835, -0.0300293, 2.835, 1.1145039, 2.835, 0.4580153, 2.835, -3.0610688
0.3343235, -0.0169528, 2.84175, -0.1040649, 2.84175, -1.0003052, 2.84175, -0.0303955, 2.84175, 1.1221374, 2.84175, 0.5038168, 2.84175, -3.038168
0.3351176, -0.0124208, 2.8485, -0.1038208, 2.8485, -1.0007935, 2.8485, -0.0324707, 2.8485, 1.2748091, 2.8485, 0.5267175, 2.8485, -2.9465649
0.3359118, -0.0119173, 2.85525, -0.1048584, 2.85525, -1.0005493, 2.85525, -0.0285645, 2.85525, 1.1832061, 2.85525, 0.6335878, 2.85525, -3.038168
0.3367059, -0.0142672, 2.862, -0.1068726, 2.862, -1.005249, 2.862, -0.0308838, 2.862, 1.221374, 2.862, 0.6259542, 2.862, -3.1450381
0.3375, -0.0062104, 2.86875, -0.105957, 2.86875, -1.0012207, 2.86875, -0.0317993, 2.86875, 1.0763359, 2.86875, 0.740458, 2.86875, -3.038168
0.3382941, -0.0028534, 2.8755, -0.1067505, 2.8755, -0.999939, 2.8755, -0.0292969, 2.8755, 1.1068702, 2.8755, 0.6259542, 2.8755, -3.038168
0.3390882, -0.0045319, 2.88225, -0.1019897, 2.88225, -1.0023804, 2.88225, -0.0299683, 2.88225, 1.091603, 2.88225, 0.7099237, 2.88225, -3.038168
0.3398824, -0.0072175, 2.889, -0.1047974, 2.889, -1.0038452, 2.889, -0.0294189, 2.889, 1.1603054, 2.889, 0.7557252, 2.889, -2.8320611
0.3406765, -0.0124208, 2.89575, -0.1047974, 2.89575, -1.0021973, 2.89575, -0.0328369, 2.89575, 1.0992366, 2.89575, 0.8320611, 2.89575, -2.908397
0.3414706, -0.0125887, 2.9025, -0.1052246, 2.9025, -1.0031128, 2.9025, -0.0316162, 2.9025, 1.259542, 2.9025, 0.9694657, 2.9025, -3.0687022
0.3422647, -0.0129244, 2.90925, -0.109314, 2.90925, -1.0002441, 2.90925, -0.0339966, 2.90925, 1.0763359, 2.90925, 1.0763359, 2.90925, -3.0534351
0.3430588, -0.012253, 2.916, -0.1081543, 2.916, -0.9995117, 2.916, -0.0327759, 2.916, 1.0992366, 2.916, 1.0152671, 2.916, -3.0687022
0.3438529, -0.0137636, 2.92275, -0.1081543, 2.92275, -0.9992065, 2.92275, -0.0325317, 2.92275, 1.1679389, 2.92275, 0.778626, 2.92275, -3.0534351
0.3446471, -0.0142672, 2.9295, -0.1096191, 2.9295, -0.9979248, 2.9295, -0.034729, 2.9295, 1.0076336, 2.9295, 0.6641222, 2.9295, -3.0458016
0.3454412, -0.0149386, 2.93625, -0.1036987, 2.93625, -0.998291, 2.93625, -0.0301514, 2.93625, 1, 2.93625, 0.8396947, 2.93625, -2.9847329
0.3462353, -0.0139315, 2.943, -0.1040039, 2.943, -0.9974976, 2.943, -0.0315552, 2.943, 1, 2.943, 0.8320611, 2.943, -3.0839694
0.3470294, -0.0196384, 2.94975, -0.1055298, 2.94975, -1.0001831, 2.94975, -0.0305786, 2.94975, 1.1450381, 2.94975, 0.9847328, 2.94975, -3.1603053
0.3478235, -0.0203098, 2.9565, -0.1056519, 2.9565, -0.998291, 2.9565, -0.0308838, 2.9565, 1.2671756, 2.9565, 1.1145039, 2.9565, -3.129771
0.3486176, -0.0196384, 2.96325, -0.1092529, 2.96325, -1.0007324, 2.96325, -0.0310669, 2.96325, 1.2977099, 2.96325, 1.1068702, 2.96325, -3.1603053
0.3494118, -0.0186313, 2.97, -0.1121216, 2.97, -0.9996948, 2.97, -0.0358887, 2.97, 1.2671756, 2.97, 1.1145039, 2.97, -3.0534351
0.3502059, -0.0172885, 2.97675, -0.1134644, 2.97675, -0.9979248, 2.97675, -0.0353394, 2.97675, 1.4503816, 2.97675, 1.0305344, 2.97675, -3.129771
0.351, -0.012253, 2.9835, -0.1123047, 2.9835, -1.0012207, 2.9835, -0.0325317, 2.9835, 1.4732825, 2.9835, 0.8473282, 2.9835, -3.1832061
0.3517941, -0.0129244, 2.99025, -0.1089478, 2.99025, -0.9991455, 2.99025, -0.0338135, 2.99025, 1.4427481, 2.99025, 0.7099237, 2.99025, -3.2900763
0.3525882, -0.0157778, 2.997, -0.1104736, 2.997, -0.9997559, 2.997, -0.0356445, 2.997, 1.351145, 2.997, 0.6946565, 2.997, -3.4427481
0.3533824, -0.0129244, 3.00375, -0.1089478, 3.00375, -0.9974365, 3.00375, -0.0348511, 3.00375, 1.4656489, 3.00375, 0.6717557, 3.00375, -3.2977099
0.3541765, -0.0139315, 3.0105, -0.1099854, 3.0105, -1.0011597, 3.0105, -0.0341797, 3.0105, 1.4122137, 3.0105, 0.6564885, 3.0105, -3.2748091
0.3549706, -0.0112459, 3.01725, -0.1043091, 3.01725, -1.0005493, 3.01725, -0.034729, 3.01725, 1.3664122, 3.01725, 0.6870229, 3.01725, -3.4122138
0.3557647, -0.0102388, 3.024, -0.105957, 3.024, -0.9990234, 3.024, -0.0316772, 3.024, 1.5114504, 3.024, 0.740458, 3.024, -3.1145039
0.3565588, -0.0112459, 3.03075, -0.1088867, 3.03075, -0.9997559, 3.03075, -0.0283813, 3.03075, 1.4580153, 3.03075, 0.7633588, 3.03075, -3.3129771
0.3573529, -0.0139315, 3.0375, -0.1068726, 3.0375, -0.9981079, 3.0375, -0.0291748, 3.0375, 1.4351145, 3.0375, 0.6641222, 3.0375, -3.3435113
0.3581471, -0.0119173, 3.04425, -0.1060181, 3.04425, -0.9971313, 3.04425, -0.0302124, 3.04425, 1.351145, 3.04425, 0.3740458, 3.04425, -3.3282442
0.3589412, -0.0162814, 3.051, -0.1047363, 3.051, -0.99823, 3.051, -0.0285034, 3.051, 1.4351145, 3.051, 0.3969466, 3.051, -3.4503818
0.3597353, -0.0176242, 3.05775, -0.1066895, 3.05775, -1.0003052, 3.05775, -0.0282593, 3.05775, 1.2442749, 3.05775, 0.4198473, 3.05775, -3.5648854
0.3605294, -0.0171206, 3.0645, -0.1061401, 3.0645, -0.9998169, 3.0645, -0.0310669, 3.0645, 1.4045801, 3.0645, 0.4885496, 3.0645, -3.1984732
0.3613235, -0.0164492, 3.07125, -0.1034546, 3.07125, -0.9986572, 3.07125, -0.0321655, 3.07125, 1.3969465, 3.07125, 0.5572519, 3.07125, -3.3969467
0.3621176, -0.0176242, 3.078, -0.1021729, 3.078, -1.0010376, 3.078, -0.0305176, 3.078, 1.4122137, 3.078, 0.778626, 3.078, -3.3969467
0.3629118, -0.0182956, 3.08475, -0.104187, 3.08475, -0.9983521, 3.08475, -0.0291748, 3.08475, 1.2137405, 3.08475, 0.9541985, 3.08475, -3.259542
0.3637059, -0.0198062, 3.0915, -0.1038208, 3.0915, -1.0031128, 3.0915, -0.0317993, 3.0915, 1.3740458, 3.0915, 1.1068702, 3.0915, -3.5419848
0.3645, -0.0203098, 3.09825, -0.1012573, 3.09825, -1, 3.09825, -0.0303345, 3.09825, 1.1374046, 3.09825, 1.3358779, 3.09825, -3.2977099
0.3652941, -0.0172885, 3.105, -0.1049194, 3.105, -1.000061, 3.105, -0.0280151, 3.105, 1.3587786, 3.105, 1.389313, 3.105, -3.3587787
0.3660882, -0.0176242, 3.11175, -0.1071777, 3.11175, -1.0015259, 3.11175, -0.0296631, 3.11175, 1.3435115, 3.11175, 1.2824427, 3.11175, -3.2977099
0.3668824, -0.0191348, 3.1185, -0.1079102, 3.1185, -0.9973145, 3.1185, -0.0300293, 3.1185, 1.4045801, 3.1185, 1.4885496, 3.1185, -3.1832061
0.3676765, -0.0182956, 3.12525, -0.1026001, 3.12525, -1.0013428, 3.12525, -0.0310059, 3.12525, 1.129771, 3.12525, 1.2290076, 3.12525, -3.3282442
0.3684706, -0.0151064, 3.132, -0.1043701, 3.132, -1.0008545, 3.132, -0.0281372, 3.132, 1.1908396, 3.132, 1.0458015, 3.132, -3.3206108
0.3692647, -0.0109102, 3.13875, -0.1033325, 3.13875, -0.9979248, 3.13875, -0.0294189, 3.13875, 1.2290076, 3.13875, 1.0992366, 3.13875, -3.259542
0.3700588, -0.0095674, 3.1455, -0.1030273, 3.1455, -0.9996338, 3.1455, -0.0321655, 3.1455, 1.1526718, 3.1455, 1, 3.1455, -3.1374047
0.3708529, -0.0082246, 3.15225, -0.104187, 3.15225, -0.9998779, 3.15225, -0.0288696, 3.15225, 1.1603054, 3.15225, 0.9236641, 3.15225, -3.3206108
0.3716471, -0.0082246, 3.159, -0.1054077, 3.159, -1.0010376, 3.159, -0.0300293, 3.159, 1.129771, 3.159, 0.8854962, 3.159, -3.1526718
0.3724412, -0.0085603, 3.16575, -0.1035767, 3.16575, -0.9990845, 3.16575, -0.0302734, 3.16575, 1.2137405, 3.16575, 1.0458015, 3.16575, -3.1755726
0.3732353, -0.0102388, 3.1725, -0.1065063, 3.1725, -0.9961548, 3.1725, -0.0288696, 3.1725, 1.1755725, 3.1725, 0.9312977, 3.1725, -3.0992367
0.3740294, -0.0112459, 3.17925, -0.104126, 3.17925, -1.0003662, 3.17925, -0.02948, 3.17925, 1.1526718, 3.17925, 1.0839695, 3.17925, -3.1755726
0.3748235, -0.0109102, 3.186, -0.1016846, 3.186, -0.9979858, 3.186, -0.0292969, 3.186, 1.038168, 3.186, 1.2290076, 3.186, -3.1603053
0.3756176, -0.0078889, 3.19275, -0.1033325, 3.19275, -0.9996948, 3.19275, -0.0283203, 3.19275, 0.8625954, 3.19275, 1.3129771, 3.19275, -3.0610688
0.3764118, -0.0132601, 3.1995, -0.1074219, 3.1995, -1.0008545, 3.1995, -0.0269165, 3.1995, 0.9770992, 3.1995, 1.1832061, 3.1995, -3.0839694
0.3772059, -0.0171206, 3.20625, -0.1088257, 3.20625, -1.0026855, 3.20625, -0.0302734, 3.20625, 1.0763359, 3.20625, 1.2900764, 3.20625, -3.0763359
0.378, -0.017792, 3.213, -0.1078491, 3.213, -0.9978027, 3.213, -0.0321655, 3.213, 0.9389313, 3.213, 1.1908396, 3.213, -3
0.3787941, -0.0182956, 3.21975, -0.1086426, 3.21975, -1.0007324, 3.21975, -0.0310059, 3.21975, 0.870229, 3.21975, 0.9694657, 3.21975, -3.3587787
0.3795882, -0.0198062, 3.2265, -0.1091309, 3.2265, -1.0003052, 3.2265, -0.0344238, 3.2265, 0.9541985, 3.2265, 0.8396947, 3.2265, -3.3587787
0.3803824, -0.0198062, 3.23325, -0.1099854, 3.23325, -0.9996948, 3.23325, -0.0337524, 3.23325, 1.091603, 3.23325, 0.961832, 3.23325, -3.2519083
0.3811765, -0.0199741, 3.24, -0.1079102, 3.24, -1.0010376, 3.24, -0.0353394, 3.24, 1.091603, 3.24, 0.8473282, 3.24, -3.1526718
0.3819706, -0.0193027, 3.24675, -0.1077271, 3.24675, -1.0015869, 3.24675, -0.0327148, 3.24675, 1.0763359, 3.24675, 0.9312977, 3.24675, -3.3129771
0.3827647, -0.018967, 3.2535, -0.1055908, 3.2535, -1.0021973, 3.2535, -0.0342407, 3.2535, 1.0458015, 3.2535, 1.038168, 3.2535, -3.1832061
0.3835588, -0.0184634, 3.26025, -0.1043091, 3.26025, -1.0013428, 3.26025, -0.0332031, 3.26025, 1.1603054, 3.26025, 1.0534351, 3.26025, -3.2748091
0.3843529, -0.0203098, 3.267, -0.1044922, 3.267, -0.9979858, 3.267, -0.0333252, 3.267, 1.129771, 3.267, 1.0839695, 3.267, -3.3740458
0.3851471, -0.017792, 3.27375, -0.1057129, 3.27375, -0.9985352, 3.27375, -0.0360718, 3.27375, 1.2061069, 3.27375, 0.9847328, 3.27375, -3.129771
0.3859412, -0.0130922, 3.2805, -0.1055908, 3.2805, -1.0010376, 3.2805, -0.0336914, 3.2805, 1.1145039, 3.2805, 0.9312977, 3.2805, -3.1832061
0.3867353, -0.0099031, 3.28725, -0.1038818, 3.28725, -1.0005493, 3.28725, -0.0300903, 3.28725, 1.3664122, 3.28725, 0.8549618, 3.28725, -3.1526718
0.3875294, -0.0078889, 3.294, -0.1045532, 3.294, -1.0004883, 3.294, -0.031189, 3.294, 1.2366412, 3.294, 0.7938932, 3.294, -3.091603
0.3883235, -0.0072175, 3.30075, -0.1048584, 3.30075, -1.0008545, 3.30075, -0.0307007, 3.30075, 1.221374, 3.30075, 0.5572519, 3.30075, -3.3206108
0.3891176, -0.0065461, 3.3075, -0.1022339, 3.3075, -0.9970093, 3.3075, -0.0291748, 3.3075, 1.0763359, 3.3075, 0.7022901, 3.3075, -3.2748091
0.3899118, -0.0045319, 3.31425, -0.1010132, 3.31425, -0.9993286, 3.31425, -0.0296631, 3.31425, 1.1832061, 3.31425, 0.6030535, 3.31425, -3.3587787
0.3907059, -0.0068818, 3.321, -0.1037598, 3.321, -1.0009155, 3.321, -0.0319824, 3.321, 1.1755725, 3.321, 0.6870229, 3.321, -3.2137403
0.3915, -0.0095674, 3.32775, -0.1039429, 3.32775, -0.999939, 3.32775, -0.0305176, 3.32775, 1.2748091, 3.32775, 0.8854962, 3.32775, -3.1908398
0.3922941, -0.0097353, 3.3345, -0.1061401, 3.3345, -1.0013428, 3.3345, -0.0296631, 3.3345, 1.0534351, 3.3345, 0.9923664, 3.3345, -3.0763359
0.3930882, -0.0095674, 3.34125, -0.1043091, 3.34125, -0.9998779, 3.34125, -0.0290527, 3.34125, 1.1145039, 3.34125, 1.129771, 3.34125, -3.1374047
0.3938824, -0.0109102, 3.348, -0.1074219, 3.348, -0.9990234, 3.348, -0.0332642, 3.348, 1.1374046, 3.348, 1.2519084, 3.348, -3.038168
0.3946765, -0.0142672, 3.35475, -0.1069336, 3.35475, -1.0008545, 3.35475, -0.0303955, 3.35475, 1.1450381, 3.35475, 0.9770992, 3.35475, -3.038168
0.3954706, -0.01561, 3.3615, -0.1030884, 3.3615, -1.0009155, 3.3615, -0.0326538, 3.3615, 1.1374046, 3.3615, 1.0763359, 3.3615, -3.1832061
0.3962647, -0.0186313, 3.36825, -0.1013794, 3.36825, -0.999939, 3.36825, -0.0280762, 3.36825, 1.0992366, 3.36825, 1.1374046, 3.36825, -3.1068702
0.3970588, -0.0176242, 3.375, -0.0998535, 3.375, -0.996521, 3.375, -0.0267334, 3.375, 1.1603054, 3.375, 1.3129771, 3.375, -2.9923663
0.3978529, -0.0176242, 3.38175, -0.0975342, 3.38175, -1, 3.38175, -0.0269775, 3.38175, 1.1068702, 3.38175, 1.1221374, 3.38175, -3.1679389
0.3986471, -0.018967, 3.3885, -0.1012573, 3.3885, -1.0010376, 3.3885, -0.0269165, 3.3885, 1.091603, 3.3885, 1.3129771, 3.3885, -2.961832
0.3994412, -0.0176242, 3.39525, -0.1000977, 3.39525, -0.9998779, 3.39525, -0.0253296, 3.39525, 0.8167939, 3.39525, 1.1526718, 3.39525, -2.908397
0.4002353, -0.0129244, 3.402, -0.0979004, 3.402, -0.9997559, 3.402, -0.024353, 3.402, 0.8244275, 3.402, 1.1450381, 3.402, -2.7480917
0.4010294, -0.0132601, 3.40875, -0.0983887, 3.40875, -1.0010986, 3.40875, -0.0264282, 3.40875, 0.7633588, 3.40875, 0.9847328, 3.40875, -2.9389312
0.4018235, -0.0162814, 3.4155, -0.097168, 3.4155, -1.0009766, 3.4155, -0.0285034, 3.4155, 0.5954198, 3.4155, 0.7938932, 3.4155, -2.9312978
0.4026176, -0.0152743, 3.42225, -0.1019287, 3.42225, -0.99823, 3.42225, -0.0292969, 3.42225, 0.648855, 3.42225, 0.4885496, 3.42225, -2.8931298
0.4034118, -0.0129244, 3.429, -0.1036987, 3.429, -0.9990234, 3.429, -0.0324097, 3.429, 0.4580153, 3.429, 0.5267175, 3.429, -2.6946564
0.4042059, -0.0119173, 3.43575, -0.1019287, 3.43575, -0.9966431, 3.43575, -0.0317383, 3.43575, 0.3816794, 3.43575, 0.4885496, 3.43575, -2.6641221
0.405, -0.0119173, 3.4425, -0.1048584, 3.4425, -0.9970093, 3.4425, -0.0262451, 3.4425, 0.2519084, 3.4425, 0.1603053, 3.4425, -2.6412213
0.4057941, -0.0149386, 3.44925, -0.1049194, 3.44925, -0.9979858, 3.44925, -0.0270386, 3.44925, 0.0305344, 3.44925, -0.0610687, 3.44925, -2.5648854
0.4065882, -0.0135958, 3.456, -0.1043701, 3.456, -0.9994507, 3.456, -0.0275879, 3.456, 0.1755725, 3.456, -0.1755725, 3.456, -2.5648854
0.4073824, -0.0135958, 3.46275, -0.1062012, 3.46275, -1.0044556, 3.46275, -0.0286255, 3.46275, 0.1450382, 3.46275, -0.0916031, 3.46275, -2.5648854
0.4081765, -0.0182956, 3.4695, -0.1040649, 3.4695, -1.0045166, 3.4695, -0.0309448, 3.4695, 0.0076336, 3.4695, -0.2442748, 3.4695, -2.4732823
0.4089706, -0.0146029, 3.47625, -0.105835, 3.47625, -1.0056152, 3.47625, -0.0310669, 3.47625, 0, 3.47625, -0.4045801, 3.47625, -2.5114503
0.4097647, -0.0135958, 3.483, -0.1031494, 3.483, -0.9993896, 3.483, -0.0283813, 3.483, 0, 3.483, -0.1603053, 3.483, -2.389313
0.4105588, -0.0166171, 3.48975, -0.100708, 3.48975, -1.0019531, 3.48975, -0.0300293, 3.48975, -0.1908397, 3.48975, -0.351145, 3.48975, -2.2366412
0.4113529, -0.0206455, 3.4965, -0.0996094, 3.4965, -1.0027466, 3.4965, -0.0282593, 3.4965, -0.3435115, 3.4965, -0.2137405, 3.4965, -2.3053436
0.4121471, -0.0218204, 3.50325, -0.0997314, 3.50325, -1.0012207, 3.50325, -0.0288086, 3.50325, -0.3282443, 3.50325, -0.0305344, 3.50325, -2.2519083
0.4129412, -0.0229953, 3.51, -0.1001587, 3.51, -0.9998779, 3.51, -0.0265503, 3.51, -0.3816794, 3.51, -0.0305344, 3.51, -2.0534351
0.4137353, -0.0250095, 3.51675, -0.1031494, 3.51675, -1.0006714, 3.51675, -0.0255737, 3.51675, -0.4885496, 3.51675, 0.0610687, 3.51675, -2.0839694
0.4145294, -0.0265202, 3.5235, -0.1046753, 3.5235, -0.9971924, 3.5235, -0.0272217, 3.5235, -0.7022901, 3.5235, 0.129771, 3.5235, -2.0610688
0.4153235, -0.0216526, 3.53025, -0.1052246, 3.53025, -0.99823, 3.53025, -0.0316772, 3.53025, -0.8167939, 3.53025, -0.0992366, 3.53025, -1.9541985
0.4161176, -0.0216526, 3.537, -0.1052856, 3.537, -1.0014648, 3.537, -0.0288086, 3.537, -0.8473282, 3.537, -0.1832061, 3.537, -1.9389313
0.4169118, -0.0196384, 3.54375, -0.1022949, 3.54375, -0.998291, 3.54375, -0.0339355, 3.54375, -0.6870229, 3.54375, -0.0687023, 3.54375, -1.8778626
0.4177059, -0.0186313, 3.5505, -0.1063843, 3.5505, -0.9962158, 3.5505, -0.034729, 3.5505, -0.9007633, 3.5505, 0.0305344, 3.5505, -1.908397
0.4185, -0.0139315, 3.55725, -0.1088257, 3.55725, -0.9996948, 3.55725, -0.0379028, 3.55725, -0.9694657, 3.55725, -0.0076336, 3.55725, -1.9770992
0.4192941, -0.0119173, 3.564, -0.1118164, 3.564, -1.0078125, 3.564, -0.032959, 3.564, -0.6793893, 3.564, 0.1832061, 3.564, -2.0305343
0.4200882, -0.0095674, 3.57075, -0.1115112, 3.57075, -1.0012817, 3.57075, -0.0408325, 3.57075, -0.4427481, 3.57075, 0.1755725, 3.57075, -2.129771
0.4208824, -0.0099031, 3.5775, -0.1115112, 3.5775, -1.0002441, 3.5775, -0.0445557, 3.5775, -0.740458, 3.5775, 0.0763359, 3.5775, -1.8015267
0.4216765, -0.0099031, 3.58425, -0.1156616, 3.58425, -0.9987793, 3.58425, -0.0452271, 3.58425, -0.5725191, 3.58425, 0.1450382, 3.58425, -2.038168
0.4224706, -0.0085603, 3.591, -0.1116333, 3.591, -1.0037842, 3.591, -0.0424194, 3.591, -0.5343512, 3.591, 0.0305344, 3.591, -2.1145039
0.4232647, -0.0082246, 3.59775, -0.1138306, 3.59775, -1.0010986, 3.59775, -0.0408325, 3.59775, -0.4198473, 3.59775, 0.1526718, 3.59775, -2.1068702
0.4240588, -0.0102388, 3.6045, -0.1095581, 3.6045, -0.9963989, 3.6045, -0.0427856, 3.6045, -0.2366412, 3.6045, 0.1908397, 3.6045, -2.0458016
0.4248529, -0.0125887, 3.61125, -0.1134033, 3.61125, -0.9980469, 3.61125, -0.0401611, 3.61125, -0.1679389, 3.61125, 0.0763359, 3.61125, -2.1603053
0.4256471, -0.008896, 3.618, -0.1118164, 3.618, -0.9985962, 3.618, -0.045166, 3.618, -0.2366412, 3.618, 0.1374046, 3.618, -2.2442749
0.4264412, -0.0092317, 3.62475, -0.1079712, 3.62475, -0.9932861, 3.62475, -0.0437012, 3.62475, 0.0458015, 3.62475, 0.1679389, 3.62475, -2.3587787
0.4272353, -0.0102388, 3.6315, -0.1107178, 3.6315, -0.9944458, 3.6315, -0.0402222, 3.6315, 0.1832061, 3.6315, 0.0152672, 3.6315, -2.2061069
0.4280294, -0.0149386, 3.63825, -0.111084, 3.63825, -0.994873, 3.63825, -0.0385742, 3.63825, 0.0534351, 3.63825, 0.1374046, 3.63825, -2.4045801
0.4288235, -0.0152743, 3.645, -0.1084595, 3.645, -0.9963989, 3.645, -0.039978, 3.645, -0.0916031, 3.645, -0.0763359, 3.645, -2.2977099
0.4296176, -0.0176242, 3.65175, -0.1083984, 3.65175, -1.0001831, 3.65175, -0.0388184, 3.65175, 0.1221374, 3.65175, 0.2519084, 3.65175, -2.2977099
0.4304118, -0.018967, 3.6585, -0.1109009, 3.6585, -0.9995728, 3.6585, -0.0372314, 3.6585, 0.2824427, 3.6585, 0.3206107, 3.6585, -2.1832061
0.4312059, -0.017792, 3.66525, -0.1135254, 3.66525, -0.9993286, 3.66525, -0.0388794, 3.66525, 0.1984733, 3.66525, 0.5954198, 3.66525, -2.3358779
0.432, -0.0152743, 3.672, -0.1137695, 3.672, -0.9994507, 3.672, -0.041748, 3.672, 0.3358779, 3.672, 0.4656489, 3.672, -2.3358779
0.4327941, -0.0179599, 3.67875, -0.1114502, 3.67875, -0.9992676, 3.67875, -0.0431519, 3.67875, 0.1908397, 3.67875, 0.3206107, 3.67875, -2.4351146
0.4335882, -0.0157778, 3.6855, -0.1092529, 3.6855, -1.0018311, 3.6855, -0.0402222, 3.6855, 0.4122137, 3.6855, 0.1755725, 3.6855, -2.3129771
0.4343824, -0.0135958, 3.69225, -0.109314, 3.69225, -0.99823, 3.69225, -0.0403442, 3.69225, 0.3587786, 3.69225, 0.2977099, 3.69225, -2.2748091
0.4351765, -0.0132601, 3.699, -0.104126, 3.699, -0.9926758, 3.699, -0.0408936, 3.699, 0.4580153, 3.699, 0.2748092, 3.699, -2.3435113
0.4359706, -0.0109102, 3.70575, -0.1061401, 3.70575, -0.9936523, 3.70575, -0.0427246, 3.70575, 0.4045801, 3.70575, 0.3816794, 3.70575, -2.5114503
0.4367647, -0.0085603, 3.7125, -0.1071777, 3.7125, -0.9952393, 3.7125, -0.0404053, 3.7125, 0.3969466, 3.7125, 0.5954198, 3.7125, -2.3129771
0.4375588, -0.0102388, 3.71925, -0.1067505, 3.71925, -0.9980469, 3.71925, -0.0424805, 3.71925, 0.3587786, 3.71925, 0.5114504, 3.71925, -2.389313
0.4383529, -0.0099031, 3.726, -0.111084, 3.726, -1.0028687, 3.726, -0.0397339, 3.726, 0.5267175, 3.726, 0.6259542, 3.726, -2.4427481
0.4391471, -0.008896, 3.73275, -0.1129761, 3.73275, -0.9976807, 3.73275, -0.0404053, 3.73275, 0.5267175, 3.73275, 0.4732825, 3.73275, -2.2671757
0.4399412, -0.0092317, 3.7395, -0.1135864, 3.7395, -0.9991455, 3.7395, -0.0414429, 3.7395, 0.3053435, 3.7395, 0.2442748, 3.7395, -2.4122138
0.4407353, -0.0114137, 3.74625, -0.1110229, 3.74625, -1.0025024, 3.74625, -0.0402222, 3.74625, 0.4580153, 3.74625, 0.1145038, 3.74625, -2.4656489
0.4415294, -0.0146029, 3.753, -0.107605, 3.753, -1.0023193, 3.753, -0.0348511, 3.753, 0.5343512, 3.753, 0.0916031, 3.753, -2.4503818
0.4423235, -0.0125887, 3.75975, -0.1078491, 3.75975, -0.9977417, 3.75975, -0.036499, 3.75975, 0.6259542, 3.75975, 0.3206107, 3.75975, -2.3435113
0.4431176, -0.0137636, 3.7665, -0.1033936, 3.7665, -1, 3.7665, -0.0386963, 3.7665, 0.5038168, 3.7665, 0.4351145, 3.7665, -2.2748091
0.4439118, -0.0152743, 3.77325, -0.1060791, 3.77325, -1.0012207, 3.77325, -0.036499, 3.77325, 0.3282443, 3.77325, 0.5419847, 3.77325, -2.3358779
0.4447059, -0.0181277, 3.78, -0.1085815, 3.78, -1.0003662, 3.78, -0.0376587, 3.78, 0.2748092, 3.78, 0.7709923, 3.78, -2.1526718
0.4455, -0.0203098, 3.78675, -0.109436, 3.78675, -0.9976807, 3.78675, -0.0380249, 3.78675, 0.4045801, 3.78675, 0.7938932, 3.78675, -2.3435113
0.4462941, -0.0193027, 3.7935, -0.1139526, 3.7935, -0.99646, 3.7935, -0.0419922, 3.7935, 0.3664122, 3.7935, 1.0992366, 3.7935, -2.1450381
0.4470882, -0.0184634, 3.80025, -0.1120605, 3.80025, -0.9989014, 3.80025, -0.0410767, 3.80025, -0.0534351, 3.80025, 0.6946565, 3.80025, -2.2137403
0.4478824, -0.0176242, 3.807, -0.1118774, 3.807, -1.0049438, 3.807, -0.0345459, 3.807, 0.1984733, 3.807, 0.4198473, 3.807, -2.1984732
0.4486765, -0.021149, 3.81375, -0.112793, 3.81375, -1.0002441, 3.81375, -0.0355835, 3.81375, 0.3358779, 3.81375, 0.480916, 3.81375, -2.4198472
0.4494706, -0.0196384, 3.8205, -0.1125488, 3.8205, -0.9955444, 3.8205, -0.0403442, 3.8205, 0.0916031, 3.8205, 0.3587786, 3.8205, -2.3129771
0.4502647, -0.0166171, 3.82725, -0.1148682, 3.82725, -0.9973755, 3.82725, -0.0411377, 3.82725, 0, 3.82725, 0.4656489, 3.82725, -2.519084
0.4510588, -0.0159457, 3.834, -0.112915, 3.834, -0.9979858, 3.834, -0.0395508, 3.834, -0.0152672, 3.834, 0.3129771, 3.834, -2.2366412
0.4518529, -0.0162814, 3.84075, -0.1139526, 3.84075, -0.9958496, 3.84075, -0.0423584, 3.84075, -0.0992366, 3.84075, 0.1526718, 3.84075, -2.3358779
0.4526471, -0.0146029, 3.8475, -0.112915, 3.8475, -1.0011597, 3.8475, -0.0386353, 3.8475, 0.0152672, 3.8475, 0.0992366, 3.8475, -2.389313
0.4534412, -0.0124208, 3.85425, -0.1124878, 3.85425, -1.0019531, 3.85425, -0.043396, 3.85425, 0.1526718, 3.85425, 0, 3.85425, -2.3664122
0.4542353, -0.0115816, 3.861, -0.1126099, 3.861, -0.999939, 3.861, -0.045166, 3.861, 0.1755725, 3.861, -0.0763359, 3.861, -2.3129771
0.4550294, -0.012253, 3.86775, -0.1157837, 3.86775, -0.9972534, 3.86775, -0.0440063, 3.86775, 0.1526718, 3.86775, 0.2137405, 3.86775, -2.4580152
0.4558235, -0.0109102, 3.8745, -0.1168823, 3.8745, -0.9972534, 3.8745, -0.0454712, 3.8745, 0.0076336, 3.8745, 0.0381679, 3.8745, -2.4961832
0.4566176, -0.0085603, 3.88125, -0.1196289, 3.88125, -1.0014038, 3.88125, -0.0462036, 3.88125, 0.1068702, 3.88125, -0.3206107, 3.88125, -2.519084
0.4574118, -0.010071, 3.888, -0.1203003, 3.888, -1.00354, 3.888, -0.0414429, 3.888, 0.1145038, 3.888, -0.7022901, 3.888, -2.6030533
0.4582059, -0.0132601, 3.89475, -0.1190186, 3.89475, -0.999939, 3.89475, -0.0424194, 3.89475, 0.4503817, 3.89475, -0.778626, 3.89475, -2.6030533
0.459, -0.0129244, 3.9015, -0.1194458, 3.9015, -0.9956665, 3.9015, -0.0441895, 3.9015, 0.2977099, 3.9015, -1.038168, 3.9015, -2.778626
0.4597941, -0.0125887, 3.90825, -0.1182251, 3.90825, -0.9967651, 3.90825, -0.0414429, 3.90825, 0.0076336, 3.90825, -0.961832, 3.90825, -2.7862597
0.4605882, -0.0149386, 3.915, -0.1185913, 3.915, -0.9942627, 3.915, -0.0400391, 3.915, 0.1145038, 3.915, -1.0839695, 3.915, -2.870229
0.4613824, -0.0184634, 3.92175, -0.116333, 3.92175, -0.9974365, 3.92175, -0.043335, 3.92175, -0.0687023, 3.92175, -0.9465649, 3.92175, -3
0.4621765, -0.0203098, 3.9285, -0.1179199, 3.9285, -1.0011597, 3.9285, -0.041626, 3.9285, 0.0381679, 3.9285, -0.9007633, 3.9285, -2.8396947
0.4629706, -0.0172885, 3.93525, -0.1113892, 3.93525, -0.9993896, 3.93525, -0.0386963, 3.93525, 0.2366412, 3.93525, -1.0458015, 3.93525, -2.8473282
0.4637647, -0.0172885, 3.942, -0.1129761, 3.942, -0.9962769, 3.942, -0.0422974, 3.942, 0.1755725, 3.942, -0.8320611, 3.942, -3.1145039
0.4645588, -0.0146029, 3.94875, -0.114502, 3.94875, -0.9943237, 3.94875, -0.0464478, 3.94875, -0.0076336, 3.94875, -0.9541985, 3.94875, -3
0.4653529, -0.0127565, 3.9555, -0.1149292, 3.9555, -0.9943848, 3.9555, -0.0460815, 3.9555, -0.1908397, 3.9555, -0.7099237, 3.9555, -3.1526718
0.4661471, -0.01561, 3.96225, -0.1187744, 3.96225, -1.0021362, 3.96225, -0.043335, 3.96225, -0.1068702, 3.96225, -1.2137405, 3.96225, -3.0839694
0.4669412, -0.0184634, 3.969, -0.1203003, 3.969, -1.0012817, 3.969, -0.0432129, 3.969, 0.0458015, 3.969, -1.3435115, 3.969, -3.2519083
0.4677353, -0.0152743, 3.97575, -0.1203003, 3.97575, -0.9945068, 3.97575, -0.0487671, 3.97575, 0.0763359, 3.97575, -1.7633588, 3.97575, -3.3129771
0.4685294, -0.0130922, 3.9825, -0.1173706, 3.9825, -0.9971313, 3.9825, -0.046936, 3.9825, -0.1526718, 3.9825, -1.9847329, 3.9825, -3.2977099
0.4693235, -0.0115816, 3.98925, -0.1137085, 3.98925, -0.9979858, 3.98925, -0.045105, 3.98925, -0.1679389, 3.98925, -1.7099236, 3.98925, -3.4274809
0.4701176, -0.0139315, 3.996, -0.1146851, 3.996, -0.99823, 3.996, -0.0461426, 3.996, -0.0381679, 3.996, -1.6870229, 3.996, -3.5419848
0.4709118, -0.0114137, 4.00275, -0.1156006, 4.00275, -0.99823, 4.00275, -0.041748, 4.00275, 0.0381679, 4.00275, -1.7557251, 4.00275, -3.4580152
0.4717059, -0.0102388, 4.0095, -0.1160278, 4.0095, -0.9954224, 4.0095, -0.0396118, 4.0095, 0.0381679, 4.0095, -1.7022901, 4.0095, -3.519084
0.4725, -0.008896, 4.01625, -0.1157227, 4.01625, -0.9960938, 4.01625, -0.0432129, 4.01625, -0.2061069, 4.01625, -1.7328244, 4.01625, -3.6335878
0.4732941, -0.008896, 4.023, -0.1121216, 4.023, -1.0009766, 4.023, -0.0432129, 4.023, -0.3969466, 4.023, -1.6259542, 4.023, -3.6030533
0.4740882, -0.0095674, 4.02975, -0.1118774, 4.02975, -0.9995117, 4.02975, -0.0361328, 4.02975, -0.0839695, 4.02975, -0.8320611, 4.02975, -3.5877862
0.4748824, -0.0105745, 4.0365, -0.1122437, 4.0365, -0.9979858, 4.0365, -0.0380249, 4.0365, -0.3358779, 4.0365, -0.5801527, 4.0365, -3.6030533
0.4756765, -0.0135958, 4.04325, -0.1134644, 4.04325, -1.0009155, 4.04325, -0.0396118, 4.04325, -0.2824427, 4.04325, -0.5725191, 4.04325, -3.5725191
0.4764706, -0.0162814, 4.05, -0.1120605, 4.05, -1.0024414, 4.05, -0.0378418, 4.05, -0.4351145, 4.05, -0.259542, 4.05, -3.5572519
0.4772647, -0.0162814, 4.05675, -0.109375, 4.05675, -1.0001221, 4.05675, -0.0374146, 4.05675, -0.4122137, 4.05675, 0.1374046, 4.05675, -3.4580152
0.4780588, -0.0181277, 4.0635, -0.1079712, 4.0635, -1.0006104, 4.0635, -0.039978, 4.0635, -0.5954198, 4.0635, 0.610687, 4.0635, -3.5648854
0.4788529, -0.0199741, 4.07025, -0.1104126, 4.07025, -1.0029907, 4.07025, -0.036377, 4.07025, -0.6641222, 4.07025, 0.8015267, 4.07025, -3.6717558
0.4796471, -0.0198062, 4.077, -0.1088867, 4.077, -0.9995728, 4.077, -0.0383911, 4.077, -0.6259542, 4.077, 1.1374046, 4.077, -3.4732823
0.4804412, -0.0208133, 4.08375, -0.1089478, 4.08375, -0.9959106, 4.08375, -0.0419312, 4.08375, -0.6030535, 4.08375, 1.4198474, 4.08375, -3.519084
0.4812353, -0.0196384, 4.0905, -0.1101685, 4.0905, -0.9963379, 4.0905, -0.038269, 4.0905, -0.9236641, 4.0905, 1.4503816, 4.0905, -3.4885497
0.4820294, -0.0196384, 4.09725, -0.107605, 4.09725, -0.9989014, 4.09725, -0.039856, 4.09725, -0.8015267, 4.09725, 1.6641221, 4.09725, -3.5801528
0.4828235, -0.018967, 4.104, -0.107605, 4.104, -0.9963989, 4.104, -0.045166, 4.104, -0.9389313, 4.104, 1.7251909, 4.104, -3.6946564
0.4836176, -0.0203098, 4.11075, -0.1099243, 4.11075, -0.9983521, 4.11075, -0.0415039, 4.11075, -1.0763359, 4.11075, 1.8854961, 4.11075, -3.5877862
0.4844118, -0.0166171, 4.1175, -0.1090088, 4.1175, -0.9963989, 4.1175, -0.0449829, 4.1175, -1, 4.1175, 2.1450381, 4.1175, -3.7862597
0.4852059, -0.012253, 4.12425, -0.1085205, 4.12425, -0.9994507, 4.12425, -0.0490723, 4.12425, -1.1450381, 4.12425, 2.1984732, 4.12425, -3.6183207
0.486, -0.0119173, 4.131, -0.1130981, 4.131, -0.9995117, 4.131, -0.0453491, 4.131, -0.9160305, 4.131, 2.5725191, 4.131, -3.7862597
0.4867941, -0.0077211, 4.13775, -0.1124878, 4.13775, -0.9968872, 4.13775, -0.0534058, 4.13775, -1.0229008, 4.13775, 2.8854961, 4.13775, -3.6183207
0.4875882, -0.0105745, 4.1445, -0.1102905, 4.1445, -0.9959717, 4.1445, -0.050415, 4.1445, -0.8931298, 4.1445, 3.0534351, 4.1445, -3.8091602
0.4883824, -0.0095674, 4.15125, -0.1118164, 4.15125, -1.0013428, 4.15125, -0.057312, 4.15125, -0.8931298, 4.15125, 3.1374047, 4.15125, -3.4885497
0.4891765, -0.011078, 4.158, -0.1153564, 4.158, -1.0009766, 4.158, -0.0550537, 4.158, -1.038168, 4.158, 3.1984732, 4.158, -3.5267177
0.4899706, -0.0114137, 4.16475, -0.1185303, 4.16475, -0.9993896, 4.16475, -0.0582886, 4.16475, -0.7480916, 4.16475, 3.3969467, 4.16475, -3.6030533
0.4907647, -0.0115816, 4.1715, -0.1148682, 4.1715, -0.9979248, 4.1715, -0.0570068, 4.1715, -0.7709923, 4.1715, 3.1832061, 4.1715, -3.3664122
0.4915588, -0.0130922, 4.17825, -0.1141357, 4.17825, -0.9985962, 4.17825, -0.053894, 4.17825, -0.7251908, 4.17825, 3.259542, 4.17825, -3.6030533
0.4923529, -0.0139315, 4.185, -0.1098022, 4.185, -0.99823, 4.185, -0.0605469, 4.185, -0.8015267, 4.185, 3.3206108, 4.185, -3.5114503
0.4931471, -0.0169528, 4.19175, -0.1102905, 4.19175, -1.0047607, 4.19175, -0.0547485, 4.19175, -0.7557252, 4.19175, 3.2137403, 4.19175, -3.648855
0.4939412, -0.0159457, 4.1985, -0.1112671, 4.1985, -1.0036621, 4.1985, -0.0515747, 4.1985, -0.519084, 4.1985, 3.3969467, 4.1985, -3.6412213
0.4947353, -0.0142672, 4.20525, -0.1135254, 4.20525, -1.0023193, 4.20525, -0.0552368, 4.20525, -0.4961832, 4.20525, 3.1832061, 4.20525, -3.6946564
0.4955294, -0.0162814, 4.212, -0.1158447, 4.212, -1.0020752, 4.212, -0.0531616, 4.212, -0.4961832, 4.212, 3.2061069, 4.212, -3.6870229
0.4963235, -0.0152743, 4.21875, -0.1136475, 4.21875, -0.9990845, 4.21875, -0.0530396, 4.21875, -0.5496183, 4.21875, 3.0839694, 4.21875, -3.778626
0.4971176, -0.0149386, 4.2255, -0.1143188, 4.2255, -0.9984131, 4.2255, -0.0543213, 4.2255, -0.7251908, 4.2255, 2.8167939, 4.2255, -3.7633588
0.4979118, -0.0154421, 4.23225, -0.1131592, 4.23225, -1.0023193, 4.23225, -0.0467529, 4.23225, -0.5267175, 4.23225, 2.6717558, 4.23225, -3.8778627
0.4987059, -0.01561, 4.239, -0.1109619, 4.239, -1.0010986, 4.239, -0.0546875, 4.239, -0.5954198, 4.239, 2.5725191, 4.239, -3.7328243
0.4995, -0.0162814, 4.24575, -0.1116943, 4.24575, -1.0008545, 4.24575, -0.0525513, 4.24575, -0.6183206, 4.24575, 2.5954199, 4.24575, -3.6564887
0.5002941, -0.0184634, 4.2525, -0.1135254, 4.2525, -0.9991455, 4.2525, -0.0492554, 4.2525, -0.7022901, 4.2525, 2.6870229, 4.2525, -3.8167939
0.5010882, -0.0169528, 4.25925, -0.1131592, 4.25925, -1.0006104, 4.25925, -0.0527344, 4.25925, -0.7480916, 4.25925, 2.519084, 4.25925, -3.7480917
0.5018824, -0.0167849, 4.266, -0.114563, 4.266, -0.9989014, 4.266, -0.0523682, 4.266, -0.5725191, 4.266, 2.4351146, 4.266, -3.7099237
0.5026765, -0.0162814, 4.27275, -0.1113281, 4.27275, -0.998291, 4.27275, -0.0488281, 4.27275, -0.7175573, 4.27275, 2.3664122, 4.27275, -3.8778627
0.5034706, -0.0139315, 4.2795, -0.112854, 4.2795, -1.0028687, 4.2795, -0.0556641, 4.2795, -0.7328244, 4.2795, 2.0305343, 4.2795, -3.7099237
0.5042647, -0.0095674, 4.28625, -0.1144409, 4.28625, -1.0010986, 4.28625, -0.0507812, 4.28625, -0.6564885, 4.28625, 1.9847329, 4.28625, -3.7328243
0.5050588, -0.008896, 4.293, -0.111084, 4.293, -0.9992065, 4.293, -0.055481, 4.293, -0.7022901, 4.293, 1.610687, 4.293, -3.908397
0.5058529, -0.0072175, 4.29975, -0.1105957, 4.29975, -1.0027466, 4.29975, -0.0550537, 4.29975, -0.9694657, 4.29975, 1.091603, 4.29975, -3.7480917
0.5066471, -0.005539, 4.3065, -0.1131592, 4.3065, -1.0026245, 4.3065, -0.0570068, 4.3065, -0.740458, 4.3065, 1.091603, 4.3065, -3.7938931
0.5074412, -0.008896, 4.31325, -0.111145, 4.31325, -1.0001221, 4.31325, -0.0623169, 4.31325, -0.8473282, 4.31325, 0.7938932, 4.31325, -3.8931298
0.5082353, -0.0129244, 4.32, -0.1099243, 4.32, -1.0019531, 4.32, -0.055603, 4.32, -0.8473282, 4.32, 0.3816794, 4.32, -3.5114503
0.5090294, -0.0152743, 4.32675, -0.1077271, 4.32675, -1.0065308, 4.32675, -0.0550537, 4.32675, -0.8396947, 4.32675, 0.3206107, 4.32675, -3.740458
0.5098235, -0.0162814, 4.3335, -0.1086426, 4.3335, -1.0023804, 4.3335, -0.0588379, 4.3335, -0.7480916, 4.3335, 0.1374046, 4.3335, -3.648855
0.5106176, -0.0166171, 4.34025, -0.1066895, 4.34025, -1.0089722, 4.34025, -0.0599976, 4.34025, -0.961832, 4.34025, 0.0687023, 4.34025, -3.6335878
0.5114118, -0.018967, 4.347, -0.1079102, 4.347, -1.0038452, 4.347, -0.057373, 4.347, -0.6946565, 4.347, 0.3664122, 4.347, -3.5801528
0.5122059, -0.021149, 4.35375, -0.1077271, 4.35375, -1.0048218, 4.35375, -0.0601196, 4.35375, -0.648855, 4.35375, 0.1374046, 4.35375, -3.4885497
0.513, -0.0182956, 4.3605, -0.1071777, 4.3605, -1.003479, 4.3605, -0.0576172, 4.3605, -0.4274809, 4.3605, 0.4961832, 4.3605, -3.2977099
0.5137941, -0.0179599, 4.36725, -0.1108398, 4.36725, -1.000061, 4.36725, -0.0631714, 4.36725, -0.480916, 4.36725, 0.5801527, 4.36725, -3.2824428
0.5145882, -0.017792, 4.374, -0.1085205, 4.374, -1.0023804, 4.374, -0.0606689, 4.374, -0.8549618, 4.374, 0.2748092, 4.374, -3.351145
0.5153824, -0.0193027, 4.38075, -0.1060791, 4.38075, -1.0023193, 4.38075, -0.0629883, 4.38075, -0.6335878, 4.38075, 0.2061069, 4.38075, -3.3969467
0.5161765, -0.0203098, 4.3875, -0.1034546, 4.3875, -1.0040283, 4.3875, -0.0620728, 4.3875, -0.4961832, 4.3875, 0.0305344, 4.3875, -3.1755726
0.5169706, -0.0139315, 4.39425, -0.1001587, 4.39425, -0.9988403, 4.39425, -0.0595093, 4.39425, -0.3664122, 4.39425, 0.0458015, 4.39425, -3.0458016
0.5177647, -0.0135958, 4.401, -0.1027832, 4.401, -0.9962769, 4.401, -0.0628052, 4.401, -0.5648855, 4.401, 0.2519084, 4.401, -3.0992367
0.5185588, -0.014435, 4.40775, -0.1017456, 4.40775, -0.9967651, 4.40775, -0.060791, 4.40775, -0.5801527, 4.40775, 0.0992366, 4.40775, -2.9007633
0.5193529, -0.0162814, 4.4145, -0.1016846, 4.4145, -0.9970093, 4.4145, -0.057312, 4.4145, -0.5801527, 4.4145, -0.0076336, 4.4145, -2.9770992
0.5201471, -0.0135958, 4.42125, -0.1038208, 4.42125, -1.0012817, 4.42125, -0.0615234, 4.42125, -0.6641222, 4.42125, 0, 4.42125, -2.8854961
0.5209412, -0.0093996, 4.428, -0.1060791, 4.428, -1.0005493, 4.428, -0.0596924, 4.428, -0.6946565, 4.428, -0.1374046, 4.428, -2.8625953
0.5217353, -0.0109102, 4.43475, -0.1069336, 4.43475, -0.9987183, 4.43475, -0.0549927, 4.43475, -0.6717557, 4.43475, -0.3435115, 4.43475, -2.778626
0.5225294, -0.0095674, 4.4415, -0.1116943, 4.4415, -0.9997559, 4.4415, -0.0603638, 4.4415, -0.8091603, 4.4415, -0.3206107, 4.4415, -2.870229
0.5233235, -0.0085603, 4.44825, -0.1167603, 4.44825, -1.0048828, 4.44825, -0.0629272, 4.44825, -0.5267175, 4.44825, -0.6793893, 4.44825, -2.7709923
0.5241176, -0.010071, 4.455, -0.1185913, 4.455, -1.0105591, 4.455, -0.0637207, 4.455, -0.519084, 4.455, -1.0458015, 4.455, -2.8549619
0.5249118, -0.0105745, 4.46175, -0.1177368, 4.46175, -1.0097046, 4.46175, -0.0638428, 4.46175, -0.3969466, 4.46175, -1.4274809, 4.46175, -2.8778627
0.5257059, -0.0142672, 4.4685, -0.114502, 4.4685, -1.0064697, 4.4685, -0.0656738, 4.4685, -0.5648855, 4.4685, -1.5419847, 4.4685, -2.7022901
0.5265, -0.0182956, 4.47525, -0.105835, 4.47525, -1.0026245, 4.47525, -0.0657959, 4.47525, -0.4885496, 4.47525, -1.8854961, 4.47525, -2.7633588
0.5272941, -0.0169528, 4.482, -0.1040649, 4.482, -1.0001831, 4.482, -0.0673218, 4.482, -0.4122137, 4.482, -1.908397, 4.482, -2.7938931
0.5280882, -0.0182956, 4.48875, -0.1043701, 4.48875, -1.0024414, 4.48875, -0.0623779, 4.48875, -0.351145, 4.48875, -1.6183206, 4.48875, -2.5877862
0.5288824, -0.0194705, 4.4955, -0.1046143, 4.4955, -0.9993286, 4.4955, -0.0623779, 4.4955, -0.129771, 4.4955, -1.648855, 4.4955, -2.6030533
0.5296765, -0.0179599, 4.50225, -0.1062012, 4.50225, -1.0021362, 4.50225, -0.0626221, 4.50225, -0.1603053, 4.50225, -1.5343511, 4.50225, -2.5572519
0.5304706, -0.0203098, 4.509, -0.105896, 4.509, -1.0031128, 4.509, -0.0628052, 4.509, -0.1603053, 4.509, -1.4961832, 4.509, -2.610687
0.5312647, -0.0213169, 4.51575, -0.1072998, 4.51575, -1.005188, 4.51575, -0.0629883, 4.51575, -0.1755725, 4.51575, -1.5343511, 4.51575, -2.4503818
0.5320588, -0.0203098, 4.5225, -0.1062012, 4.5225, -0.9995117, 4.5225, -0.0631104, 4.5225, -0.0305344, 4.5225, -1.5496184, 4.5225, -2.221374
0.5328529, -0.023331, 4.52925, -0.1060181, 4.52925, -0.9954224, 4.52925, -0.0636597, 4.52925, -0.2519084, 4.52925, -1.7862595, 4.52925, -2.3129771
0.5336471, -0.0196384, 4.536, -0.0997925, 4.536, -1.0014648, 4.536, -0.0604858, 4.536, -0.1832061, 4.536, -1.9465649, 4.536, -2.221374
0.5344412, -0.0142672, 4.54275, -0.0979004, 4.54275, -1.0025635, 4.54275, -0.0574951, 4.54275, -0.1679389, 4.54275, -1.6030535, 4.54275, -2.0763359
0.5352353, -0.0162814, 4.5495, -0.0949707, 4.5495, -1.0002441, 4.5495, -0.0634766, 4.5495, -0.1374046, 4.5495, -1.4732825, 4.5495, -1.8854961
0.5360294, -0.0176242, 4.55625, -0.0963745, 4.55625, -0.9976807, 4.55625, -0.0598755, 4.55625, -0.1068702, 4.55625, -1.3587786, 4.55625, -1.7251909
0.5368235, -0.0142672, 4.563, -0.0968018, 4.563, -1, 4.563, -0.0559082, 4.563, -0.3206107, 4.563, -1.2671756, 4.563, -1.6946565
0.5376176, -0.0099031, 4.56975, -0.0973511, 4.56975, -0.9991455, 4.56975, -0.0539551, 4.56975, -0.2824427, 4.56975, -0.9847328, 4.56975, -1.4427481
0.5384118, -0.0105745, 4.5765, -0.0895996, 4.5765, -0.9968262, 4.5765, -0.0566406, 4.5765, -0.6793893, 4.5765, -0.6030535, 4.5765, -1.2977099
0.5392059, -0.0099031, 4.58325, -0.0913086, 4.58325, -0.9968262, 4.58325, -0.0534668, 4.58325, -0.6946565, 4.58325, 0.1908397, 4.58325, -1.1221374
0.54, -0.0102388, 4.59, -0.0912476, 4.59, -1.0005493, 4.59, -0.0509033, 4.59, -0.6030535, 4.59, 0.9465649, 4.59, -0.9541985
0.5407941, -0.0102388, 4.59675, -0.09729, 4.59675, -0.9976196, 4.59675, -0.0477295, 4.59675, -0.8320611, 4.59675, 1.0458015, 4.59675, -0.7480916
0.5415882, -0.0085603, 4.6035, -0.1013184, 4.6035, -0.9970703, 4.6035, -0.0512695, 4.6035, -1.259542, 4.6035, 1.259542, 4.6035, -0.6946565
0.5423824, -0.0095674, 4.61025, -0.0970459, 4.61025, -1.0014038, 4.61025, -0.0494995, 4.61025, -1.3664122, 4.61025, 1.5267175, 4.61025, -0.4580153
0.5431765, -0.012253, 4.617, -0.0979004, 4.617, -1.0006104, 4.617, -0.0500488, 4.617, -1.4732825, 4.617, 2.2519083, 4.617, -0.480916
0.5439706, -0.0109102, 4.62375, -0.100708, 4.62375, -1.0020142, 4.62375, -0.0493164, 4.62375, -1.4961832, 4.62375, 2.5801528, 4.62375, -0.3740458
0.5447647, -0.0159457, 4.6305, -0.100769, 4.6305, -1.0020142, 4.6305, -0.0463867, 4.6305, -1.6412214, 4.6305, 2.8320611, 4.6305, -0.221374
0.5455588, -0.0151064, 4.63725, -0.1022949, 4.63725, -1.0011597, 4.63725, -0.0547485, 4.63725, -1.8320611, 4.63725, 3.4961832, 4.63725, -0.221374
0.5463529, -0.0176242, 4.644, -0.1099243, 4.644, -0.9994507, 4.644, -0.0551758, 4.644, -2.0076337, 4.644, 3.5572519, 4.644, 0.0916031
0.5471471, -0.0182956, 4.65075, -0.1085205, 4.65075, -0.998291, 4.65075, -0.059082, 4.65075, -2.1603053, 4.65075, 3.8473282, 4.65075, 0.0763359
0.5479412, -0.0193027, 4.6575, -0.1132812, 4.6575, -0.9978638, 4.6575, -0.0621338, 4.6575, -2.129771, 4.6575, 3.8244274, 4.6575, -0.0305344
0.5487353, -0.018967, 4.66425, -0.1168823, 4.66425, -0.9953003, 4.66425, -0.0615845, 4.66425, -2.221374, 4.66425, 4.1145039, 4.66425, -0.1145038
0.5495294, -0.0184634, 4.671, -0.116272, 4.671, -0.9926147, 4.671, -0.0658569, 4.671, -2.1984732, 4.671, 4.3129773, 4.671, -0.0687023
0.5503235, -0.0179599, 4.67775, -0.119751, 4.67775, -0.9949951, 4.67775, -0.0645142, 4.67775, -2.4274809, 4.67775, 4.2824426, 4.67775, 0.2137405
0.5511176, -0.017792, 4.6845, -0.1168213, 4.6845, -1.0025635, 4.6845, -0.0634155, 4.6845, -2.4351146, 4.6845, 4.3511453, 4.6845, 0.0381679
0.5519118, -0.0146029, 4.69125, -0.1243896, 4.69125, -0.9987793, 4.69125, -0.0738525, 4.69125, -2.3129771, 4.69125, 4.3511453, 4.69125, -0.0458015
0.5527059, -0.0146029, 4.698, -0.1298218, 4.698, -0.9997559, 4.698, -0.0740356, 4.698, -2.2977099, 4.698, 3.9312978, 4.698, -0.2900763
0.5535, -0.0139315, 4.70475, -0.1324463, 4.70475, -1.0011597, 4.70475, -0.0748901, 4.70475, -2.3358779, 4.70475, 3.7099237, 4.70475, -0.3740458
0.5542941, -0.0125887, 4.7115, -0.132019, 4.7115, -1.0013428, 4.7115, -0.0743408, 4.7115, -2.3969467, 4.7115, 3.2977099, 4.7115, -0.4656489
0.5550882, -0.0105745, 4.71825, -0.1329346, 4.71825, -0.9998169, 4.71825, -0.074646, 4.71825, -2.1679389, 4.71825, 3.0305343, 4.71825, -0.3587786
0.5558824, -0.0097353, 4.725, -0.1308594, 4.725, -1.0020142, 4.725, -0.0803223, 4.725, -2.0992367, 4.725, 2.8396947, 4.725, -0.4122137
0.5566765, -0.011078, 4.73175, -0.1300659, 4.73175, -1.0028687, 4.73175, -0.0784912, 4.73175, -1.9160305, 4.73175, 2.5114503, 4.73175, -0.6412213
0.5574706, -0.0082246, 4.7385, -0.1307983, 4.7385, -1.0020142, 4.7385, -0.0805054, 4.7385, -1.870229, 4.7385, 1.9694656, 4.7385, -0.7938932
0.5582647, -0.0058747, 4.74525, -0.1279297, 4.74525, -1, 4.74525, -0.0819092, 4.74525, -1.6946565, 4.74525, 1.8931298, 4.74525, -0.7862595
0.5590588, -0.0090639, 4.752, -0.1276855, 4.752, -1.0004883, 4.752, -0.0806274, 4.752, -1.740458, 4.752, 1.4885496, 4.752, -0.9389313
0.5598529, -0.0129244, 4.75875, -0.1276245, 4.75875, -1.0040894, 4.75875, -0.0811157, 4.75875, -1.7862595, 4.75875, 1.4274809, 4.75875, -0.870229
0.5606471, -0.0114137, 4.7655, -0.1287842, 4.7655, -1.0023193, 4.7655, -0.078125, 4.7655, -1.6335878, 4.7655, 1.2137405, 4.7655, -0.7709923
0.5614412, -0.0124208, 4.77225, -0.133728, 4.77225, -1.0037842, 4.77225, -0.0822754, 4.77225, -1.3587786, 4.77225, 0.8167939, 4.77225, -1.1526718
0.5622353, -0.0157778, 4.779, -0.1332397, 4.779, -1.0037842, 4.779, -0.0834961, 4.779, -1.1145039, 4.779, 0.5267175, 4.779, -1.2824427
0.5630294, -0.0179599, 4.78575, -0.1311035, 4.78575, -1.003418, 4.78575, -0.0886841, 4.78575, -1.2748091, 4.78575, 0.1755725, 4.78575, -1.2748091
0.5638235, -0.0179599, 4.7925, -0.130188, 4.7925, -1.0056152, 4.7925, -0.0898438, 4.7925, -1.1526718, 4.7925, -0.4961832, 4.7925, -1.389313
0.5646176, -0.0203098, 4.79925, -0.128479, 4.79925, -1.0037231, 4.79925, -0.088501, 4.79925, -1, 4.79925, -0.870229, 4.79925, -1.6412214
0.5654118, -0.0229953, 4.806, -0.1268921, 4.806, -0.9983521, 4.806, -0.0864868, 4.806, -1.0305344, 4.806, -1.0076336, 4.806, -1.5648855
0.5662059, -0.023331, 4.81275, -0.1257935, 4.81275, -0.9978638, 4.81275, -0.0842896, 4.81275, -1.0152671, 4.81275, -1.1450381, 4.81275, -1.3587786
0.567, -0.0219883, 4.8195, -0.1229248, 4.8195, -1.0001831, 4.8195, -0.0855713, 4.8195, -0.6335878, 4.8195, -0.870229, 4.8195, -1.5114504
0.5677941, -0.0196384, 4.82625, -0.1240234, 4.82625, -0.9987183, 4.82625, -0.0829468, 4.82625, -0.6030535, 4.82625, -0.8320611, 4.82625, -1.3587786
0.5685882, -0.0176242, 4.833, -0.1247559, 4.833, -0.9949341, 4.833, -0.0809326, 4.833, -0.648855, 4.833, -0.7022901, 4.833, -1.3816794
0.5693824, -0.017792, 4.83975, -0.1161499, 4.83975, -0.9981689, 4.83975, -0.0791016, 4.83975, -0.4503817, 4.83975, -0.778626, 4.83975, -1.4122137
0.5701765, -0.0157778, 4.8465, -0.1174316, 4.8465, -0.998291, 4.8465, -0.0776367, 4.8465, -0.3358779, 4.8465, -0.8167939, 4.8465, -1.3587786
0.5709706, -0.0149386, 4.85325, -0.1166992, 4.85325, -0.996582, 4.85325, -0.0786133, 4.85325, -0.3740458, 4.85325, -0.4351145, 4.85325, -1.351145
0.5717647, -0.0092317, 4.86, -0.1212158, 4.86, -0.9997559, 4.86, -0.0761719, 4.86, -0.4427481, 4.86, -0.4351145, 4.86, -1.1908396
0.5725588, -0.0095674, 4.86675, -0.1275635, 4.86675, -1.0004883, 4.86675, -0.0738525, 4.86675, -0.3587786, 4.86675, -0.3206107, 4.86675, -1.1908396
0.5733529, -0.0112459, 4.8735, -0.1256104, 4.8735, -0.9978638, 4.8735, -0.0765381, 4.8735, -0.4427481, 4.8735, -0.6183206, 4.8735, -1.1832061
0.5741471, -0.0099031, 4.88025, -0.1149292, 4.88025, -1.0014038, 4.88025, -0.0743408, 4.88025, -0.4122137, 4.88025, -1.0229008, 4.88025, -1.3587786
0.5749412, -0.0092317, 4.887, -0.1140137, 4.887, -1.000061, 4.887, -0.074585, 4.887, -0.3358779, 4.887, -0.778626, 4.887, -1.3358779
0.5757353, -0.0092317, 4.89375, -0.1148071, 4.89375, -1.0006714, 4.89375, -0.0800171, 4.89375, -0.4122137, 4.89375, -0.1908397, 4.89375, -1.2061069
0.5765294, -0.0115816, 4.9005, -0.1189575, 4.9005, -0.9959717, 4.9005, -0.0777588, 4.9005, -0.5877863, 4.9005, -0.0381679, 4.9005, -1.1526718
0.5773235, -0.0117494, 4.90725, -0.1207886, 4.90725, -1.0009766, 4.90725, -0.0692139, 4.90725, -0.6641222, 4.90725, 0.2442748, 4.90725, -1.0534351
0.5781176, -0.0159457, 4.914, -0.1224365, 4.914, -1.0032959, 4.914, -0.0742798, 4.914, -0.4198473, 4.914, 0.4656489, 4.914, -1.0610687
0.5789118, -0.0181277, 4.92075, -0.130249, 4.92075, -1.0003052, 4.92075, -0.0789185, 4.92075, -0.480916, 4.92075, 0.1984733, 4.92075, -1.0839695
0.5797059, -0.0191348, 4.9275, -0.1350708, 4.9275, -1.0023193, 4.9275, -0.081665, 4.9275, -0.259542, 4.9275, 0.0381679, 4.9275, -1.129771
0.5805, -0.018967, 4.93425, -0.1323853, 4.93425, -0.9990234, 4.93425, -0.0872192, 4.93425, -0.1145038, 4.93425, -0.0381679, 4.93425, -1.1755725
0.5812941, -0.0166171, 4.941, -0.1306763, 4.941, -0.9963379, 4.941, -0.0900879, 4.941, -0.0839695, 4.941, -0.1068702, 4.941, -0.908397
0.5820882, -0.0166171, 4.94775, -0.1263428, 4.94775, -0.9950562, 4.94775, -0.0877075, 4.94775, -0.3435115, 4.94775, -0.1984733, 4.94775, -1.0076336
0.5828824, -0.0162814, 4.9545, -0.1234131, 4.9545, -0.9939575, 4.9545, -0.0806885, 4.9545, -0.351145, 4.9545, -0.3129771, 4.9545, -0.9847328
0.5836765, -0.0166171, 4.96125, -0.1220093, 4.96125, -1.0003662, 4.96125, -0.0839844, 4.96125, -0.3969466, 4.96125, -0.5725191, 4.96125, -0.9389313
0.5844706, -0.0129244, 4.968, -0.1211548, 4.968, -1.0042114, 4.968, -0.0794678, 4.968, -0.0763359, 4.968, -0.1068702, 4.968, -1.038168
0.5852647, -0.0112459, 4.97475, -0.1192627, 4.97475, -1.0059814, 4.97475, -0.0772095, 4.97475, 0.2137405, 4.97475, 0.3816794, 4.97475, -1.0763359
0.5860588, -0.014435, 4.9815, -0.1233521, 4.9815, -1.0013428, 4.9815, -0.0842285, 4.9815, 0.2137405, 4.9815, 0.6946565, 4.9815, -1.1450381
0.5868529, -0.0152743, 4.98825, -0.130249, 4.98825, -0.9984741, 4.98825, -0.0831909, 4.98825, 0.0610687, 4.98825, 0.9847328, 4.98825, -1.0763359
0.5876471, -0.0157778, 4.995, -0.1262207, 4.995, -0.9996338, 4.995, -0.0837402, 4.995, 0.0229008, 4.995, 0.9770992, 4.995, -0.8396947
0.5884412, -0.0129244, 5.00175, -0.133667, 5.00175, -1.0001831, 5.00175, -0.0817871, 5.00175, 0.1068702, 5.00175, 0.9770992, 5.00175, -1.0992366
0.5892353, -0.0112459, 5.0085, -0.1340942, 5.0085, -0.9977417, 5.0085, -0.0819092, 5.0085, 0.2137405, 5.0085, 0.9236641, 5.0085, -1.0839695
0.5900294, -0.0112459, 5.01525, -0.1325073, 5.01525, -0.9990234, 5.01525, -0.0824585, 5.01525, 0.1832061, 5.01525, 0.961832, 5.01525, -0.9770992
0.5908235, -0.0102388, 5.022, -0.1334229, 5.022, -0.9988403, 5.022, -0.0819092, 5.022, 0.2519084, 5.022, 1.2061069, 5.022, -1.0152671
0.5916176, -0.0109102, 5.02875, -0.1296387, 5.02875, -0.9980469, 5.02875, -0.0809937, 5.02875, 0.1068702, 5.02875, 1.2290076, 5.02875, -1.1450381
0.5924118, -0.0149386, 5.0355, -0.1277466, 5.0355, -1.0009155, 5.0355, -0.0783691, 5.0355, 0.1908397, 5.0355, 1.3435115, 5.0355, -1.1221374
0.5932059, -0.0140993, 5.04225, -0.1281738, 5.04225, -1.0020752, 5.04225, -0.0788574, 5.04225, 0.221374, 5.04225, 1.5114504, 5.04225, -1.0458015
0.594, -0.0146029, 5.049, -0.1289673, 5.049, -1.0011597, 5.049, -0.0814819, 5.049, 0.3969466, 5.049, 1.7251909, 5.049, -1.1145039
0.5947941, -0.0146029, 5.05575, -0.1324463, 5.05575, -0.9976196, 5.05575, -0.0855103, 5.05575, 0.4427481, 5.05575, 2.091603, 5.05575, -1.091603
0.5955882, -0.0115816, 5.0625, -0.1326294, 5.0625, -0.9973755, 5.0625, -0.0838013, 5.0625, 0.4427481, 5.0625, 2.038168, 5.0625, -1.221374
0.5963824, -0.0169528, 5.06925, -0.1340332, 5.06925, -0.9978638, 5.06925, -0.0825195, 5.06925, 0.3206107, 5.06925, 1.6870229, 5.06925, -1.1603054
0.5971765, -0.0216526, 5.076, -0.1347656, 5.076, -0.9957275, 5.076, -0.0823364, 5.076, 0.2671756, 5.076, 1.5114504, 5.076, -1.2824427
0.5979706, -0.0203098, 5.08275, -0.1400146, 5.08275, -0.9917603, 5.08275, -0.0870972, 5.08275, 0.5038168, 5.08275, 1.5648855, 5.08275, -1.480916
0.5987647, -0.0196384, 5.0895, -0.1399536, 5.0895, -0.9922485, 5.0895, -0.0804443, 5.0895, 0.0763359, 5.0895, 0.7480916, 5.0895, -1.3282443
0.5995588, -0.0162814, 5.09625, -0.1367798, 5.09625, -0.9934082, 5.09625, -0.0794678, 5.09625, 0.1374046, 5.09625, 0.7251908, 5.09625, -1.3129771
0.6003529, -0.0176242, 5.103, -0.1397095, 5.103, -0.9989014, 5.103, -0.0829468, 5.103, 0.2519084, 5.103, 0.6183206, 5.103, -1.389313
0.6011471, -0.012253, 5.10975, -0.1437988, 5.10975, -0.9987793, 5.10975, -0.086731, 5.10975, 0.4961832, 5.10975, 0.3206107, 5.10975, -1.648855
0.6019412, -0.0095674, 5.1165, -0.1442261, 5.1165, -0.9905396, 5.1165, -0.0859375, 5.1165, 0.6793893, 5.1165, 0.1679389, 5.1165, -1.7557251
0.6027353, -0.0082246, 5.12325, -0.1381836, 5.12325, -0.9897461, 5.12325, -0.0939331, 5.12325, 0.6641222, 5.12325, -0.259542, 5.12325, -1.7328244
0.6035294, -0.0072175, 5.13, -0.1345825, 5.13, -0.9946289, 5.13, -0.0927124, 5.13, 0.5725191, 5.13, -0.1755725, 5.13, -1.8320611
0.6043235, -0.0082246, 5.13675, -0.1311646, 5.13675, -0.9984741, 5.13675, -0.0899048, 5.13675, 0.6641222, 5.13675, 0.0076336, 5.13675, -1.9160305
0.6051176, -0.008896, 5.1435, -0.1352539, 5.1435, -0.9983521, 5.1435, -0.0896606, 5.1435, 0.9007633, 5.1435, 0.0305344, 5.1435, -2.0229008
0.6059118, -0.0115816, 5.15025, -0.1359253, 5.15025, -0.9979248, 5.15025, -0.0905151, 5.15025, 0.9465649, 5.15025, 0.1679389, 5.15025, -1.8778626
0.6067059, -0.0115816, 5.157, -0.137207, 5.157, -0.9973755, 5.157, -0.0915527, 5.157, 1.038168, 5.157, 0.1755725, 5.157, -1.8625954
0.6075, -0.012253, 5.16375, -0.1368408, 5.16375, -0.9973145, 5.16375, -0.0884399, 5.16375, 1.1221374, 5.16375, -0.0229008, 5.16375, -2
0.6082941, -0.0115816, 5.1705, -0.1411133, 5.1705, -0.9979248, 5.1705, -0.0884399, 5.1705, 1.0763359, 5.1705, -0.0305344, 5.1705, -2.091603
0.6090882, -0.0105745, 5.17725, -0.1432495, 5.17725, -0.9988403, 5.17725, -0.0887451, 5.17725, 1.2061069, 5.17725, -0.2290076, 5.17725, -2.3664122
0.6098824, -0.0146029, 5.184, -0.1449585, 5.184, -1.0015869, 5.184, -0.0898438, 5.184, 1.2519084, 5.184, -0.7328244, 5.184, -2.1374047
0.6106765, -0.0162814, 5.19075, -0.1428833, 5.19075, -0.9994507, 5.19075, -0.0875244, 5.19075, 1.2671756, 5.19075, -0.9847328, 5.19075, -2.2519083
0.6114706, -0.01561, 5.1975, -0.1416626, 5.1975, -0.9981689, 5.1975, -0.0864258, 5.1975, 1.5648855, 5.1975, -1.3664122, 5.1975, -2.3587787
0.6122647, -0.0172885, 5.20425, -0.135376, 5.20425, -1.00177, 5.20425, -0.0859985, 5.20425, 1.4122137, 5.20425, -1.4045801, 5.20425, -2.4961832
0.6130588, -0.0196384, 5.211, -0.1367798, 5.211, -0.9979858, 5.211, -0.0842896, 5.211, 1.6641221, 5.211, -1.259542, 5.211, -2.4351146
0.6138529, -0.0206455, 5.21775, -0.1362305, 5.21775, -0.9981689, 5.21775, -0.0855103, 5.21775, 1.778626, 5.21775, -1.091603, 5.21775, -2.4274809
0.6146471, -0.0229953, 5.2245, -0.1383667, 5.2245, -0.9968262, 5.2245, -0.0864868, 5.2245, 1.6641221, 5.2245, -0.9389313, 5.2245, -2.4427481
0.6154412, -0.0203098, 5.23125, -0.1380615, 5.23125, -0.9957275, 5.23125, -0.0864868, 5.23125, 1.8015267, 5.23125, -1.0534351, 5.23125, -2.5877862
0.6162353, -0.0176242, 5.238, -0.1425781, 5.238, -0.9963379, 5.238, -0.0853271, 5.238, 1.7251909, 5.238, -1.1450381, 5.238, -2.5114503
0.6170294, -0.0172885, 5.24475, -0.1384888, 5.24475, -0.9950562, 5.24475, -0.0861816, 5.24475, 1.9541985, 5.24475, -1.2442749, 5.24475, -2.7099237
0.6178235, -0.0159457, 5.2515, -0.1390381, 5.2515, -0.9962158, 5.2515, -0.0861816, 5.2515, 2, 5.2515, -1.1526718, 5.2515, -2.8091602
0.6186176, -0.0152743, 5.25825, -0.1366577, 5.25825, -0.9980469, 5.25825, -0.0857544, 5.25825, 1.9389313, 5.25825, -1.4198474, 5.25825, -2.8854961
0.6194118, -0.01561, 5.265, -0.1372681, 5.265, -0.9981079, 5.265, -0.0874023, 5.265, 1.9770992, 5.265, -1.5648855, 5.265, -2.8167939
0.6202059, -0.0129244, 5.27175, -0.1366577, 5.27175, -0.9978638, 5.27175, -0.0841675, 5.27175, 2.0076337, 5.27175, -1.6717557, 5.27175, -2.8854961
0.621, -0.0115816, 5.2785, -0.1367798, 5.2785, -0.9951172, 5.2785, -0.0855103, 5.2785, 1.908397, 5.2785, -1.9236641, 5.2785, -2.9923663
0.6217941, -0.008896, 5.28525, -0.1344604, 5.28525, -0.9978638, 5.28525, -0.0847778, 5.28525, 1.9770992, 5.28525, -1.7938931, 5.28525, -3.0076337
0.6225882, -0.0095674, 5.292, -0.1348877, 5.292, -0.9970093, 5.292, -0.0843506, 5.292, 1.870229, 5.292, -1.6946565, 5.292, -3.0534351
0.6233824, -0.0105745, 5.29875, -0.1323853, 5.29875, -0.9970703, 5.29875, -0.0789185, 5.29875, 1.9541985, 5.29875, -1.5496184, 5.29875, -2.9312978
0.6241765, -0.0097353, 5.3055, -0.1280518, 5.3055, -1.0015259, 5.3055, -0.0776978, 5.3055, 1.9160305, 5.3055, -1.2366412, 5.3055, -2.8625953
0.6249706, -0.0125887, 5.31225, -0.1292114, 5.31225, -0.9975586, 5.31225, -0.0783691, 5.31225, 1.9007634, 5.31225, -1, 5.31225, -2.8473282
0.6257647, -0.0105745, 5.319, -0.1307373, 5.319, -0.9973755, 5.319, -0.0778809, 5.319, 1.740458, 5.319, -0.6793893, 5.319, -2.8091602
0.6265588, -0.0129244, 5.32575, -0.1332397, 5.32575, -0.9937744, 5.32575, -0.0743408, 5.32575, 1.6335878, 5.32575, -0.6183206, 5.32575, -2.7709923
0.6273529, -0.0186313, 5.3325, -0.1288452, 5.3325, -0.9963989, 5.3325, -0.0742188, 5.3325, 1.519084, 5.3325, -0.4351145, 5.3325, -2.5877862
0.6281471, -0.0172885, 5.33925, -0.1290283, 5.33925, -0.9960938, 5.33925, -0.0744629, 5.33925, 1.6335878, 5.33925, -0.1984733, 5.33925, -2.610687
0.6289412, -0.0182956, 5.346, -0.1328735, 5.346, -0.9967041, 5.346, -0.0767822, 5.346, 1.610687, 5.346, 0.1526718, 5.346, -2.7175572
0.6297353, -0.0182956, 5.35275, -0.1291504, 5.35275, -0.994812, 5.35275, -0.0784302, 5.35275, 1.5877863, 5.35275, 0.2137405, 5.35275, -2.6793892
0.6305294, -0.021149, 5.3595, -0.1273193, 5.3595, -0.9941406, 5.3595, -0.0809326, 5.3595, 1.6946565, 5.3595, 0.5038168, 5.3595, -2.3129771
0.6313235, -0.0203098, 5.36625, -0.1281738, 5.36625, -0.9933472, 5.36625, -0.0806274, 5.36625, 1.648855, 5.36625, 0.908397, 5.36625, -2.519084
0.6321176, -0.0169528, 5.373, -0.1283569, 5.373, -0.9916992, 5.373, -0.085022, 5.373, 1.5954199, 5.373, 0.9770992, 5.373, -2.4503818
0.6329118, -0.017792, 5.37975, -0.1332397, 5.37975, -0.9972534, 5.37975, -0.0853882, 5.37975, 1.7099236, 5.37975, 1.1679389, 5.37975, -2.5877862
0.6337059, -0.0166171, 5.3865, -0.1351318, 5.3865, -0.9970093, 5.3865, -0.0870972, 5.3865, 1.6870229, 5.3865, 1.0839695, 5.3865, -2.5877862
0.6345, -0.0129244, 5.39325, -0.1384277, 5.39325, -0.9961548, 5.39325, -0.0844727, 5.39325, 1.740458, 5.39325, 0.9770992, 5.39325, -2.4274809
0.6352941, -0.0115816, 5.4, -0.1408691, 5.4, -1.0006104, 5.4, -0.0847778, 5.4, 1.5877863, 5.4, 0.5954198, 5.4, -2.6870229
0.6360882, -0.0117494, 5.40675, -0.1398926, 5.40675, -0.9996338, 5.40675, -0.0803833, 5.40675, 1.5648855, 5.40675, 0.4580153, 5.40675, -2.7862597
0.6368824, -0.012253, 5.4135, -0.1412354, 5.4135, -0.9996948, 5.4135, -0.0795288, 5.4135, 1.6259542, 5.4135, 0.3435115, 5.4135, -2.7862597
0.6376765, -0.0139315, 5.42025, -0.1408691, 5.42025, -1.0006714, 5.42025, -0.0785522, 5.42025, 1.5114504, 5.42025, 0.0839695, 5.42025, -2.8167939
0.6384706, -0.0109102, 5.427, -0.1414795, 5.427, -1.0025635, 5.427, -0.0759277, 5.427, 1.5572519, 5.427, 0.4427481, 5.427, -2.8015268
0.6392647, -0.0082246, 5.43375, -0.1384277, 5.43375, -1.0023193, 5.43375, -0.0739746, 5.43375, 1.6030535, 5.43375, 0.6717557, 5.43375, -2.9694657
0.6400588, -0.0085603, 5.4405, -0.140625, 5.4405, -0.9988403, 5.4405, -0.0753174, 5.4405, 1.7709924, 5.4405, 1.1145039, 5.4405, -2.8625953
0.6408529, -0.0115816, 5.44725, -0.1401367, 5.44725, -0.9955444, 5.44725, -0.0792236, 5.44725, 1.7099236, 5.44725, 1.3206106, 5.44725, -2.9007633
0.6416471, -0.0117494, 5.454, -0.1365967, 5.454, -0.994751, 5.454, -0.0762939, 5.454, 1.5572519, 5.454, 1.4198474, 5.454, -2.9007633
0.6424412, -0.0125887, 5.46075, -0.1409302, 5.46075, -0.9949341, 5.46075, -0.0788574, 5.46075, 1.5725191, 5.46075, 1.4274809, 5.46075, -2.9236641
0.6432353, -0.0146029, 5.4675, -0.1425781, 5.4675, -0.9934082, 5.4675, -0.0799561, 5.4675, 1.5648855, 5.4675, 1.4198474, 5.4675, -2.9770992
0.6440294, -0.0169528, 5.47425, -0.1400146, 5.47425, -0.994812, 5.47425, -0.083313, 5.47425, 1.4580153, 5.47425, 1.2442749, 5.47425, -3.0992367
0.6448235, -0.0169528, 5.481, -0.1391602, 5.481, -0.9956055, 5.481, -0.0839844, 5.481, 1.610687, 5.481, 1.2519084, 5.481, -3.1679389
0.6456176, -0.0179599, 5.48775, -0.1368408, 5.48775, -0.9945068, 5.48775, -0.0858154, 5.48775, 1.4961832, 5.48775, 1.0763359, 5.48775, -3.1832061
0.6464118, -0.0179599, 5.4945, -0.1386108, 5.4945, -0.9952393, 5.4945, -0.0828247, 5.4945, 1.6335878, 5.4945, 0.8778626, 5.4945, -3.1450381
0.6472059, -0.0194705, 5.50125, -0.1414795, 5.50125, -0.9946899, 5.50125, -0.0825806, 5.50125, 1.6641221, 5.50125, 0.6564885, 5.50125, -3.2061069
0.648, -0.018967, 5.508, -0.1383667, 5.508, -0.9957275, 5.508, -0.0875244, 5.508, 1.6564885, 5.508, 0.3969466, 5.508, -3.3816793
0.6487941, -0.0216526, 5.51475, -0.142395, 5.51475, -0.9981079, 5.51475, -0.0859375, 5.51475, 1.5954199, 5.51475, 0.1603053, 5.51475, -3.4503818
0.6495882, -0.0206455, 5.5215, -0.142334, 5.5215, -0.9980469, 5.5215, -0.0847778, 5.5215, 1.5267175, 5.5215, -0.0229008, 5.5215, -3.4427481
0.6503824, -0.0182956, 5.52825, -0.1378174, 5.52825, -0.9971313, 5.52825, -0.085144, 5.52825, 1.5496184, 5.52825, -0.2290076, 5.52825, -3.6870229
0.6511765, -0.0216526, 5.535, -0.1364136, 5.535, -0.9973755, 5.535, -0.0835571, 5.535, 1.7099236, 5.535, -0.0229008, 5.535, -3.5801528
0.6519706, -0.0186313, 5.54175, -0.1350098, 5.54175, -0.9991455, 5.54175, -0.0784302, 5.54175, 1.9465649, 5.54175, 0.0916031, 5.54175, -3.648855
0.6527647, -0.0162814, 5.5485, -0.1311035, 5.5485, -0.9998779, 5.5485, -0.0769043, 5.5485, 1.8167939, 5.5485, 0.4198473, 5.5485, -3.6259542
0.6535588, -0.0176242, 5.55525, -0.1304321, 5.55525, -0.9987793, 5.55525, -0.0717773, 5.55525, 1.7251909, 5.55525, 0.870229, 5.55525, -3.5267177
0.6543529, -0.017792, 5.562, -0.1320801, 5.562, -0.9976196, 5.562, -0.0723877, 5.562, 1.6641221, 5.562, 1.0152671, 5.562, -3.5267177
0.6551471, -0.0129244, 5.56875, -0.1353149, 5.56875, -0.9971924, 5.56875, -0.0743408, 5.56875, 1.6793894, 5.56875, 1.1068702, 5.56875, -3.519084
0.6559412, -0.0115816, 5.5755, -0.1347656, 5.5755, -0.9985352, 5.5755, -0.0737305, 5.5755, 1.480916, 5.5755, 1.3282443, 5.5755, -3.5954199
0.6567353, -0.0092317, 5.58225, -0.1335449, 5.58225, -0.9962158, 5.58225, -0.0726929, 5.58225, 1.3435115, 5.58225, 1.4732825, 5.58225, -3.5496182
0.6575294, -0.0109102, 5.589, -0.1343384, 5.589, -1.0001221, 5.589, -0.0725708, 5.589, 1.4580153, 5.589, 1.6564885, 5.589, -3.6946564
0.6583235, -0.0085603, 5.59575, -0.1326904, 5.59575, -0.9996338, 5.59575, -0.0756836, 5.59575, 1.221374, 5.59575, 1.6259542, 5.59575, -3.5267177
0.6591176, -0.0097353, 5.6025, -0.1344604, 5.6025, -0.99823, 5.6025, -0.0737915, 5.6025, 1.480916, 5.6025, 1.7557251, 5.6025, -3.6946564
0.6599118, -0.0142672, 5.60925, -0.1334839, 5.60925, -0.9992065, 5.60925, -0.0769653, 5.60925, 1.3740458, 5.60925, 1.908397, 5.60925, -3.4885497
0.6607059, -0.0149386, 5.616, -0.1315918, 5.616, -0.9990845, 5.616, -0.0800781, 5.616, 1.2977099, 5.616, 2.0229008, 5.616, -3.5419848
0.6615, -0.0142672, 5.62275, -0.1331177, 5.62275, -0.9970703, 5.62275, -0.0783691, 5.62275, 1.2137405, 5.62275, 1.908397, 5.62275, -3.5725191
0.6622941, -0.0146029, 5.6295, -0.1373291, 5.6295, -0.9966431, 5.6295, -0.0817871, 5.6295, 1.1221374, 5.6295, 1.9160305, 5.6295, -3.389313
0.6630882, -0.0166171, 5.63625, -0.1390381, 5.63625, -0.9975586, 5.63625, -0.0834351, 5.63625, 1.2900764, 5.63625, 1.8549619, 5.63625, -3.389313
0.6638824, -0.0176242, 5.643, -0.1408081, 5.643, -0.9984741, 5.643, -0.0852661, 5.643, 1.4198474, 5.643, 1.7328244, 5.643, -3.6259542
0.6646765, -0.0164492, 5.64975, -0.1417236, 5.64975, -0.9994507, 5.64975, -0.0841064, 5.64975, 1.3435115, 5.64975, 1.5496184, 5.64975, -3.5954199
0.6654706, -0.0159457, 5.6565, -0.1390991, 5.6565, -0.9974976, 5.6565, -0.085144, 5.6565, 1.2824427, 5.6565, 1.0992366, 5.6565, -3.740458
0.6662647, -0.0176242, 5.66325, -0.1389771, 5.66325, -0.9924316, 5.66325, -0.0821533, 5.66325, 1.1908396, 5.66325, 0.9160305, 5.66325, -3.6030533
0.6670588, -0.017792, 5.67, -0.1369019, 5.67, -0.9984131, 5.67, -0.0802612, 5.67, 1.2137405, 5.67, 1.0839695, 5.67, -3.6412213
0.6678529, -0.0166171, 5.67675, -0.137146, 5.67675, -0.9976807, 5.67675, -0.0790405, 5.67675, 1.1984733, 5.67675, 1.1984733, 5.67675, -3.7709923
0.6686471, -0.0146029, 5.6835, -0.1376343, 5.6835, -0.9970093, 5.6835, -0.0765991, 5.6835, 1.2748091, 5.6835, 1.1908396, 5.6835, -3.7099237
0.6694412, -0.0129244, 5.69025, -0.1399536, 5.69025, -0.9956665, 5.69025, -0.0794067, 5.69025, 1.4198474, 5.69025, 1.3129771, 5.69025, -3.6412213
0.6702353, -0.0112459, 5.697, -0.1333618, 5.697, -0.9998779, 5.697, -0.0830078, 5.697, 1.3969465, 5.697, 1.5038168, 5.697, -3.5954199
0.6710294, -0.0129244, 5.70375, -0.1310425, 5.70375, -0.9979248, 5.70375, -0.0796509, 5.70375, 1.3740458, 5.70375, 1.7328244, 5.70375, -3.7251909
0.6718235, -0.0082246, 5.7105, -0.1320801, 5.7105, -0.9993896, 5.7105, -0.0791016, 5.7105, 1.5114504, 5.7105, 1.870229, 5.7105, -3.5114503
0.6726176, -0.0112459, 5.71725, -0.1331787, 5.71725, -0.9984741, 5.71725, -0.0802002, 5.71725, 1.519084, 5.71725, 2.2290077, 5.71725, -3.5572519
0.6734118, -0.0125887, 5.724, -0.1312256, 5.724, -0.9968872, 5.724, -0.0790405, 5.724, 1.4274809, 5.724, 2.221374, 5.724, -3.480916
0.6742059, -0.0137636, 5.73075, -0.1326294, 5.73075, -0.9966431, 5.73075, -0.0787964, 5.73075, 1.3053435, 5.73075, 2.1450381, 5.73075, -3.4580152
0.675, -0.012253, 5.7375, -0.1298828, 5.7375, -0.9962769, 5.7375, -0.0770874, 5.7375, 1.3435115, 5.7375, 2.1145039, 5.7375, -3.480916
