Application:, Trigno Discover (1.7.0)
Date/Time:, 2026/9/9 上午 11:54:38
Collection Length (seconds):, 37.152
Avanti Sensor 11 (69574)
sensor mode: 50
EMG 1 Time Series (s), EMG 1 (mV), ACC X Time Series (s), ACC X (G), ACC Y Time Series (s), ACC Y (G), ACC Z Time Series (s), ACC Z (G), GYRO X Time Series (s), GYRO X (deg/s), GYRO Y Time Series (s), GYRO Y (deg/s), GYRO Z Time Series (s), GYRO Z (deg/s)
, 1259.2593 Hz, , 148.1481 Hz, , 148.1481 Hz, , 148.1481 Hz, , 148.1481 Hz, , 148.1481 Hz, , 148.1481 Hz
0, -0.0142672, 0, -0.0452271, 0, -0.9887695, 0, -0.2814331, 0, 1.0610687, 0, 0.8244275, 0, -3.3969467
0.0007941, -0.0095674, 0.00675, -0.0448608, 0.00675, -0.9862671, 0.00675, -0.2832642, 0.00675, 1.1679389, 0.00675, 0.9770992, 0.00675, -3.3282442
0.0015882, -0.0078889, 0.0135, -0.0454102, 0.0135, -0.9867554, 0.0135, -0.2910767, 0.0135, 0.8778626, 0.0135, 1.259542, 0.0135, -3.2290077
0.0023824, -0.0085603, 0.02025, -0.0424194, 0.02025, -0.9858398, 0.02025, -0.2889404, 0.02025, 0.961832, 0.02025, 1.2137405, 0.02025, -3.1068702
0.0031765, -0.0075532, 0.027, -0.0446777, 0.027, -0.9874268, 0.027, -0.2802734, 0.027, 0.740458, 0.027, 1.4045801, 0.027, -3.2137403
0.0039706, -0.0070497, 0.03375, -0.0465088, 0.03375, -0.9869385, 0.03375, -0.2781982, 0.03375, 0.870229, 0.03375, 1.6870229, 0.03375, -3.0534351
0.0047647, -0.0078889, 0.0405, -0.0465698, 0.0405, -0.9885864, 0.0405, -0.2856445, 0.0405, 0.8931298, 0.0405, 1.9007634, 0.0405, -3.0534351
0.0055588, -0.0073854, 0.04725, -0.0424194, 0.04725, -0.986084, 0.04725, -0.2860718, 0.04725, 1.0229008, 0.04725, 1.8244275, 0.04725, -2.9694657
0.0063529, -0.0085603, 0.054, -0.0419922, 0.054, -0.9903564, 0.054, -0.2855835, 0.054, 1.3282443, 0.054, 2.129771, 0.054, -3
0.0071471, -0.0082246, 0.06075, -0.043335, 0.06075, -0.9883423, 0.06075, -0.2763062, 0.06075, 1.5725191, 0.06075, 2.6641221, 0.06075, -2.870229
0.0079412, -0.0085603, 0.0675, -0.0473633, 0.0675, -0.9880371, 0.0675, -0.2786255, 0.0675, 1.610687, 0.0675, 2.7862597, 0.0675, -2.7862597
0.0087353, -0.0097353, 0.07425, -0.0443726, 0.07425, -0.9863892, 0.07425, -0.2800903, 0.07425, 1.2519084, 0.07425, 2.3206108, 0.07425, -2.6335878
0.0095294, -0.0112459, 0.081, -0.0420532, 0.081, -0.9853516, 0.081, -0.2820435, 0.081, 1.1603054, 0.081, 2, 0.081, -2.8854961
0.0103235, -0.0203098, 0.08775, -0.0428467, 0.08775, -0.984314, 0.08775, -0.2843628, 0.08775, 1.2366412, 0.08775, 1.8854961, 0.08775, -2.870229
0.0111176, -0.0203098, 0.0945, -0.0419922, 0.0945, -0.9800415, 0.0945, -0.2854614, 0.0945, 1.4122137, 0.0945, 1.961832, 0.0945, -2.8854961
0.0119118, -0.0236667, 0.10125, -0.0425415, 0.10125, -0.982666, 0.10125, -0.2808228, 0.10125, 1.4045801, 0.10125, 1.8244275, 0.10125, -2.7709923
0.0127059, -0.0226596, 0.108, -0.0432739, 0.108, -0.9822388, 0.108, -0.2811279, 0.108, 1.4122137, 0.108, 1.519084, 0.108, -2.908397
0.0135, -0.0206455, 0.11475, -0.0420532, 0.11475, -0.982605, 0.11475, -0.2826538, 0.11475, 1.5343511, 0.11475, 1.3282443, 0.11475, -2.9847329
0.0142941, -0.023331, 0.1215, -0.045166, 0.1215, -0.9837646, 0.1215, -0.2832031, 0.1215, 1.3664122, 0.1215, 1.038168, 0.1215, -2.8320611
0.0150882, -0.0223239, 0.12825, -0.0491333, 0.12825, -0.9810791, 0.12825, -0.28479, 0.12825, 1.5954199, 0.12825, 1.2137405, 0.12825, -2.961832
0.0158824, -0.0216526, 0.135, -0.0494385, 0.135, -0.9841919, 0.135, -0.2836304, 0.135, 1.6412214, 0.135, 1.1068702, 0.135, -2.8854961
0.0166765, -0.0125887, 0.14175, -0.0477905, 0.14175, -0.9852295, 0.14175, -0.2891846, 0.14175, 1.6946565, 0.14175, 1.0458015, 0.14175, -2.9465649
0.0174706, -0.0057069, 0.1485, -0.0518799, 0.1485, -0.9855347, 0.1485, -0.2886353, 0.1485, 1.4961832, 0.1485, 1.1984733, 0.1485, -3.1908398
0.0182647, -0.0068818, 0.15525, -0.0540161, 0.15525, -0.9884033, 0.15525, -0.2879028, 0.15525, 1.6335878, 0.15525, 1.3816794, 0.15525, -3.1603053
0.0190588, -0.0030213, 0.162, -0.0523682, 0.162, -0.9880981, 0.162, -0.2827148, 0.162, 1.3358779, 0.162, 1.2366412, 0.162, -3.1908398
0.0198529, 0.0057069, 0.16875, -0.0534058, 0.16875, -0.9888306, 0.16875, -0.2819214, 0.16875, 1.3740458, 0.16875, 0.9236641, 0.16875, -3.2519083
0.0206471, 0.0072175, 0.1755, -0.0504761, 0.1755, -0.987915, 0.1755, -0.2861328, 0.1755, 1.4274809, 0.1755, 0.8854962, 0.1755, -3.3740458
0.0214412, 0.0058747, 0.18225, -0.0496826, 0.18225, -0.9854736, 0.18225, -0.2895508, 0.18225, 1.4656489, 0.18225, 0.7862595, 0.18225, -3.4961832
0.0222353, 0.0006714, 0.189, -0.052063, 0.189, -0.9862671, 0.189, -0.2886963, 0.189, 1.3435115, 0.189, 0.5419847, 0.189, -3.6641221
0.0230294, -0.0109102, 0.19575, -0.0511475, 0.19575, -0.9866943, 0.19575, -0.2943115, 0.19575, 1.2519084, 0.19575, 0.4427481, 0.19575, -3.7633588
0.0238235, -0.0124208, 0.2025, -0.0466919, 0.2025, -0.9863281, 0.2025, -0.2892456, 0.2025, 1.0839695, 0.2025, 0.3740458, 0.2025, -3.6030533
0.0246176, -0.0112459, 0.20925, -0.0458374, 0.20925, -0.9871826, 0.20925, -0.2875977, 0.20925, 1.2061069, 0.20925, 0.5648855, 0.20925, -3.6793892
0.0254118, -0.0196384, 0.216, -0.048584, 0.216, -0.9830933, 0.216, -0.2874146, 0.216, 1.1908396, 0.216, 0.7557252, 0.216, -3.8091602
0.0262059, -0.0236667, 0.22275, -0.0482178, 0.22275, -0.9824219, 0.22275, -0.2883301, 0.22275, 1.1374046, 0.22275, 0.4274809, 0.22275, -3.8244274
0.027, -0.0238346, 0.2295, -0.0499878, 0.2295, -0.9846191, 0.2295, -0.2868042, 0.2295, 1.0305344, 0.2295, 0.1068702, 0.2295, -3.9465649
0.0277941, -0.0260166, 0.23625, -0.046814, 0.23625, -0.9862671, 0.23625, -0.2860718, 0.23625, 0.9236641, 0.23625, -0.0152672, 0.23625, -4.0839696
0.0285882, -0.0265202, 0.243, -0.0427246, 0.243, -0.9863892, 0.243, -0.2822876, 0.243, 1.1755725, 0.243, 0.1603053, 0.243, -4.1145039
0.0293824, -0.0285344, 0.24975, -0.0407715, 0.24975, -0.9887695, 0.24975, -0.2805786, 0.24975, 1.0076336, 0.24975, 0.0229008, 0.24975, -4.1450381
0.0301765, -0.0203098, 0.2565, -0.038269, 0.2565, -0.9885864, 0.2565, -0.2835083, 0.2565, 1.0534351, 0.2565, -0.0381679, 0.2565, -4.0305343
0.0309706, -0.0171206, 0.26325, -0.0408325, 0.26325, -0.9838257, 0.26325, -0.2802124, 0.26325, 1.0305344, 0.26325, 0.0839695, 0.26325, -3.8549619
0.0317647, -0.0209812, 0.27, -0.039856, 0.27, -0.9840088, 0.27, -0.2813721, 0.27, 1.0534351, 0.27, 0.4351145, 0.27, -3.908397
0.0325588, -0.0169528, 0.27675, -0.0413818, 0.27675, -0.9863281, 0.27675, -0.2796021, 0.27675, 0.9160305, 0.27675, 0.3435115, 0.27675, -3.8015268
0.0333529, -0.0135958, 0.2835, -0.0397949, 0.2835, -0.9868774, 0.2835, -0.2784424, 0.2835, 1.0763359, 0.2835, 0.5725191, 0.2835, -3.8167939
0.0341471, -0.014435, 0.29025, -0.039917, 0.29025, -0.9849854, 0.29025, -0.2803345, 0.29025, 0.9312977, 0.29025, 0.5877863, 0.29025, -3.7480917
0.0349412, -0.0139315, 0.297, -0.0385132, 0.297, -0.9901733, 0.297, -0.2791748, 0.297, 1.129771, 0.297, 0.6183206, 0.297, -3.8931298
0.0357353, -0.0075532, 0.30375, -0.0424194, 0.30375, -0.9858398, 0.30375, -0.2835693, 0.30375, 1.1450381, 0.30375, 0.8931298, 0.30375, -3.5419848
0.0365294, -0.0045319, 0.3105, -0.0457764, 0.3105, -0.9819946, 0.3105, -0.2844849, 0.3105, 0.9770992, 0.3105, 0.9007633, 0.3105, -3.6870229
0.0373235, -0.0028534, 0.31725, -0.0476685, 0.31725, -0.9842529, 0.31725, -0.2874756, 0.31725, 0.9770992, 0.31725, 1.129771, 0.31725, -3.4351146
0.0381176, -0.0018463, 0.324, -0.0458984, 0.324, -0.9838257, 0.324, -0.2886353, 0.324, 0.9465649, 0.324, 1.1908396, 0.324, -3.5801528
0.0389118, -0.0048676, 0.33075, -0.0490112, 0.33075, -0.9842529, 0.33075, -0.2880859, 0.33075, 0.9007633, 0.33075, 1.221374, 0.33075, -3.6870229
0.0397059, -0.0115816, 0.3375, -0.0461426, 0.3375, -0.986145, 0.3375, -0.2896729, 0.3375, 0.961832, 0.3375, 0.7480916, 0.3375, -3.7175572
0.0405, -0.0135958, 0.34425, -0.048645, 0.34425, -0.9855347, 0.34425, -0.289856, 0.34425, 0.9694657, 0.34425, 0.5801527, 0.34425, -3.6259542
0.0412941, -0.0193027, 0.351, -0.0466919, 0.351, -0.9859619, 0.351, -0.2897949, 0.351, 0.8091603, 0.351, 0.7175573, 0.351, -3.6717558
0.0420882, -0.0204776, 0.35775, -0.0455933, 0.35775, -0.9827271, 0.35775, -0.2913818, 0.35775, 0.8091603, 0.35775, 0.7633588, 0.35775, -3.7022901
0.0428824, -0.0206455, 0.3645, -0.0419922, 0.3645, -0.986145, 0.3645, -0.2873535, 0.3645, 0.4351145, 0.3645, 1, 0.3645, -3.6412213
0.0436765, -0.0203098, 0.37125, -0.0426025, 0.37125, -0.9874878, 0.37125, -0.2890015, 0.37125, 0.3587786, 0.37125, 1, 0.37125, -3.6641221
0.0444706, -0.0193027, 0.378, -0.0401611, 0.378, -0.9884033, 0.378, -0.2877197, 0.378, 0.4580153, 0.378, 0.9541985, 0.378, -3.6564887
0.0452647, -0.0196384, 0.38475, -0.0444336, 0.38475, -0.9869385, 0.38475, -0.286499, 0.38475, 0.5343512, 0.38475, 0.8854962, 0.38475, -3.6259542
0.0460588, -0.0219883, 0.3915, -0.043396, 0.3915, -0.984375, 0.3915, -0.2852173, 0.3915, 0.4503817, 0.3915, 0.6717557, 0.3915, -3.7175572
0.0468529, -0.0270237, 0.39825, -0.0421143, 0.39825, -0.9867554, 0.39825, -0.2871094, 0.39825, 0.2748092, 0.39825, 0.7480916, 0.39825, -3.5954199
0.0476471, -0.0283665, 0.405, -0.039917, 0.405, -0.9857788, 0.405, -0.2839966, 0.405, 0.3435115, 0.405, 0.4198473, 0.405, -3.7099237
0.0484412, -0.0265202, 0.41175, -0.0412598, 0.41175, -0.9868164, 0.41175, -0.284729, 0.41175, 0.1679389, 0.41175, 0.519084, 0.41175, -3.7862597
0.0492353, -0.0243381, 0.4185, -0.0443726, 0.4185, -0.9841309, 0.4185, -0.2832031, 0.4185, 0.3740458, 0.4185, 0.2671756, 0.4185, -3.6946564
0.0500294, -0.0129244, 0.42525, -0.0435791, 0.42525, -0.9829712, 0.42525, -0.286499, 0.42525, 0.2290076, 0.42525, 0.2061069, 0.42525, -3.5725191
0.0508235, -0.0068818, 0.432, -0.0411987, 0.432, -0.9835815, 0.432, -0.2842407, 0.432, 0.5648855, 0.432, 0.1679389, 0.432, -3.7480917
0.0516176, -0.0095674, 0.43875, -0.0410767, 0.43875, -0.9874878, 0.43875, -0.2860107, 0.43875, 0.4274809, 0.43875, 0.3969466, 0.43875, -3.8931298
0.0524118, -0.0041962, 0.4455, -0.0414429, 0.4455, -0.9854736, 0.4455, -0.2889404, 0.4455, 0.4961832, 0.4455, 0.480916, 0.4455, -3.8396947
0.0532059, -0.0011749, 0.45225, -0.0449219, 0.45225, -0.9851685, 0.45225, -0.2890625, 0.45225, 0.5877863, 0.45225, 0.7175573, 0.45225, -3.8473282
0.054, -0.0038605, 0.459, -0.0428467, 0.459, -0.9849854, 0.459, -0.2906494, 0.459, 0.7709923, 0.459, 0.7862595, 0.459, -3.8396947
0.0547941, -0.005539, 0.46575, -0.0435791, 0.46575, -0.9872437, 0.46575, -0.2913208, 0.46575, 1.3129771, 0.46575, 0.8625954, 0.46575, -3.6946564
0.0555882, -0.0068818, 0.4725, -0.0445557, 0.4725, -0.9876709, 0.4725, -0.2907104, 0.4725, 1.5496184, 0.4725, 1.091603, 0.4725, -3.6946564
0.0563824, -0.0082246, 0.47925, -0.0425415, 0.47925, -0.9880371, 0.47925, -0.2957764, 0.47925, 1.3282443, 0.47925, 1.1984733, 0.47925, -3.6564887
0.0571765, -0.0062104, 0.486, -0.0446167, 0.486, -0.9849243, 0.486, -0.2905884, 0.486, 1.2137405, 0.486, 1.0687023, 0.486, -3.7633588
0.0579706, -0.0082246, 0.49275, -0.0458374, 0.49275, -0.9888916, 0.49275, -0.2841187, 0.49275, 1.4045801, 0.49275, 1.1221374, 0.49275, -3.9694657
0.0587647, -0.0152743, 0.4995, -0.046875, 0.4995, -0.9891357, 0.4995, -0.2866821, 0.4995, 1.3664122, 0.4995, 1.0076336, 0.4995, -3.8931298
0.0595588, -0.0206455, 0.50625, -0.0421753, 0.50625, -0.9868164, 0.50625, -0.2869873, 0.50625, 1.3816794, 0.50625, 0.9770992, 0.50625, -3.610687
0.0603529, -0.0218204, 0.513, -0.0420532, 0.513, -0.9868164, 0.513, -0.2908325, 0.513, 1.351145, 0.513, 1.259542, 0.513, -3.4656489
0.0611471, -0.0214847, 0.51975, -0.0393066, 0.51975, -0.9844971, 0.51975, -0.2905273, 0.51975, 0.9007633, 0.51975, 1.5343511, 0.51975, -3.6412213
0.0619412, -0.0251774, 0.5265, -0.0415039, 0.5265, -0.9869995, 0.5265, -0.2873535, 0.5265, 1.1068702, 0.5265, 1.3435115, 0.5265, -3.778626
0.0627353, -0.0243381, 0.53325, -0.0435791, 0.53325, -0.9880981, 0.53325, -0.2833252, 0.53325, 1.1908396, 0.53325, 1.2290076, 0.53325, -3.6641221
0.0635294, -0.0219883, 0.54, -0.0361328, 0.54, -0.9857788, 0.54, -0.2833252, 0.54, 1.2290076, 0.54, 1.1984733, 0.54, -3.4732823
0.0643235, -0.0226596, 0.54675, -0.0332642, 0.54675, -0.9873657, 0.54675, -0.2861328, 0.54675, 0.9923664, 0.54675, 1.389313, 0.54675, -3.480916
0.0651176, -0.0256809, 0.5535, -0.0356445, 0.5535, -0.9859009, 0.5535, -0.2872314, 0.5535, 0.8625954, 0.5535, 1.1221374, 0.5535, -3.4427481
0.0659118, -0.0229953, 0.56025, -0.0391235, 0.56025, -0.9835205, 0.56025, -0.2859497, 0.56025, 0.9923664, 0.56025, 1.0687023, 0.56025, -3.4351146
0.0667059, -0.0146029, 0.567, -0.0402222, 0.567, -0.9852295, 0.567, -0.2878418, 0.567, 0.961832, 0.567, 1.1908396, 0.567, -3.2977099
0.0675, -0.01561, 0.57375, -0.0400391, 0.57375, -0.9859009, 0.57375, -0.2905884, 0.57375, 1.1221374, 0.57375, 1.4198474, 0.57375, -3.5038168
0.0682941, -0.0182956, 0.5805, -0.0391846, 0.5805, -0.9862671, 0.5805, -0.2877197, 0.5805, 1.1679389, 0.5805, 1.1145039, 0.5805, -3.4427481
0.0690882, -0.0176242, 0.58725, -0.039917, 0.58725, -0.9871826, 0.58725, -0.2892456, 0.58725, 1.1526718, 0.58725, 1.221374, 0.58725, -3.3587787
0.0698824, -0.0058747, 0.594, -0.0404053, 0.594, -0.9855347, 0.594, -0.289856, 0.594, 1.1374046, 0.594, 1.2366412, 0.594, -3.3969467
0.0706765, 0.0018463, 0.60075, -0.0440063, 0.60075, -0.9818115, 0.60075, -0.2900391, 0.60075, 0.7938932, 0.60075, 0.9923664, 0.60075, -3.2671757
0.0714706, -0.0010071, 0.6075, -0.0446167, 0.6075, -0.9838867, 0.6075, -0.288208, 0.6075, 0.6946565, 0.6075, 0.9007633, 0.6075, -3.259542
0.0722647, -0.0035248, 0.61425, -0.0457764, 0.61425, -0.9858398, 0.61425, -0.2875977, 0.61425, 0.5725191, 0.61425, 0.8015267, 0.61425, -3.3740458
0.0730588, -0.0075532, 0.621, -0.0387573, 0.621, -0.9871216, 0.621, -0.2855225, 0.621, 0.6564885, 0.621, 0.6870229, 0.621, -3.4580152
0.0738529, -0.0095674, 0.62775, -0.0384521, 0.62775, -0.9884644, 0.62775, -0.2851562, 0.62775, 0.6717557, 0.62775, 0.5801527, 0.62775, -3.4274809
0.0746471, -0.0115816, 0.6345, -0.0339966, 0.6345, -0.9865723, 0.6345, -0.2856445, 0.6345, 0.8167939, 0.6345, 0.3358779, 0.6345, -3.4732823
0.0754412, -0.0142672, 0.64125, -0.0349121, 0.64125, -0.9862671, 0.64125, -0.2879639, 0.64125, 0.8167939, 0.64125, 0.4045801, 0.64125, -3.351145
0.0762353, -0.0135958, 0.648, -0.0349731, 0.648, -0.987915, 0.648, -0.2877197, 0.648, 0.9236641, 0.648, 0.9541985, 0.648, -3.2061069
0.0770294, -0.0194705, 0.65475, -0.0344849, 0.65475, -0.9879761, 0.65475, -0.2893677, 0.65475, 1.0458015, 0.65475, 1.0305344, 0.65475, -3.2366412
0.0778235, -0.0206455, 0.6615, -0.0357056, 0.6615, -0.9872437, 0.6615, -0.2875977, 0.6615, 1.1526718, 0.6615, 1.1603054, 0.6615, -3.1221373
0.0786176, -0.0250095, 0.66825, -0.0384521, 0.66825, -0.9849854, 0.66825, -0.2848511, 0.66825, 1.0992366, 0.66825, 1.0992366, 0.66825, -2.9923663
0.0794118, -0.0260166, 0.675, -0.0375366, 0.675, -0.9837646, 0.675, -0.2839355, 0.675, 1.2290076, 0.675, 1.2137405, 0.675, -2.7938931
0.0802059, -0.0196384, 0.68175, -0.0415649, 0.68175, -0.9822388, 0.68175, -0.2891846, 0.68175, 1.259542, 0.68175, 1.129771, 0.68175, -2.8549619
0.081, -0.0243381, 0.6885, -0.0401611, 0.6885, -0.9822388, 0.6885, -0.2880859, 0.6885, 1.0305344, 0.6885, 0.9541985, 0.6885, -2.7633588
0.0817941, -0.0263523, 0.69525, -0.0396118, 0.69525, -0.9870605, 0.69525, -0.2871704, 0.69525, 1.038168, 0.69525, 1.1984733, 0.69525, -2.870229
0.0825882, -0.017792, 0.702, -0.0350952, 0.702, -0.9863281, 0.702, -0.2838745, 0.702, 1.0152671, 0.702, 1.4427481, 0.702, -2.6793892
0.0833824, -0.0149386, 0.70875, -0.0337524, 0.70875, -0.9848022, 0.70875, -0.2791748, 0.70875, 0.8473282, 0.70875, 1.5038168, 0.70875, -2.7557251
0.0841765, -0.0172885, 0.7155, -0.0369263, 0.7155, -0.9838867, 0.7155, -0.2862549, 0.7155, 0.778626, 0.7155, 1.4503816, 0.7155, -2.8167939
0.0849706, -0.0135958, 0.72225, -0.0391235, 0.72225, -0.9834595, 0.72225, -0.2828369, 0.72225, 0.5954198, 0.72225, 1.4580153, 0.72225, -3.0076337
0.0857647, -0.0045319, 0.729, -0.0439453, 0.729, -0.9871216, 0.729, -0.2820435, 0.729, 0.648855, 0.729, 1.5267175, 0.729, -2.7557251
0.0865588, -0.0005035, 0.73575, -0.0458984, 0.73575, -0.9876709, 0.73575, -0.28302, 0.73575, 0.5954198, 0.73575, 1.3053435, 0.73575, -2.6946564
0.0873529, 0.0015106, 0.7425, -0.0459595, 0.7425, -0.9841919, 0.7425, -0.2854004, 0.7425, 0.5801527, 0.7425, 0.9541985, 0.7425, -2.610687
0.0881471, 0.003357, 0.74925, -0.0429688, 0.74925, -0.9876099, 0.74925, -0.2850952, 0.74925, 0.6717557, 0.74925, 0.908397, 0.74925, -2.7099237
0.0889412, 0.0001678, 0.756, -0.0419922, 0.756, -0.9876099, 0.756, -0.2890625, 0.756, 0.389313, 0.756, 1.2977099, 0.756, -2.5801528
0.0897353, -0.0060426, 0.76275, -0.0408325, 0.76275, -0.9845581, 0.76275, -0.2941895, 0.76275, 0.1068702, 0.76275, 1.4580153, 0.76275, -2.6259542
0.0905294, -0.005539, 0.7695, -0.0396118, 0.7695, -0.986084, 0.7695, -0.2927246, 0.7695, 0.3282443, 0.7695, 1.5419847, 0.7695, -2.7251909
0.0913235, -0.0104067, 0.77625, -0.0411377, 0.77625, -0.9848633, 0.77625, -0.2911377, 0.77625, 0.1450382, 0.77625, 1.7709924, 0.77625, -2.6564887
0.0921176, -0.0172885, 0.783, -0.0407715, 0.783, -0.9837646, 0.783, -0.2927856, 0.783, 0.221374, 0.783, 2.1221373, 0.783, -2.4274809
0.0929118, -0.0162814, 0.78975, -0.039917, 0.78975, -0.9863892, 0.78975, -0.2957153, 0.78975, 0.0381679, 0.78975, 2.4351146, 0.78975, -2.3282442
0.0937059, -0.0169528, 0.7965, -0.041748, 0.7965, -0.9887085, 0.7965, -0.293457, 0.7965, 0.0229008, 0.7965, 2.4198472, 0.7965, -2.4427481
0.0945, -0.018967, 0.80325, -0.0448608, 0.80325, -0.986145, 0.80325, -0.2932739, 0.80325, 0.2519084, 0.80325, 2.4732823, 0.80325, -2.1984732
0.0952941, -0.0229953, 0.81, -0.045166, 0.81, -0.9856567, 0.81, -0.2945557, 0.81, 0.2977099, 0.81, 2.4274809, 0.81, -2.4122138
0.0960882, -0.0256809, 0.81675, -0.0518799, 0.81675, -0.9863892, 0.81675, -0.2987671, 0.81675, 0.5114504, 0.81675, 2.2900763, 0.81675, -2.4961832
0.0968824, -0.0260166, 0.8235, -0.0570679, 0.8235, -0.9848633, 0.8235, -0.3001709, 0.8235, 0.3358779, 0.8235, 1.8167939, 0.8235, -2.6641221
0.0976765, -0.0307164, 0.83025, -0.0568848, 0.83025, -0.9837036, 0.83025, -0.2999268, 0.83025, 0.778626, 0.83025, 1.4580153, 0.83025, -2.8167939
0.0984706, -0.0293736, 0.837, -0.052063, 0.837, -0.9860229, 0.837, -0.3039551, 0.837, 0.7175573, 0.837, 1.1755725, 0.837, -3.0229008
0.0992647, -0.0224918, 0.84375, -0.0512695, 0.84375, -0.9837036, 0.84375, -0.3021851, 0.84375, 1.0687023, 0.84375, 1.2442749, 0.84375, -3.2900763
0.1000588, -0.0216526, 0.8505, -0.0507202, 0.8505, -0.9865723, 0.8505, -0.3018188, 0.8505, 1.091603, 0.8505, 0.9007633, 0.8505, -3.3740458
0.1008529, -0.0139315, 0.85725, -0.0505981, 0.85725, -0.9837646, 0.85725, -0.3012695, 0.85725, 1.4045801, 0.85725, 0.9160305, 0.85725, -3.4351146
0.1016471, -0.0095674, 0.864, -0.0516357, 0.864, -0.9858398, 0.864, -0.2984619, 0.864, 1.7175573, 0.864, 0.9847328, 0.864, -3.4732823
0.1024412, -0.0075532, 0.87075, -0.0465088, 0.87075, -0.9858398, 0.87075, -0.2973022, 0.87075, 1.8167939, 0.87075, 0.8931298, 0.87075, -3.5343511
0.1032353, -0.0016785, 0.8775, -0.0461426, 0.8775, -0.9891968, 0.8775, -0.2984619, 0.8775, 1.7099236, 0.8775, 0.7709923, 0.8775, -3.7328243
0.1040294, 0.0048676, 0.88425, -0.0473633, 0.88425, -0.9873047, 0.88425, -0.2953491, 0.88425, 1.9694656, 0.88425, 0.8473282, 0.88425, -3.8854961
0.1048235, 0.002182, 0.891, -0.0460815, 0.891, -0.987854, 0.891, -0.291687, 0.891, 2.221374, 0.891, 0.6793893, 0.891, -3.8778627
0.1056176, -0.0015106, 0.89775, -0.0438232, 0.89775, -0.9874268, 0.89775, -0.2903442, 0.89775, 2.2061069, 0.89775, 0.4885496, 0.89775, -4.0458016
0.1064118, -0.0028534, 0.9045, -0.0435181, 0.9045, -0.9879761, 0.9045, -0.2878418, 0.9045, 2.3816793, 0.9045, 0.4122137, 0.9045, -4.0992365
0.1072059, -0.0041962, 0.91125, -0.0414429, 0.91125, -0.9858398, 0.91125, -0.2919312, 0.91125, 2.2977099, 0.91125, 0.4274809, 0.91125, -3.9465649
0.108, -0.0129244, 0.918, -0.0391235, 0.918, -0.9810791, 0.918, -0.291748, 0.918, 2.2900763, 0.918, 0.3435115, 0.918, -4.0305343
0.1087941, -0.0179599, 0.92475, -0.0429077, 0.92475, -0.9835815, 0.92475, -0.2854004, 0.92475, 2.1603053, 0.92475, 0.3435115, 0.92475, -4.0839696
0.1095882, -0.018967, 0.9315, -0.0411377, 0.9315, -0.989624, 0.9315, -0.2869263, 0.9315, 2.1374047, 0.9315, 0.2977099, 0.9315, -4.1908398
0.1103824, -0.0196384, 0.93825, -0.039856, 0.93825, -0.986084, 0.93825, -0.2827759, 0.93825, 2.1526718, 0.93825, 0.1526718, 0.93825, -4.1221375
0.1111765, -0.0198062, 0.945, -0.0391235, 0.945, -0.9833984, 0.945, -0.2837524, 0.945, 2.0992367, 0.945, 0.0152672, 0.945, -4.0763359
0.1119706, -0.023331, 0.95175, -0.0427856, 0.95175, -0.9866943, 0.95175, -0.2858887, 0.95175, 1.9923664, 0.95175, 0.0305344, 0.95175, -4.0839696
0.1127647, -0.0241703, 0.9585, -0.0443115, 0.9585, -0.9872437, 0.9585, -0.2849121, 0.9585, 1.9312977, 0.9585, -0.2061069, 0.9585, -4.0610685
0.1135588, -0.0240024, 0.96525, -0.0420532, 0.96525, -0.9853516, 0.96525, -0.2833252, 0.96525, 2.0687022, 0.96525, -0.259542, 0.96525, -4.3282442
0.1143529, -0.0216526, 0.972, -0.041748, 0.972, -0.9852295, 0.972, -0.2825928, 0.972, 2.0152671, 0.972, -0.259542, 0.972, -4.1908398
0.1151471, -0.024506, 0.97875, -0.041626, 0.97875, -0.986145, 0.97875, -0.2838745, 0.97875, 1.8549619, 0.97875, -0.351145, 0.97875, -4.2290077
0.1159412, -0.0218204, 0.9855, -0.0419312, 0.9855, -0.9871216, 0.9855, -0.2823486, 0.9855, 2.0839694, 0.9855, -0.5648855, 0.9855, -4.4503818
0.1167353, -0.0193027, 0.99225, -0.0395508, 0.99225, -0.9848022, 0.99225, -0.2839966, 0.99225, 2.2442749, 0.99225, -0.5267175, 0.99225, -4.259542
0.1175294, -0.0142672, 0.999, -0.0366211, 0.999, -0.9876099, 0.999, -0.28479, 0.999, 2.0687022, 0.999, -0.3587786, 0.999, -4.2061067
0.1183235, -0.0112459, 1.00575, -0.0352783, 1.00575, -0.9874268, 1.00575, -0.286499, 1.00575, 1.9312977, 1.00575, -0.2290076, 1.00575, -4.259542
0.1191176, -0.0001678, 1.0125, -0.0348511, 1.0125, -0.9864502, 1.0125, -0.2836914, 1.0125, 1.8854961, 1.0125, 0.1068702, 1.0125, -4
0.1199118, 0.0025177, 1.01925, -0.0351562, 1.01925, -0.9857178, 1.01925, -0.2854614, 1.01925, 1.5877863, 1.01925, 0.1068702, 1.01925, -4.0916033
0.1207059, -0.0031891, 1.026, -0.0331421, 1.026, -0.9863281, 1.026, -0.2871094, 1.026, 1.4198474, 1.026, 0.259542, 1.026, -3.9007633
0.1215, -0.0038605, 1.03275, -0.0333862, 1.03275, -0.9868164, 1.03275, -0.2877197, 1.03275, 1.4580153, 1.03275, 0.259542, 1.03275, -3.8396947
0.1222941, -0.0075532, 1.0395, -0.036438, 1.0395, -0.9866333, 1.0395, -0.2869873, 1.0395, 1.4045801, 1.0395, 0.3282443, 1.0395, -3.8473282
0.1230882, -0.0149386, 1.04625, -0.0357056, 1.04625, -0.9877319, 1.04625, -0.2863159, 1.04625, 1.259542, 1.04625, 0.0229008, 1.04625, -3.6793892
0.1238824, -0.0152743, 1.053, -0.0377197, 1.053, -0.9885864, 1.053, -0.2813721, 1.053, 1.2137405, 1.053, 0.2061069, 1.053, -3.8167939
0.1246765, -0.0107424, 1.05975, -0.0410156, 1.05975, -0.9831543, 1.05975, -0.2843628, 1.05975, 1.2442749, 1.05975, -0.0305344, 1.05975, -3.7633588
0.1254706, -0.0092317, 1.0665, -0.039917, 1.0665, -0.9840088, 1.0665, -0.2874756, 1.0665, 0.8854962, 1.0665, -0.0839695, 1.0665, -3.778626
0.1262647, -0.0146029, 1.07325, -0.039856, 1.07325, -0.9852295, 1.07325, -0.2838135, 1.07325, 0.6412213, 1.07325, -0.2137405, 1.07325, -3.7938931
0.1270588, -0.0216526, 1.08, -0.0368652, 1.08, -0.9857178, 1.08, -0.2825928, 1.08, 0.6030535, 1.08, -0.1068702, 1.08, -3.6412213
0.1278529, -0.0236667, 1.08675, -0.0346069, 1.08675, -0.9873047, 1.08675, -0.2838745, 1.08675, 0.7328244, 1.08675, -0.1755725, 1.08675, -3.5801528
0.1286471, -0.0256809, 1.0935, -0.0350342, 1.0935, -0.9864502, 1.0935, -0.2839966, 1.0935, 0.7328244, 1.0935, -0.4045801, 1.0935, -3.4961832
0.1294412, -0.0203098, 1.10025, -0.0396118, 1.10025, -0.984375, 1.10025, -0.2874756, 1.10025, 0.7557252, 1.10025, -0.1832061, 1.10025, -3.6564887
0.1302353, -0.0196384, 1.107, -0.0366821, 1.107, -0.9862671, 1.107, -0.2903442, 1.107, 0.648855, 1.107, 0.0229008, 1.107, -3.5572519
0.1310294, -0.0250095, 1.11375, -0.0308228, 1.11375, -0.9866333, 1.11375, -0.288269, 1.11375, 0.7022901, 1.11375, 0.1603053, 1.11375, -3.5038168
0.1318235, -0.0273594, 1.1205, -0.0321655, 1.1205, -0.9857788, 1.1205, -0.289856, 1.1205, 1.0534351, 1.1205, 0.1068702, 1.1205, -3.3664122
0.1326176, -0.0196384, 1.12725, -0.0359497, 1.12725, -0.9839478, 1.12725, -0.2852783, 1.12725, 0.9160305, 1.12725, 0.3206107, 1.12725, -3.2519083
0.1334118, -0.0164492, 1.134, -0.0376587, 1.134, -0.9874268, 1.134, -0.2901001, 1.134, 0.8244275, 1.134, 0.2061069, 1.134, -3.259542
0.1342059, -0.0169528, 1.14075, -0.0355835, 1.14075, -0.9860229, 1.14075, -0.2931519, 1.14075, 1.0610687, 1.14075, 0.4885496, 1.14075, -3.1374047
0.135, -0.0152743, 1.1475, -0.0374146, 1.1475, -0.9868164, 1.1475, -0.2922974, 1.1475, 1.1908396, 1.1475, 0.6717557, 1.1475, -3.1908398
0.1357941, -0.0162814, 1.15425, -0.0383301, 1.15425, -0.9866333, 1.15425, -0.288147, 1.15425, 1.0076336, 1.15425, 0.7328244, 1.15425, -3.0458016
0.1365882, -0.0142672, 1.161, -0.0403442, 1.161, -0.9862671, 1.161, -0.288208, 1.161, 0.9236641, 1.161, 0.870229, 1.161, -3.1068702
0.1373824, -0.012253, 1.16775, -0.0454712, 1.16775, -0.9864502, 1.16775, -0.2905273, 1.16775, 0.9007633, 1.16775, 0.648855, 1.16775, -3.1984732
0.1381765, -0.0124208, 1.1745, -0.0426636, 1.1745, -0.9874878, 1.1745, -0.2918091, 1.1745, 1.0458015, 1.1745, 0.8091603, 1.1745, -3.091603
0.1389706, -0.0003357, 1.18125, -0.0390625, 1.18125, -0.9829102, 1.18125, -0.291748, 1.18125, 1.2061069, 1.18125, 0.6335878, 1.18125, -3.0229008
0.1397647, 0.0078889, 1.188, -0.0396729, 1.188, -0.9833374, 1.188, -0.2913818, 1.188, 1.259542, 1.188, 0.6717557, 1.188, -3.0305343
0.1405588, 0.0078889, 1.19475, -0.0396118, 1.19475, -0.9873047, 1.19475, -0.293396, 1.19475, 1.221374, 1.19475, 0.5954198, 1.19475, -3.2061069
0.1413529, 0.0015106, 1.2015, -0.0395508, 1.2015, -0.9851685, 1.2015, -0.2965088, 1.2015, 1.8015267, 1.2015, 0.6946565, 1.2015, -3.3435113
0.1421471, -0.0062104, 1.20825, -0.0388794, 1.20825, -0.9862671, 1.20825, -0.2935791, 1.20825, 2.0763359, 1.20825, 1.1221374, 1.20825, -3.1450381
0.1429412, -0.0095674, 1.215, -0.0384521, 1.215, -0.9835815, 1.215, -0.2946167, 1.215, 2.1984732, 1.215, 1.5419847, 1.215, -2.961832
0.1437353, -0.0176242, 1.22175, -0.0389404, 1.22175, -0.9856567, 1.22175, -0.2955322, 1.22175, 2.4427481, 1.22175, 1.6870229, 1.22175, -3.0458016
0.1445294, -0.017792, 1.2285, -0.0380249, 1.2285, -0.982605, 1.2285, -0.2890015, 1.2285, 2.0992367, 1.2285, 1.5801526, 1.2285, -3.1526718
0.1453235, -0.0135958, 1.23525, -0.043457, 1.23525, -0.9850464, 1.23525, -0.2903442, 1.23525, 1.9236641, 1.23525, 1.5419847, 1.23525, -3.1221373
0.1461176, -0.018967, 1.242, -0.0456543, 1.242, -0.9863281, 1.242, -0.2872314, 1.242, 2.0305343, 1.242, 1.4732825, 1.242, -3.0229008
0.1469118, -0.0265202, 1.24875, -0.0424805, 1.24875, -0.9858398, 1.24875, -0.2871704, 1.24875, 1.8396946, 1.24875, 1.1374046, 1.24875, -2.9923663
0.1477059, -0.0273594, 1.2555, -0.0426636, 1.2555, -0.9863892, 1.2555, -0.2855835, 1.2555, 1.7251909, 1.2555, 0.7328244, 1.2555, -3.0458016
0.1485, -0.0285344, 1.26225, -0.0457153, 1.26225, -0.986084, 1.26225, -0.2874756, 1.26225, 1.740458, 1.26225, 0.4198473, 1.26225, -3.1832061
0.1492941, -0.030045, 1.269, -0.0393066, 1.269, -0.9862061, 1.269, -0.2905884, 1.269, 1.7251909, 1.269, 0.3435115, 1.269, -3.1374047
0.1500882, -0.0231632, 1.27575, -0.0367432, 1.27575, -0.9852905, 1.27575, -0.2883911, 1.27575, 1.6335878, 1.27575, 0.0229008, 1.27575, -3.1221373
0.1508824, -0.0146029, 1.2825, -0.0396729, 1.2825, -0.9859009, 1.2825, -0.2858887, 1.2825, 1.6870229, 1.2825, 0.3664122, 1.2825, -3.091603
0.1516765, -0.0109102, 1.28925, -0.0345459, 1.28925, -0.9856567, 1.28925, -0.2907104, 1.28925, 1.5343511, 1.28925, 0.4198473, 1.28925, -3.1832061
0.1524706, -0.0095674, 1.296, -0.0366821, 1.296, -0.9872437, 1.296, -0.2885132, 1.296, 1.3969465, 1.296, 0.4351145, 1.296, -3.0763359
0.1532647, -0.0068818, 1.30275, -0.0344849, 1.30275, -0.9858398, 1.30275, -0.2865601, 1.30275, 1.4961832, 1.30275, 0.5038168, 1.30275, -2.8549619
0.1540588, -0.0052033, 1.3095, -0.0377808, 1.3095, -0.9846802, 1.3095, -0.2820435, 1.3095, 1.4503816, 1.3095, 0.6183206, 1.3095, -2.9694657
0.1548529, -0.0038605, 1.31625, -0.0383911, 1.31625, -0.9869385, 1.31625, -0.2843018, 1.31625, 1.389313, 1.31625, 0.3740458, 1.31625, -2.908397
0.1556471, 0.0025177, 1.323, -0.039917, 1.323, -0.9858398, 1.323, -0.2869263, 1.323, 1.4656489, 1.323, 0.2137405, 1.323, -2.8931298
0.1564412, -0.0065461, 1.32975, -0.0408936, 1.32975, -0.9882812, 1.32975, -0.2855225, 1.32975, 1.4580153, 1.32975, 0.1679389, 1.32975, -2.8320611
0.1572353, -0.0172885, 1.3365, -0.0404663, 1.3365, -0.9863892, 1.3365, -0.2838745, 1.3365, 1.5038168, 1.3365, 0.2519084, 1.3365, -2.908397
0.1580294, -0.0162814, 1.34325, -0.038147, 1.34325, -0.9832764, 1.34325, -0.2859497, 1.34325, 1.5725191, 1.34325, 0.3053435, 1.34325, -2.8396947
0.1588235, -0.0176242, 1.35, -0.0361328, 1.35, -0.982605, 1.35, -0.2877808, 1.35, 1.5648855, 1.35, 0.3435115, 1.35, -2.9847329
0.1596176, -0.0218204, 1.35675, -0.0375366, 1.35675, -0.9839478, 1.35675, -0.2888184, 1.35675, 1.5725191, 1.35675, 0.4732825, 1.35675, -2.9770992
0.1604118, -0.0310521, 1.3635, -0.0378418, 1.3635, -0.9841309, 1.3635, -0.2865601, 1.3635, 1.4274809, 1.3635, 0.4961832, 1.3635, -2.8778627
0.1612059, -0.0290379, 1.37025, -0.0408936, 1.37025, -0.9847412, 1.37025, -0.2884521, 1.37025, 1.4274809, 1.37025, 0.8015267, 1.37025, -3.0458016
0.162, -0.0323949, 1.377, -0.0411987, 1.377, -0.9865723, 1.377, -0.2869263, 1.377, 1.3358779, 1.377, 0.7175573, 1.377, -2.9007633
0.1627941, -0.0317235, 1.38375, -0.0397339, 1.38375, -0.9874878, 1.38375, -0.2856445, 1.38375, 1.2290076, 1.38375, 0.5954198, 1.38375, -2.8625953
0.1635882, -0.0276951, 1.3905, -0.0366821, 1.3905, -0.9892578, 1.3905, -0.2861328, 1.3905, 1.4351145, 1.3905, 0.4045801, 1.3905, -2.9236641
0.1643824, -0.0273594, 1.39725, -0.0405273, 1.39725, -0.9889526, 1.39725, -0.289856, 1.39725, 1.3740458, 1.39725, 0.4961832, 1.39725, -3.0229008
0.1651765, -0.0218204, 1.404, -0.0418091, 1.404, -0.989502, 1.404, -0.2897949, 1.404, 1.4274809, 1.404, 0.519084, 1.404, -3.0229008
0.1659706, -0.0169528, 1.41075, -0.0443726, 1.41075, -0.9866943, 1.41075, -0.2888184, 1.41075, 1.4503816, 1.41075, 0.7328244, 1.41075, -2.908397
0.1667647, -0.01561, 1.4175, -0.0439453, 1.4175, -0.9917603, 1.4175, -0.2922974, 1.4175, 1.1450381, 1.4175, 0.4427481, 1.4175, -3.091603
0.1675588, -0.0102388, 1.42425, -0.0442505, 1.42425, -0.9900513, 1.42425, -0.2901001, 1.42425, 1.1679389, 1.42425, 0.3664122, 1.42425, -3.1908398
0.1683529, -0.0099031, 1.431, -0.0406494, 1.431, -0.9863281, 1.431, -0.2908325, 1.431, 1.3358779, 1.431, 0.2824427, 1.431, -3.0992367
0.1691471, -0.0045319, 1.43775, -0.0410767, 1.43775, -0.9853516, 1.43775, -0.2919922, 1.43775, 1.2366412, 1.43775, 0.1755725, 1.43775, -3.038168
0.1699412, 0.0003357, 1.4445, -0.0411987, 1.4445, -0.9835205, 1.4445, -0.2870483, 1.4445, 1.4427481, 1.4445, 0.3282443, 1.4445, -3.2519083
0.1707353, -0.0038605, 1.45125, -0.041626, 1.45125, -0.9852905, 1.45125, -0.2860107, 1.45125, 1.3587786, 1.45125, 0.4732825, 1.45125, -3.038168
0.1715294, -0.0082246, 1.458, -0.0386353, 1.458, -0.9851685, 1.458, -0.2890625, 1.458, 1.4656489, 1.458, 0.4580153, 1.458, -3.1221373
0.1723235, -0.0102388, 1.46475, -0.0395508, 1.46475, -0.9850464, 1.46475, -0.2880249, 1.46475, 1.4198474, 1.46475, 0.3358779, 1.46475, -3.3435113
0.1731176, -0.0082246, 1.4715, -0.041626, 1.4715, -0.9847412, 1.4715, -0.284729, 1.4715, 1.4580153, 1.4715, 0.3282443, 1.4715, -3.351145
0.1739118, -0.0082246, 1.47825, -0.0388794, 1.47825, -0.9865723, 1.47825, -0.2836304, 1.47825, 1.5801526, 1.47825, 0.2900763, 1.47825, -3.221374
0.1747059, -0.012253, 1.485, -0.0352173, 1.485, -0.9866943, 1.485, -0.2845459, 1.485, 1.3358779, 1.485, 0.0152672, 1.485, -3.1526718
0.1755, -0.0129244, 1.49175, -0.039856, 1.49175, -0.9849854, 1.49175, -0.2841187, 1.49175, 1.3206106, 1.49175, 0.351145, 1.49175, -3.2290077
0.1762941, -0.0152743, 1.4985, -0.0413208, 1.4985, -0.9856567, 1.4985, -0.2853394, 1.4985, 1.3129771, 1.4985, 0.2900763, 1.4985, -3.3740458
0.1770882, -0.0216526, 1.50525, -0.0430298, 1.50525, -0.9859009, 1.50525, -0.2840576, 1.50525, 1.2748091, 1.50525, 0.2061069, 1.50525, -3.1145039
0.1778824, -0.0226596, 1.512, -0.0408936, 1.512, -0.9854736, 1.512, -0.2850342, 1.512, 1.389313, 1.512, 0.1908397, 1.512, -3.0610688
0.1786765, -0.0203098, 1.51875, -0.0383301, 1.51875, -0.9871216, 1.51875, -0.2819214, 1.51875, 1.1679389, 1.51875, 0.3664122, 1.51875, -3.221374
0.1794706, -0.0236667, 1.5255, -0.0338745, 1.5255, -0.9898682, 1.5255, -0.2804565, 1.5255, 1.3053435, 1.5255, 0.2290076, 1.5255, -3.1603053
0.1802647, -0.0250095, 1.53225, -0.0357666, 1.53225, -0.9855957, 1.53225, -0.2822266, 1.53225, 1.1603054, 1.53225, 0.3053435, 1.53225, -3.0229008
0.1810588, -0.0246738, 1.539, -0.0352783, 1.539, -0.9858398, 1.539, -0.2806396, 1.539, 1.0152671, 1.539, 0.3435115, 1.539, -3.0992367
0.1818529, -0.0260166, 1.54575, -0.0360718, 1.54575, -0.9904785, 1.54575, -0.2814331, 1.54575, 1.1221374, 1.54575, 0.4885496, 1.54575, -2.9847329
0.1826471, -0.0229953, 1.5525, -0.0338745, 1.5525, -0.9872437, 1.5525, -0.2832642, 1.5525, 1.221374, 1.5525, 0.519084, 1.5525, -3.0076337
0.1834412, -0.0164492, 1.55925, -0.0377197, 1.55925, -0.9849243, 1.55925, -0.2851562, 1.55925, 1.1145039, 1.55925, 0.7328244, 1.55925, -2.8015268
0.1842353, -0.0142672, 1.566, -0.0376587, 1.566, -0.9859619, 1.566, -0.2851562, 1.566, 1.1450381, 1.566, 0.9541985, 1.566, -2.6717558
0.1850294, -0.012253, 1.57275, -0.0409546, 1.57275, -0.984375, 1.57275, -0.2821045, 1.57275, 0.8320611, 1.57275, 0.8167939, 1.57275, -2.7099237
0.1858235, -0.008896, 1.5795, -0.0376587, 1.5795, -0.9842529, 1.5795, -0.2842407, 1.5795, 0.648855, 1.5795, 0.8473282, 1.5795, -2.6717558
0.1866176, -0.0003357, 1.58625, -0.0361328, 1.58625, -0.9857178, 1.58625, -0.284729, 1.58625, 0.740458, 1.58625, 1.0687023, 1.58625, -2.6870229
0.1874118, 0.0005035, 1.593, -0.0326538, 1.593, -0.9865723, 1.593, -0.2842407, 1.593, 0.5801527, 1.593, 0.961832, 1.593, -2.5801528
0.1882059, -0.0008392, 1.59975, -0.0368652, 1.59975, -0.9887695, 1.59975, -0.2875366, 1.59975, 0.7328244, 1.59975, 1.3740458, 1.59975, -2.4427481
0.189, -0.0008392, 1.6065, -0.0391235, 1.6065, -0.9848022, 1.6065, -0.286499, 1.6065, 0.870229, 1.6065, 1.3435115, 1.6065, -2.4885497
0.1897941, -0.002182, 1.61325, -0.0366211, 1.61325, -0.9866333, 1.61325, -0.2849121, 1.61325, 0.7709923, 1.61325, 1.4580153, 1.61325, -2.519084
0.1905882, -0.0112459, 1.62, -0.0422363, 1.62, -0.9824219, 1.62, -0.2839355, 1.62, 0.7175573, 1.62, 1.5572519, 1.62, -2.3969467
0.1913824, -0.0117494, 1.62675, -0.0442505, 1.62675, -0.9840698, 1.62675, -0.2875977, 1.62675, 0.8549618, 1.62675, 1.6946565, 1.62675, -2.3587787
0.1921765, -0.012253, 1.6335, -0.0481567, 1.6335, -0.9848633, 1.6335, -0.2884521, 1.6335, 0.5038168, 1.6335, 1.610687, 1.6335, -2.4732823
0.1929706, -0.0129244, 1.64025, -0.0461426, 1.64025, -0.9862061, 1.64025, -0.2855835, 1.64025, 0.4885496, 1.64025, 1.221374, 1.64025, -2.5343511
0.1937647, -0.0142672, 1.647, -0.0470581, 1.647, -0.9866333, 1.647, -0.2892456, 1.647, 0.6412213, 1.647, 0.9389313, 1.647, -2.7328243
0.1945588, -0.0203098, 1.65375, -0.0447388, 1.65375, -0.9850464, 1.65375, -0.2908325, 1.65375, 0.610687, 1.65375, 0.8244275, 1.65375, -2.8320611
0.1953529, -0.0186313, 1.6605, -0.0438843, 1.6605, -0.9831543, 1.6605, -0.2941895, 1.6605, 0.6717557, 1.6605, 0.7251908, 1.6605, -2.8167939
0.1961471, -0.0179599, 1.66725, -0.0445557, 1.66725, -0.9848022, 1.66725, -0.2924194, 1.66725, 0.3740458, 1.66725, 1.0305344, 1.66725, -2.8549619
0.1969412, -0.0219883, 1.674, -0.0418091, 1.674, -0.9855957, 1.674, -0.2906494, 1.674, 0.5496183, 1.674, 0.8549618, 1.674, -2.8625953
0.1977353, -0.0250095, 1.68075, -0.0456543, 1.68075, -0.9875488, 1.68075, -0.2920532, 1.68075, 0.5114504, 1.68075, 0.8549618, 1.68075, -2.870229
0.1985294, -0.0243381, 1.6875, -0.0487671, 1.6875, -0.9862061, 1.6875, -0.2932739, 1.6875, 0.8473282, 1.6875, 0.8320611, 1.6875, -2.8320611
0.1993235, -0.0260166, 1.69425, -0.0463867, 1.69425, -0.9877319, 1.69425, -0.2952271, 1.69425, 1.1221374, 1.69425, 0.8931298, 1.69425, -2.8473282
0.2001176, -0.0243381, 1.701, -0.0446777, 1.701, -0.9869385, 1.701, -0.2943115, 1.701, 1.3358779, 1.701, 1.1755725, 1.701, -2.8396947
0.2009118, -0.018967, 1.70775, -0.0441895, 1.70775, -0.9885254, 1.70775, -0.2924805, 1.70775, 1.3206106, 1.70775, 1.2290076, 1.70775, -2.8931298
0.2017059, -0.01561, 1.7145, -0.041626, 1.7145, -0.9872437, 1.7145, -0.2907104, 1.7145, 1.3664122, 1.7145, 1.0839695, 1.7145, -2.908397
0.2025, -0.0099031, 1.72125, -0.0444336, 1.72125, -0.9865112, 1.72125, -0.2896729, 1.72125, 1.5572519, 1.72125, 1.221374, 1.72125, -2.961832
0.2032941, -0.0048676, 1.728, -0.0452881, 1.728, -0.9857178, 1.728, -0.2893066, 1.728, 1.7633588, 1.728, 1.3129771, 1.728, -3.1068702
0.2040882, -0.0008392, 1.73475, -0.0461426, 1.73475, -0.9833374, 1.73475, -0.2913818, 1.73475, 1.7557251, 1.73475, 1.2824427, 1.73475, -3.0839694
0.2048824, -0.0048676, 1.7415, -0.0454102, 1.7415, -0.986084, 1.7415, -0.291626, 1.7415, 1.6259542, 1.7415, 1.3664122, 1.7415, -3.2519083
0.2056765, -0.0068818, 1.74825, -0.0435181, 1.74825, -0.9868774, 1.74825, -0.289917, 1.74825, 1.6793894, 1.74825, 1.259542, 1.74825, -3.091603
0.2064706, -0.0058747, 1.755, -0.043457, 1.755, -0.9871216, 1.755, -0.2869873, 1.755, 1.5267175, 1.755, 1.2061069, 1.755, -3.3053436
0.2072647, -0.0075532, 1.76175, -0.0428467, 1.76175, -0.9848633, 1.76175, -0.2840576, 1.76175, 1.6717557, 1.76175, 1.2977099, 1.76175, -3.4580152
0.2080588, -0.0115816, 1.7685, -0.0432129, 1.7685, -0.9855957, 1.7685, -0.2835083, 1.7685, 1.4961832, 1.7685, 1.1526718, 1.7685, -3.3587787
0.2088529, -0.0109102, 1.77525, -0.0430298, 1.77525, -0.9850464, 1.77525, -0.2855835, 1.77525, 1.519084, 1.77525, 1.1984733, 1.77525, -3.2977099
0.2096471, -0.0162814, 1.782, -0.0405273, 1.782, -0.9830933, 1.782, -0.2888184, 1.782, 1.6259542, 1.782, 1.091603, 1.782, -3.3664122
0.2104412, -0.0246738, 1.78875, -0.0420532, 1.78875, -0.9833984, 1.78875, -0.2854004, 1.78875, 1.480916, 1.78875, 0.9007633, 1.78875, -3.351145
0.2112353, -0.0276951, 1.7955, -0.0380249, 1.7955, -0.9830322, 1.7955, -0.2866211, 1.7955, 1.519084, 1.7955, 0.6793893, 1.7955, -3.4427481
0.2120294, -0.026688, 1.80225, -0.0421753, 1.80225, -0.9827881, 1.80225, -0.2842407, 1.80225, 1.4351145, 1.80225, 0.7709923, 1.80225, -3.4351146
0.2128235, -0.0236667, 1.809, -0.0455933, 1.809, -0.9862061, 1.809, -0.2825928, 1.809, 1.351145, 1.809, 0.7175573, 1.809, -3.4732823
0.2136176, -0.0229953, 1.81575, -0.045166, 1.81575, -0.9875488, 1.81575, -0.2866211, 1.81575, 1.2442749, 1.81575, 0.4732825, 1.81575, -3.3206108
0.2144118, -0.0236667, 1.8225, -0.0460815, 1.8225, -0.9856567, 1.8225, -0.2855225, 1.8225, 1.3664122, 1.8225, 0.6641222, 1.8225, -3.4503818
0.2152059, -0.0176242, 1.82925, -0.0424194, 1.82925, -0.9848633, 1.82925, -0.2823486, 1.82925, 1.3282443, 1.82925, 0.4351145, 1.82925, -3.4732823
0.216, -0.0132601, 1.836, -0.0396118, 1.836, -0.9876709, 1.836, -0.2824707, 1.836, 1.221374, 1.836, 0.519084, 1.836, -3.389313
0.2167941, -0.0135958, 1.84275, -0.0385132, 1.84275, -0.9853516, 1.84275, -0.2870483, 1.84275, 1.0076336, 1.84275, 0.4580153, 1.84275, -3.4427481
0.2175882, -0.0139315, 1.8495, -0.0378418, 1.8495, -0.9877319, 1.8495, -0.2825928, 1.8495, 0.8778626, 1.8495, 0.5877863, 1.8495, -3.3664122
0.2183824, -0.0082246, 1.85625, -0.0411987, 1.85625, -0.989624, 1.85625, -0.2845459, 1.85625, 1.0305344, 1.85625, 0.6412213, 1.85625, -3.259542
0.2191765, -0.0095674, 1.863, -0.0405884, 1.863, -0.9849854, 1.863, -0.2872925, 1.863, 0.8625954, 1.863, 0.5954198, 1.863, -3.2061069
0.2199706, -0.0018463, 1.86975, -0.0401611, 1.86975, -0.9856567, 1.86975, -0.2836914, 1.86975, 0.740458, 1.86975, 0.6412213, 1.86975, -3.2442749
0.2207647, 0.0005035, 1.8765, -0.0426636, 1.8765, -0.9852905, 1.8765, -0.2844849, 1.8765, 0.8625954, 1.8765, 0.5648855, 1.8765, -3.1450381
0.2215588, -0.0035248, 1.88325, -0.0423584, 1.88325, -0.9882812, 1.88325, -0.2811279, 1.88325, 0.9160305, 1.88325, 0.6717557, 1.88325, -3.1526718
0.2223529, 0.0001678, 1.89, -0.0422363, 1.89, -0.9857788, 1.89, -0.286438, 1.89, 0.9389313, 1.89, 0.6946565, 1.89, -3.1526718
0.2231471, -0.0028534, 1.89675, -0.0419312, 1.89675, -0.987793, 1.89675, -0.2902832, 1.89675, 0.8396947, 1.89675, 0.7633588, 1.89675, -3.1145039
0.2239412, -0.0085603, 1.9035, -0.041687, 1.9035, -0.9868774, 1.9035, -0.2873535, 1.9035, 0.8473282, 1.9035, 0.6946565, 1.9035, -3.2519083
0.2247353, -0.0102388, 1.91025, -0.043396, 1.91025, -0.9866943, 1.91025, -0.2880249, 1.91025, 0.9389313, 1.91025, 0.8778626, 1.91025, -3.3435113
0.2255294, -0.0132601, 1.917, -0.0427246, 1.917, -0.9833984, 1.917, -0.2886353, 1.917, 0.908397, 1.917, 0.7099237, 1.917, -3.2900763
0.2263235, -0.0203098, 1.92375, -0.0411987, 1.92375, -0.9837036, 1.92375, -0.2873535, 1.92375, 0.9389313, 1.92375, 0.610687, 1.92375, -3.519084
0.2271176, -0.0216526, 1.9305, -0.039917, 1.9305, -0.9838867, 1.9305, -0.2914429, 1.9305, 0.8244275, 1.9305, 0.8015267, 1.9305, -3.4198472
0.2279118, -0.0203098, 1.93725, -0.0368652, 1.93725, -0.9873657, 1.93725, -0.2891235, 1.93725, 0.7328244, 1.93725, 0.778626, 1.93725, -3.2977099
0.2287059, -0.0199741, 1.944, -0.0377197, 1.944, -0.9865112, 1.944, -0.2890015, 1.944, 0.7328244, 1.944, 0.6335878, 1.944, -3.2442749
0.2295, -0.0246738, 1.95075, -0.0379639, 1.95075, -0.9830933, 1.95075, -0.2924194, 1.95075, 0.6030535, 1.95075, 0.8549618, 1.95075, -3.4274809
0.2302941, -0.0216526, 1.9575, -0.0369873, 1.9575, -0.9844971, 1.9575, -0.2911987, 1.9575, 0.4351145, 1.9575, 0.908397, 1.9575, -3.4274809
0.2310882, -0.0256809, 1.96425, -0.0422974, 1.96425, -0.9832764, 1.96425, -0.2884521, 1.96425, 0.4427481, 1.96425, 0.8549618, 1.96425, -3.3358779
0.2318824, -0.0256809, 1.971, -0.0400391, 1.971, -0.9877319, 1.971, -0.2928467, 1.971, 0.4045801, 1.971, 0.9389313, 1.971, -3.4351146
0.2326765, -0.0229953, 1.97775, -0.0435181, 1.97775, -0.9876099, 1.97775, -0.2914429, 1.97775, 0.3740458, 1.97775, 0.6717557, 1.97775, -3.4732823
0.2334706, -0.0169528, 1.9845, -0.043396, 1.9845, -0.9869385, 1.9845, -0.2902832, 1.9845, 0.4503817, 1.9845, 0.5343512, 1.9845, -3.3358779
0.2342647, -0.0102388, 1.99125, -0.0455933, 1.99125, -0.9877319, 1.99125, -0.2887573, 1.99125, 0.5954198, 1.99125, 0.3664122, 1.99125, -3.4122138
0.2350588, -0.005539, 1.998, -0.0444946, 1.998, -0.9857178, 1.998, -0.2891846, 1.998, 0.5801527, 1.998, 0.1526718, 1.998, -3.4274809
0.2358529, -0.0008392, 2.00475, -0.0424194, 2.00475, -0.9849854, 2.00475, -0.2894897, 2.00475, 0.5801527, 2.00475, 0.221374, 2.00475, -3.5648854
0.2366471, -0.0018463, 2.0115, -0.0425415, 2.0115, -0.9869995, 2.0115, -0.2908936, 2.0115, 0.5801527, 2.0115, 0.3129771, 2.0115, -3.5648854
0.2374412, -0.0043641, 2.01825, -0.041687, 2.01825, -0.9867554, 2.01825, -0.2906494, 2.01825, 0.5801527, 2.01825, 0.1755725, 2.01825, -3.5038168
0.2382353, -0.0038605, 2.025, -0.0410156, 2.025, -0.9849243, 2.025, -0.2926025, 2.025, 0.8244275, 2.025, 0.1221374, 2.025, -3.5877862
0.2390294, -0.0048676, 2.03175, -0.0443726, 2.03175, -0.9835815, 2.03175, -0.2868042, 2.03175, 0.9160305, 2.03175, 0.7022901, 2.03175, -3.4045801
0.2398235, -0.0092317, 2.0385, -0.0404663, 2.0385, -0.9815674, 2.0385, -0.2900391, 2.0385, 1.1068702, 2.0385, 0.6641222, 2.0385, -3.5572519
0.2406176, -0.0162814, 2.04525, -0.0391235, 2.04525, -0.9838257, 2.04525, -0.2865601, 2.04525, 1.1832061, 2.04525, 0.7251908, 2.04525, -3.4503818
0.2414118, -0.0162814, 2.052, -0.0402832, 2.052, -0.9833374, 2.052, -0.2887573, 2.052, 1.259542, 2.052, 0.4885496, 2.052, -3.3435113
0.2422059, -0.0172885, 2.05875, -0.0418091, 2.05875, -0.9850464, 2.05875, -0.289856, 2.05875, 1.3129771, 2.05875, 0.3053435, 2.05875, -3.5114503
0.243, -0.0146029, 2.0655, -0.0464478, 2.0655, -0.9867554, 2.0655, -0.2897339, 2.0655, 1.2519084, 2.0655, 0.2977099, 2.0655, -3.4656489
0.2437941, -0.0206455, 2.07225, -0.0427246, 2.07225, -0.986145, 2.07225, -0.2902832, 2.07225, 1.1908396, 2.07225, 0.3587786, 2.07225, -3.6793892
0.2445882, -0.0256809, 2.079, -0.039917, 2.079, -0.9828491, 2.079, -0.2961426, 2.079, 1.2671756, 2.079, 0.4274809, 2.079, -3.5114503
0.2453824, -0.0285344, 2.08575, -0.0351562, 2.08575, -0.9849854, 2.08575, -0.2935791, 2.08575, 1.1908396, 2.08575, 0.2748092, 2.08575, -3.4732823
0.2461765, -0.0271916, 2.0925, -0.0377808, 2.0925, -0.9874878, 2.0925, -0.2926025, 2.0925, 1.3206106, 2.0925, 0.4885496, 2.0925, -3.5572519
0.2469706, -0.0251774, 2.09925, -0.0358276, 2.09925, -0.9854736, 2.09925, -0.2921143, 2.09925, 1.1984733, 2.09925, 0.4732825, 2.09925, -3.4198472
0.2477647, -0.0250095, 2.106, -0.0384521, 2.106, -0.9868164, 2.106, -0.2924805, 2.106, 1.3969465, 2.106, 0.9236641, 2.106, -3.3053436
0.2485588, -0.0226596, 2.11275, -0.0385742, 2.11275, -0.9871826, 2.11275, -0.2956543, 2.11275, 1.1984733, 2.11275, 1.221374, 2.11275, -3.3969467
0.2493529, -0.0199741, 2.1195, -0.0420532, 2.1195, -0.9840698, 2.1195, -0.2907104, 2.1195, 1.2671756, 2.1195, 1.0152671, 2.1195, -3.2824428
0.2501471, -0.0159457, 2.12625, -0.0436401, 2.12625, -0.9863892, 2.12625, -0.2871704, 2.12625, 1.4122137, 2.12625, 1.0229008, 2.12625, -3.389313
0.2509412, -0.0139315, 2.133, -0.0447388, 2.133, -0.9887085, 2.133, -0.2880859, 2.133, 1.2900764, 2.133, 1.1068702, 2.133, -3.3740458
0.2517353, -0.0102388, 2.13975, -0.041626, 2.13975, -0.9863281, 2.13975, -0.2890625, 2.13975, 1.0305344, 2.13975, 0.7633588, 2.13975, -3.2290077
0.2525294, -0.0048676, 2.1465, -0.0414429, 2.1465, -0.9854126, 2.1465, -0.2910156, 2.1465, 0.9923664, 2.1465, 0.6412213, 2.1465, -3.4351146
0.2533235, -0.0011749, 2.15325, -0.0410767, 2.15325, -0.9838257, 2.15325, -0.2879028, 2.15325, 0.9541985, 2.15325, 0.3969466, 2.15325, -3.6030533
0.2541176, -0.002182, 2.16, -0.0422363, 2.16, -0.9848633, 2.16, -0.2879639, 2.16, 1.0839695, 2.16, 0.480916, 2.16, -3.4427481
0.2549118, -0.0109102, 2.16675, -0.0391235, 2.16675, -0.9866943, 2.16675, -0.2931519, 2.16675, 0.9694657, 2.16675, 0.5114504, 2.16675, -3.3129771
0.2557059, -0.011078, 2.1735, -0.0366821, 2.1735, -0.9871216, 2.1735, -0.291687, 2.1735, 1.0305344, 2.1735, 0.5343512, 2.1735, -3.3358779
0.2565, -0.0015106, 2.18025, -0.0369873, 2.18025, -0.9880981, 2.18025, -0.2876587, 2.18025, 1.0763359, 2.18025, 0.6870229, 2.18025, -3.2977099
0.2572941, -0.0043641, 2.187, -0.0368652, 2.187, -0.9850464, 2.187, -0.2860107, 2.187, 0.9541985, 2.187, 0.5877863, 2.187, -3.1984732
0.2580882, -0.0092317, 2.19375, -0.0369263, 2.19375, -0.9868774, 2.19375, -0.2911377, 2.19375, 1.2900764, 2.19375, 0.7480916, 2.19375, -3.1145039
0.2588824, -0.012253, 2.2005, -0.0394287, 2.2005, -0.986145, 2.2005, -0.293457, 2.2005, 1.0992366, 2.2005, 0.8778626, 2.2005, -3.1984732
0.2596765, -0.01561, 2.20725, -0.0394897, 2.20725, -0.9862671, 2.20725, -0.291626, 2.20725, 1.2748091, 2.20725, 0.7557252, 2.20725, -3.1679389
0.2604706, -0.0206455, 2.214, -0.0424194, 2.214, -0.9842529, 2.214, -0.2896118, 2.214, 1.2137405, 2.214, 0.9541985, 2.214, -3.2290077
0.2612647, -0.0238346, 2.22075, -0.0457153, 2.22075, -0.9865112, 2.22075, -0.291626, 2.22075, 1.4503816, 2.22075, 0.7251908, 2.22075, -3.0839694
0.2620588, -0.0260166, 2.2275, -0.0459595, 2.2275, -0.9882812, 2.2275, -0.2857666, 2.2275, 1.4274809, 2.2275, 0.4656489, 2.2275, -3.0687022
0.2628529, -0.0260166, 2.23425, -0.0411377, 2.23425, -0.9868774, 2.23425, -0.2919922, 2.23425, 1.3816794, 2.23425, 0.3435115, 2.23425, -3.2061069
0.2636471, -0.0283665, 2.241, -0.0410156, 2.241, -0.9832764, 2.241, -0.2921753, 2.241, 0.9923664, 2.241, 0.3969466, 2.241, -3.1374047
0.2644412, -0.0260166, 2.24775, -0.0422363, 2.24775, -0.9839478, 2.24775, -0.2879639, 2.24775, 1.1603054, 2.24775, 0.351145, 2.24775, -3.2748091
0.2652353, -0.0243381, 2.2545, -0.0421143, 2.2545, -0.9851074, 2.2545, -0.2856445, 2.2545, 1.1908396, 2.2545, 0.1679389, 2.2545, -3.3587787
0.2660294, -0.0240024, 2.26125, -0.0370483, 2.26125, -0.9871826, 2.26125, -0.2870483, 2.26125, 1.1908396, 2.26125, -0.0076336, 2.26125, -3.2671757
0.2668235, -0.0209812, 2.268, -0.0385132, 2.268, -0.9846191, 2.268, -0.2885132, 2.268, 1.1450381, 2.268, 0.2671756, 2.268, -3.3282442
0.2676176, -0.014435, 2.27475, -0.0357056, 2.27475, -0.9829102, 2.27475, -0.2913208, 2.27475, 1.2290076, 2.27475, 0.2824427, 2.27475, -3.1450381
0.2684118, -0.0092317, 2.2815, -0.0358887, 2.2815, -0.9870605, 2.2815, -0.2893677, 2.2815, 1.259542, 2.2815, 0.2442748, 2.2815, -3.1068702
0.2692059, -0.0048676, 2.28825, -0.0366211, 2.28825, -0.9849243, 2.28825, -0.2932739, 2.28825, 1.1755725, 2.28825, 0.4351145, 2.28825, -3.0229008
0.27, -0.0001678, 2.295, -0.0372314, 2.295, -0.9858398, 2.295, -0.2935791, 2.295, 1.0839695, 2.295, 0.4503817, 2.295, -3.2137403
0.2707941, 0.0025177, 2.30175, -0.0371704, 2.30175, -0.9874268, 2.30175, -0.2900391, 2.30175, 1.1755725, 2.30175, 0.5801527, 2.30175, -3.0534351
0.2715882, 0.0023499, 2.3085, -0.0407104, 2.3085, -0.9892578, 2.3085, -0.2890625, 2.3085, 1.1450381, 2.3085, 0.5954198, 2.3085, -3.1068702
0.2723824, 0.0011749, 2.31525, -0.0397949, 2.31525, -0.9822998, 2.31525, -0.2915039, 2.31525, 1.1832061, 2.31525, 0.7022901, 2.31525, -3.0687022
0.2731765, -0.003357, 2.322, -0.0432739, 2.322, -0.9867554, 2.322, -0.2935791, 2.322, 1.2671756, 2.322, 0.4351145, 2.322, -3
0.2739706, -0.0075532, 2.32875, -0.0412598, 2.32875, -0.9853516, 2.32875, -0.2924194, 2.32875, 1.221374, 2.32875, 0.5343512, 2.32875, -3.0839694
0.2747647, -0.0109102, 2.3355, -0.0396729, 2.3355, -0.9869385, 2.3355, -0.2896118, 2.3355, 1.2442749, 2.3355, 0.4885496, 2.3355, -3.1221373
0.2755588, -0.0109102, 2.34225, -0.0406494, 2.34225, -0.9841309, 2.34225, -0.2908325, 2.34225, 1.3206106, 2.34225, 0.5343512, 2.34225, -3.0763359
0.2763529, -0.0182956, 2.349, -0.0427856, 2.349, -0.9850464, 2.349, -0.2891846, 2.349, 1.3664122, 2.349, 0.5496183, 2.349, -3.0687022
0.2771471, -0.0206455, 2.35575, -0.0400391, 2.35575, -0.9859009, 2.35575, -0.2926025, 2.35575, 1.3969465, 2.35575, 0.5496183, 2.35575, -3.1526718
0.2779412, -0.0193027, 2.3625, -0.0386353, 2.3625, -0.9846802, 2.3625, -0.2942505, 2.3625, 1.0992366, 2.3625, 0.7709923, 2.3625, -3.1526718
0.2787353, -0.0234989, 2.36925, -0.0407715, 2.36925, -0.9841309, 2.36925, -0.2930298, 2.36925, 1.3129771, 2.36925, 0.9312977, 2.36925, -3.1603053
0.2795294, -0.0297093, 2.376, -0.0390015, 2.376, -0.9854126, 2.376, -0.2896729, 2.376, 1.1755725, 2.376, 0.7099237, 2.376, -3.0076337
0.2803235, -0.0273594, 2.38275, -0.0410156, 2.38275, -0.9882812, 2.38275, -0.288269, 2.38275, 1.3587786, 2.38275, 0.9236641, 2.38275, -3.0458016
0.2811176, -0.026688, 2.3895, -0.0447998, 2.3895, -0.9848022, 2.3895, -0.2887573, 2.3895, 1.2824427, 2.3895, 1.1450381, 2.3895, -3.0534351
0.2819118, -0.0243381, 2.39625, -0.0413208, 2.39625, -0.9830933, 2.39625, -0.2919312, 2.39625, 1.259542, 2.39625, 1.2290076, 2.39625, -3.0763359
0.2827059, -0.0234989, 2.403, -0.0404053, 2.403, -0.9846802, 2.403, -0.2893677, 2.403, 1.1908396, 2.403, 1.1679389, 2.403, -3.0458016
0.2835, -0.023331, 2.40975, -0.0380249, 2.40975, -0.9851685, 2.40975, -0.2859497, 2.40975, 1.1068702, 2.40975, 1.0152671, 2.40975, -3.0229008
0.2842941, -0.0167849, 2.4165, -0.043396, 2.4165, -0.9839478, 2.4165, -0.2874146, 2.4165, 1.389313, 2.4165, 0.8015267, 2.4165, -2.9541984
0.2850882, -0.0119173, 2.42325, -0.0415649, 2.42325, -0.9859619, 2.42325, -0.2850952, 2.42325, 1.3740458, 2.42325, 0.9389313, 2.42325, -2.961832
0.2858824, -0.0102388, 2.43, -0.0372925, 2.43, -0.9866943, 2.43, -0.289917, 2.43, 1.351145, 2.43, 1.0076336, 2.43, -2.908397
0.2866765, -0.0075532, 2.43675, -0.0368652, 2.43675, -0.9894409, 2.43675, -0.2924194, 2.43675, 1.3206106, 2.43675, 1.0305344, 2.43675, -3.1450381
0.2874706, -0.0070497, 2.4435, -0.0373535, 2.4435, -0.9866943, 2.4435, -0.2912598, 2.4435, 1.2290076, 2.4435, 0.8015267, 2.4435, -2.8396947
0.2882647, -0.0005035, 2.45025, -0.0408936, 2.45025, -0.984436, 2.45025, -0.2913208, 2.45025, 1.3587786, 2.45025, 0.7557252, 2.45025, -2.9541984
0.2890588, -0.0015106, 2.457, -0.0408936, 2.457, -0.9837646, 2.457, -0.2880249, 2.457, 1.2290076, 2.457, 0.7328244, 2.457, -3.2519083
0.2898529, -0.0038605, 2.46375, -0.0375366, 2.46375, -0.9859619, 2.46375, -0.2893066, 2.46375, 1.5419847, 2.46375, 0.7709923, 2.46375, -3.0763359
0.2906471, -0.0045319, 2.4705, -0.0371704, 2.4705, -0.9830322, 2.4705, -0.2911987, 2.4705, 1.4427481, 2.4705, 0.7022901, 2.4705, -3.2061069
0.2914412, -0.0099031, 2.47725, -0.0420532, 2.47725, -0.9849854, 2.47725, -0.2907715, 2.47725, 1.5877863, 2.47725, 0.6641222, 2.47725, -3.0687022
0.2922353, -0.0151064, 2.484, -0.041748, 2.484, -0.9847412, 2.484, -0.2883911, 2.484, 1.3969465, 2.484, 0.7862595, 2.484, -3.0458016
0.2930294, -0.0135958, 2.49075, -0.0413208, 2.49075, -0.986084, 2.49075, -0.2890625, 2.49075, 1.4885496, 2.49075, 0.7328244, 2.49075, -3.0687022
0.2938235, -0.0137636, 2.4975, -0.0458984, 2.4975, -0.9852905, 2.4975, -0.293396, 2.4975, 1.4351145, 2.4975, 0.480916, 2.4975, -3.1832061
0.2946176, -0.0169528, 2.50425, -0.0436401, 2.50425, -0.9862671, 2.50425, -0.2923584, 2.50425, 1.4427481, 2.50425, 0.3435115, 2.50425, -3.1068702
0.2954118, -0.0203098, 2.511, -0.0420532, 2.511, -0.9868164, 2.511, -0.2919312, 2.511, 1.3664122, 2.511, 0.259542, 2.511, -3.1450381
0.2962059, -0.0243381, 2.51775, -0.0461426, 2.51775, -0.9874268, 2.51775, -0.2892456, 2.51775, 1.4198474, 2.51775, 0.2824427, 2.51775, -3.2137403
0.297, -0.0283665, 2.5245, -0.0458374, 2.5245, -0.9857788, 2.5245, -0.2886353, 2.5245, 1.5419847, 2.5245, 0.1908397, 2.5245, -3.2366412
0.2977941, -0.0290379, 2.53125, -0.0437012, 2.53125, -0.9844971, 2.53125, -0.2888184, 2.53125, 1.3816794, 2.53125, 0.129771, 2.53125, -3.2977099
0.2985882, -0.0293736, 2.538, -0.0394287, 2.538, -0.984314, 2.538, -0.2883911, 2.538, 1.519084, 2.538, 0.2442748, 2.538, -3.3358779
0.2993824, -0.0265202, 2.54475, -0.0429077, 2.54475, -0.9836426, 2.54475, -0.2888794, 2.54475, 1.4351145, 2.54475, 0.2290076, 2.54475, -3.389313
0.3001765, -0.0193027, 2.5515, -0.0443726, 2.5515, -0.9855347, 2.5515, -0.2863159, 2.5515, 1.4503816, 2.5515, 0.0839695, 2.5515, -3.3587787
0.3009706, -0.0191348, 2.55825, -0.043335, 2.55825, -0.9872437, 2.55825, -0.2863159, 2.55825, 1.6412214, 2.55825, 0.1221374, 2.55825, -3.2977099
0.3017647, -0.0092317, 2.565, -0.0426636, 2.565, -0.9885254, 2.565, -0.288269, 2.565, 1.6793894, 2.565, 0.2061069, 2.565, -3.259542
0.3025588, -0.0015106, 2.57175, -0.0419922, 2.57175, -0.9882812, 2.57175, -0.2891846, 2.57175, 1.7022901, 2.57175, 0.4122137, 2.57175, -3.2824428
0.3033529, -0.0005035, 2.5785, -0.0380859, 2.5785, -0.9854126, 2.5785, -0.2861938, 2.5785, 1.5572519, 2.5785, 0.5114504, 2.5785, -3.4656489
0.3041471, -0.0038605, 2.58525, -0.0377808, 2.58525, -0.9901733, 2.58525, -0.2908936, 2.58525, 1.5877863, 2.58525, 0.480916, 2.58525, -3.4503818
0.3049412, -0.0036927, 2.592, -0.0391846, 2.592, -0.9891357, 2.592, -0.2885742, 2.592, 1.5801526, 2.592, 0.8625954, 2.592, -3.5038168
0.3057353, -0.0095674, 2.59875, -0.0379028, 2.59875, -0.9859009, 2.59875, -0.2906494, 2.59875, 1.6412214, 2.59875, 0.908397, 2.59875, -3.2442749
0.3065294, -0.0132601, 2.6055, -0.0394897, 2.6055, -0.9852905, 2.6055, -0.2869263, 2.6055, 1.389313, 2.6055, 0.9312977, 2.6055, -3.129771
0.3073235, -0.0095674, 2.61225, -0.0426025, 2.61225, -0.9869385, 2.61225, -0.2860107, 2.61225, 1.6259542, 2.61225, 0.961832, 2.61225, -3.0839694
0.3081176, -0.0092317, 2.619, -0.0409546, 2.619, -0.9852295, 2.619, -0.2890015, 2.619, 1.3358779, 2.619, 0.740458, 2.619, -3.1068702
0.3089118, -0.0109102, 2.62575, -0.039978, 2.62575, -0.9836426, 2.62575, -0.2853394, 2.62575, 1.259542, 2.62575, 0.8167939, 2.62575, -3.0534351
0.3097059, -0.018967, 2.6325, -0.0414429, 2.6325, -0.984436, 2.6325, -0.2876587, 2.6325, 1.2977099, 2.6325, 0.6335878, 2.6325, -3.1679389
0.3105, -0.0250095, 2.63925, -0.0459595, 2.63925, -0.9851685, 2.63925, -0.2872314, 2.63925, 1.1908396, 2.63925, 0.6259542, 2.63925, -3.1526718
0.3112941, -0.0240024, 2.646, -0.0423584, 2.646, -0.9877319, 2.646, -0.2836304, 2.646, 1.2824427, 2.646, 0.648855, 2.646, -3.2290077
0.3120882, -0.0310521, 2.65275, -0.0430908, 2.65275, -0.987854, 2.65275, -0.28302, 2.65275, 1.1145039, 2.65275, 0.6335878, 2.65275, -3.3053436
0.3128824, -0.0276951, 2.6595, -0.0413208, 2.6595, -0.984375, 2.6595, -0.2856445, 2.6595, 1.1832061, 2.6595, 0.778626, 2.6595, -3.2442749
0.3136765, -0.0206455, 2.66625, -0.041626, 2.66625, -0.9855347, 2.66625, -0.2897949, 2.66625, 1.2442749, 2.66625, 0.6870229, 2.66625, -3.3282442
0.3144706, -0.018967, 2.673, -0.045166, 2.673, -0.9852295, 2.673, -0.288147, 2.673, 1.3206106, 2.673, 0.7022901, 2.673, -3.2519083
0.3152647, -0.0204776, 2.67975, -0.0449219, 2.67975, -0.9862061, 2.67975, -0.2858887, 2.67975, 1.1221374, 2.67975, 0.6259542, 2.67975, -3.1755726
0.3160588, -0.018967, 2.6865, -0.043396, 2.6865, -0.9838867, 2.6865, -0.2869263, 2.6865, 1.1068702, 2.6865, 0.4503817, 2.6865, -3.1832061
0.3168529, -0.012253, 2.69325, -0.0426025, 2.69325, -0.9839478, 2.69325, -0.2872314, 2.69325, 1.129771, 2.69325, 0.3587786, 2.69325, -3.2900763
0.3176471, -0.0105745, 2.7, -0.0407715, 2.7, -0.9890747, 2.7, -0.2875366, 2.7, 1.091603, 2.7, 0.1679389, 2.7, -3.2748091
0.3184412, -0.0082246, 2.70675, -0.0380249, 2.70675, -0.9854126, 2.70675, -0.2880249, 2.70675, 1.1221374, 2.70675, 0.1908397, 2.70675, -3.3206108
0.3192353, -0.0085603, 2.7135, -0.0377808, 2.7135, -0.987793, 2.7135, -0.2919922, 2.7135, 1.3587786, 2.7135, 0.3129771, 2.7135, -3.259542
0.3200294, -0.0062104, 2.72025, -0.0344849, 2.72025, -0.9862671, 2.72025, -0.2929688, 2.72025, 1.4198474, 2.72025, 0.6259542, 2.72025, -3.038168
0.3208235, -0.0078889, 2.727, -0.0383911, 2.727, -0.9857788, 2.727, -0.2909546, 2.727, 1.3053435, 2.727, 0.4732825, 2.727, -3.0839694
0.3216176, -0.0085603, 2.73375, -0.0401611, 2.73375, -0.9853516, 2.73375, -0.2859497, 2.73375, 1.2671756, 2.73375, 0.7099237, 2.73375, -3.1068702
0.3224118, -0.0082246, 2.7405, -0.0441895, 2.7405, -0.9874268, 2.7405, -0.2883301, 2.7405, 1.3740458, 2.7405, 0.8244275, 2.7405, -3.1450381
0.3232059, -0.0082246, 2.74725, -0.0435791, 2.74725, -0.9877319, 2.74725, -0.2877197, 2.74725, 1.1068702, 2.74725, 0.7557252, 2.74725, -3.1221373
0.324, -0.0090639, 2.754, -0.0455322, 2.754, -0.984436, 2.754, -0.2838135, 2.754, 1.1526718, 2.754, 0.6793893, 2.754, -3.1603053
0.3247941, -0.012253, 2.76075, -0.0432739, 2.76075, -0.9860229, 2.76075, -0.2850342, 2.76075, 1.2900764, 2.76075, 0.5267175, 2.76075, -3.2366412
0.3255882, -0.0135958, 2.7675, -0.0447388, 2.7675, -0.9855957, 2.7675, -0.2902832, 2.7675, 1.0610687, 2.7675, 0.480916, 2.7675, -3.3816793
0.3263824, -0.0149386, 2.77425, -0.0415039, 2.77425, -0.9854736, 2.77425, -0.2860107, 2.77425, 0.9770992, 2.77425, 0.648855, 2.77425, -3.2290077
0.3271765, -0.0149386, 2.781, -0.0406494, 2.781, -0.9852295, 2.781, -0.2886963, 2.781, 0.9923664, 2.781, 0.4198473, 2.781, -3.1221373
0.3279706, -0.0181277, 2.78775, -0.0407715, 2.78775, -0.987793, 2.78775, -0.2854004, 2.78775, 1.0839695, 2.78775, 0.610687, 2.78775, -3.2442749
0.3287647, -0.0198062, 2.7945, -0.0438843, 2.7945, -0.9882812, 2.7945, -0.2875977, 2.7945, 1.0152671, 2.7945, 0.6641222, 2.7945, -3.1755726
0.3295588, -0.024506, 2.80125, -0.0419312, 2.80125, -0.9866943, 2.80125, -0.2868042, 2.80125, 1.0534351, 2.80125, 0.8244275, 2.80125, -3.1068702
0.3303529, -0.0290379, 2.808, -0.0431519, 2.808, -0.9863892, 2.808, -0.2911987, 2.808, 1.0763359, 2.808, 0.8320611, 2.808, -3.221374
0.3311471, -0.0263523, 2.81475, -0.0404663, 2.81475, -0.986084, 2.81475, -0.2888794, 2.81475, 1.0534351, 2.81475, 0.7099237, 2.81475, -3.129771
0.3319412, -0.0270237, 2.8215, -0.0369263, 2.8215, -0.9851685, 2.8215, -0.2884521, 2.8215, 1.0610687, 2.8215, 0.5648855, 2.8215, -3.221374
0.3327353, -0.0223239, 2.82825, -0.0392456, 2.82825, -0.9862061, 2.82825, -0.2902832, 2.82825, 1.1374046, 2.82825, 0.5343512, 2.82825, -3.259542
0.3335294, -0.012253, 2.835, -0.0390625, 2.835, -0.9853516, 2.835, -0.2908325, 2.835, 1.0610687, 2.835, 0.9312977, 2.835, -3.2290077
0.3343235, -0.0159457, 2.84175, -0.0413208, 2.84175, -0.9862671, 2.84175, -0.2890625, 2.84175, 0.9465649, 2.84175, 0.8931298, 2.84175, -3.1450381
0.3351176, -0.0119173, 2.8485, -0.0419312, 2.8485, -0.987793, 2.8485, -0.2925415, 2.8485, 0.870229, 2.8485, 0.9923664, 2.8485, -3.2137403
0.3359118, -0.0083925, 2.85525, -0.0422363, 2.85525, -0.9859619, 2.85525, -0.2880249, 2.85525, 0.9389313, 2.85525, 0.9541985, 2.85525, -3.2824428
0.3367059, 0.0052033, 2.862, -0.0391846, 2.862, -0.9851685, 2.862, -0.2883301, 2.862, 0.9236641, 2.862, 0.8091603, 2.862, -3.2519083
0.3375, 0.0090639, 2.86875, -0.0429688, 2.86875, -0.9862671, 2.86875, -0.2892456, 2.86875, 0.9923664, 2.86875, 1.0076336, 2.86875, -3.1832061
0.3382941, 0.0065461, 2.8755, -0.0460205, 2.8755, -0.984314, 2.8755, -0.2889404, 2.8755, 1.1603054, 2.8755, 0.7251908, 2.8755, -3.2977099
0.3390882, 0.0057069, 2.88225, -0.0425415, 2.88225, -0.9854736, 2.88225, -0.2868042, 2.88225, 1.129771, 2.88225, 0.7022901, 2.88225, -3.1832061
0.3398824, 0.0031891, 2.889, -0.0446167, 2.889, -0.9866943, 2.889, -0.2904663, 2.889, 1.1145039, 2.889, 0.7022901, 2.889, -3.351145
0.3406765, -0.0072175, 2.89575, -0.0405273, 2.89575, -0.9839478, 2.89575, -0.2909546, 2.89575, 0.9847328, 2.89575, 0.6412213, 2.89575, -3.2290077
0.3414706, -0.0105745, 2.9025, -0.0397949, 2.9025, -0.9837036, 2.9025, -0.2915039, 2.9025, 0.961832, 2.9025, 0.4045801, 2.9025, -3.3206108
0.3422647, -0.0139315, 2.90925, -0.0387573, 2.90925, -0.9868164, 2.90925, -0.2914429, 2.90925, 0.9847328, 2.90925, 0.5267175, 2.90925, -3.3282442
0.3430588, -0.0203098, 2.916, -0.0370483, 2.916, -0.9873047, 2.916, -0.2923584, 2.916, 1.2442749, 2.916, 0.5038168, 2.916, -3.3358779
0.3438529, -0.0236667, 2.92275, -0.0372314, 2.92275, -0.989563, 2.92275, -0.2914429, 2.92275, 1.2137405, 2.92275, 0.4885496, 2.92275, -3.3664122
0.3446471, -0.018967, 2.9295, -0.0413818, 2.9295, -0.9844971, 2.9295, -0.2915039, 2.9295, 1.1374046, 2.9295, 0.5725191, 2.9295, -3.2900763
0.3454412, -0.0182956, 2.93625, -0.0449829, 2.93625, -0.9842529, 2.93625, -0.2883301, 2.93625, 1.2671756, 2.93625, 0.5114504, 2.93625, -3.221374
0.3462353, -0.0226596, 2.943, -0.0424805, 2.943, -0.9876099, 2.943, -0.2885132, 2.943, 0.9847328, 2.943, 0.480916, 2.943, -3.2290077
0.3470294, -0.0196384, 2.94975, -0.0446777, 2.94975, -0.987793, 2.94975, -0.288147, 2.94975, 1.1603054, 2.94975, 0.7938932, 2.94975, -3.3816793
0.3478235, -0.0193027, 2.9565, -0.0411987, 2.9565, -0.9869385, 2.9565, -0.2872925, 2.9565, 1.0305344, 2.9565, 0.8244275, 2.9565, -3.3740458
0.3486176, -0.0203098, 2.96325, -0.0405273, 2.96325, -0.9879761, 2.96325, -0.2879028, 2.96325, 1.2671756, 2.96325, 0.8396947, 2.96325, -3.3206108
0.3494118, -0.021149, 2.97, -0.0401001, 2.97, -0.9846191, 2.97, -0.2874146, 2.97, 1.0839695, 2.97, 1.1526718, 2.97, -3.259542
0.3502059, -0.0152743, 2.97675, -0.0394897, 2.97675, -0.9849854, 2.97675, -0.2902222, 2.97675, 1.1450381, 2.97675, 1.0763359, 2.97675, -3.2977099
0.351, -0.0127565, 2.9835, -0.039978, 2.9835, -0.9855347, 2.9835, -0.2872314, 2.9835, 1.2137405, 2.9835, 1.2366412, 2.9835, -3.221374
0.3517941, -0.0075532, 2.99025, -0.0412598, 2.99025, -0.9838257, 2.99025, -0.2859497, 2.99025, 1.221374, 2.99025, 1.1145039, 2.99025, -3.0076337
0.3525882, -0.0078889, 2.997, -0.043457, 2.997, -0.9848022, 2.997, -0.2893066, 2.997, 1.2442749, 2.997, 1.2748091, 2.997, -3.0763359
0.3533824, -0.0082246, 3.00375, -0.0408325, 3.00375, -0.9869385, 3.00375, -0.2880249, 3.00375, 1.0458015, 3.00375, 0.908397, 3.00375, -3.0076337
0.3541765, -0.0043641, 3.0105, -0.039856, 3.0105, -0.9869995, 3.0105, -0.2858276, 3.0105, 1.0458015, 3.0105, 1.0152671, 3.0105, -3.0305343
0.3549706, -0.0082246, 3.01725, -0.0446167, 3.01725, -0.9869995, 3.01725, -0.2868652, 3.01725, 1.2061069, 3.01725, 1.0687023, 3.01725, -3.0152671
0.3557647, -0.0095674, 3.024, -0.043335, 3.024, -0.9838867, 3.024, -0.2908936, 3.024, 1.2442749, 3.024, 1.1603054, 3.024, -3.0992367
0.3565588, -0.0112459, 3.03075, -0.0405273, 3.03075, -0.9840088, 3.03075, -0.2885132, 3.03075, 1.1068702, 3.03075, 1.0839695, 3.03075, -3.038168
0.3573529, -0.0129244, 3.0375, -0.0401611, 3.0375, -0.9855957, 3.0375, -0.2879028, 3.0375, 1.3435115, 3.0375, 1.1221374, 3.0375, -3.091603
0.3581471, -0.0206455, 3.04425, -0.0411377, 3.04425, -0.986145, 3.04425, -0.2875366, 3.04425, 1.1832061, 3.04425, 0.8931298, 3.04425, -3.259542
0.3589412, -0.0320592, 3.051, -0.0412598, 3.051, -0.9866943, 3.051, -0.286438, 3.051, 1.1755725, 3.051, 0.7862595, 3.051, -3.0687022
0.3597353, -0.0360876, 3.05775, -0.0439453, 3.05775, -0.9871826, 3.05775, -0.2866821, 3.05775, 1.259542, 3.05775, 0.8396947, 3.05775, -3.1526718
0.3605294, -0.0344091, 3.0645, -0.0415649, 3.0645, -0.9867554, 3.0645, -0.2877197, 3.0645, 1.129771, 3.0645, 0.740458, 3.0645, -3.1068702
0.3613235, -0.0337377, 3.07125, -0.0383911, 3.07125, -0.9862061, 3.07125, -0.2872925, 3.07125, 1.1068702, 3.07125, 0.4580153, 3.07125, -3.0610688
0.3621176, -0.0317235, 3.078, -0.0361938, 3.078, -0.986145, 3.078, -0.2902832, 3.078, 0.9312977, 3.078, 0.610687, 3.078, -3.221374
0.3629118, -0.0203098, 3.08475, -0.0388184, 3.08475, -0.982605, 3.08475, -0.2932129, 3.08475, 1, 3.08475, 0.7862595, 3.08475, -3.129771
0.3637059, -0.012253, 3.0915, -0.0368042, 3.0915, -0.9830933, 3.0915, -0.2879639, 3.0915, 0.9160305, 3.0915, 0.7557252, 3.0915, -3.1908398
0.3645, -0.0092317, 3.09825, -0.0372925, 3.09825, -0.9832764, 3.09825, -0.2855835, 3.09825, 1.0458015, 3.09825, 0.6641222, 3.09825, -3.129771
0.3652941, -0.0078889, 3.105, -0.0408325, 3.105, -0.9848022, 3.105, -0.2902832, 3.105, 1.0687023, 3.105, 0.8091603, 3.105, -3.0610688
0.3660882, -0.0129244, 3.11175, -0.0421753, 3.11175, -0.9867554, 3.11175, -0.2903442, 3.11175, 1.1374046, 3.11175, 0.7251908, 3.11175, -3.091603
0.3668824, -0.0115816, 3.1185, -0.0437622, 3.1185, -0.9875488, 3.1185, -0.2903442, 3.1185, 1.0076336, 3.1185, 0.9541985, 3.1185, -2.9847329
0.3676765, -0.0152743, 3.12525, -0.0424194, 3.12525, -0.9851685, 3.12525, -0.2922974, 3.12525, 0.8854962, 3.12525, 0.8091603, 3.12525, -3.1221373
0.3684706, -0.0095674, 3.132, -0.043457, 3.132, -0.9883423, 3.132, -0.2909546, 3.132, 1.0076336, 3.132, 0.7251908, 3.132, -3.129771
0.3692647, -0.0062104, 3.13875, -0.0411987, 3.13875, -0.9854126, 3.13875, -0.2908936, 3.13875, 0.9389313, 3.13875, 0.9160305, 3.13875, -3.1145039
0.3700588, -0.0065461, 3.1455, -0.0396729, 3.1455, -0.9858398, 3.1455, -0.2926025, 3.1455, 0.9847328, 3.1455, 0.8778626, 3.1455, -3.1450381
0.3708529, -0.0031891, 3.15225, -0.0375366, 3.15225, -0.9839478, 3.15225, -0.2901001, 3.15225, 0.7633588, 3.15225, 0.7022901, 3.15225, -3.2442749
0.3716471, -0.0052033, 3.159, -0.0391846, 3.159, -0.9851685, 3.159, -0.2911987, 3.159, 0.8854962, 3.159, 0.8473282, 3.159, -3.221374
0.3724412, -0.0035248, 3.16575, -0.0394287, 3.16575, -0.9847412, 3.16575, -0.293457, 3.16575, 1.0458015, 3.16575, 0.9160305, 3.16575, -3.0610688
0.3732353, -0.0068818, 3.1725, -0.0441895, 3.1725, -0.986145, 3.1725, -0.2924805, 3.1725, 1.091603, 3.1725, 0.9923664, 3.1725, -2.9694657
0.3740294, -0.0109102, 3.17925, -0.0438232, 3.17925, -0.9838867, 3.17925, -0.2908325, 3.17925, 1.1145039, 3.17925, 0.870229, 3.17925, -3.2671757
0.3748235, -0.0135958, 3.186, -0.0409546, 3.186, -0.9832764, 3.186, -0.2908325, 3.186, 1.1068702, 3.186, 0.9160305, 3.186, -3.2519083
0.3756176, -0.0154421, 3.19275, -0.0408936, 3.19275, -0.9830933, 3.19275, -0.2938843, 3.19275, 1.1908396, 3.19275, 0.9847328, 3.19275, -3.129771
0.3764118, -0.0203098, 3.1995, -0.0430908, 3.1995, -0.9867554, 3.1995, -0.2891846, 3.1995, 1.1755725, 3.1995, 0.7022901, 3.1995, -3.3053436
0.3772059, -0.0203098, 3.20625, -0.0454102, 3.20625, -0.9882202, 3.20625, -0.2896118, 3.20625, 1.3282443, 3.20625, 0.7557252, 3.20625, -3.2748091
0.378, -0.0203098, 3.213, -0.0430908, 3.213, -0.9870605, 3.213, -0.2891846, 3.213, 1.1679389, 3.213, 0.480916, 3.213, -3.3969467
0.3787941, -0.0216526, 3.21975, -0.0427856, 3.21975, -0.9871826, 3.21975, -0.2906494, 3.21975, 1.5343511, 3.21975, 0.6412213, 3.21975, -3.3816793
0.3795882, -0.0243381, 3.2265, -0.0442505, 3.2265, -0.9862061, 3.2265, -0.2910156, 3.2265, 1.5038168, 3.2265, 0.6564885, 3.2265, -3.3129771
0.3803824, -0.0288701, 3.23325, -0.0427856, 3.23325, -0.9868774, 3.23325, -0.2921143, 3.23325, 1.5725191, 3.23325, 0.6335878, 3.23325, -3.5267177
0.3811765, -0.0273594, 3.24, -0.0407104, 3.24, -0.987915, 3.24, -0.2927856, 3.24, 1.5267175, 3.24, 0.7022901, 3.24, -3.4274809
0.3819706, -0.0243381, 3.24675, -0.0384521, 3.24675, -0.9855957, 3.24675, -0.291748, 3.24675, 1.8167939, 3.24675, 0.8091603, 3.24675, -3.3435113
0.3827647, -0.024506, 3.2535, -0.0415039, 3.2535, -0.9842529, 3.2535, -0.2919312, 3.2535, 1.6564885, 3.2535, 0.870229, 3.2535, -3.2366412
0.3835588, -0.0172885, 3.26025, -0.0404663, 3.26025, -0.9873657, 3.26025, -0.2895508, 3.26025, 1.6641221, 3.26025, 0.7099237, 3.26025, -3.3435113
0.3843529, -0.012253, 3.267, -0.0371704, 3.267, -0.9871826, 3.267, -0.2909546, 3.267, 1.5648855, 3.267, 0.7557252, 3.267, -3.3206108
0.3851471, -0.0075532, 3.27375, -0.0371704, 3.27375, -0.9883423, 3.27375, -0.2895508, 3.27375, 1.4961832, 3.27375, 0.8473282, 3.27375, -3.0076337
0.3859412, -0.002182, 3.2805, -0.0373535, 3.2805, -0.9848633, 3.2805, -0.2901611, 3.2805, 1.5572519, 3.2805, 0.8931298, 3.2805, -3.1374047
0.3867353, -0.0030213, 3.28725, -0.0357666, 3.28725, -0.9846191, 3.28725, -0.2908325, 3.28725, 1.5114504, 3.28725, 0.8931298, 3.28725, -3.0687022
0.3875294, -0.0015106, 3.294, -0.0380859, 3.294, -0.9841919, 3.294, -0.2891235, 3.294, 1.2366412, 3.294, 0.961832, 3.294, -3.1145039
0.3883235, -0.0035248, 3.30075, -0.0408325, 3.30075, -0.9848633, 3.30075, -0.2913208, 3.30075, 1.4351145, 3.30075, 1.0229008, 3.30075, -3.0534351
0.3891176, -0.0035248, 3.3075, -0.0442505, 3.3075, -0.9848633, 3.3075, -0.2903442, 3.3075, 1.0839695, 3.3075, 1.0534351, 3.3075, -3.0229008
0.3899118, -0.0048676, 3.31425, -0.0443115, 3.31425, -0.987915, 3.31425, -0.2876587, 3.31425, 1.0763359, 3.31425, 1.0305344, 3.31425, -3
0.3907059, -0.0149386, 3.321, -0.0448608, 3.321, -0.9876709, 3.321, -0.2886963, 3.321, 1.1068702, 3.321, 1.0152671, 3.321, -3.129771
0.3915, -0.0139315, 3.32775, -0.0404663, 3.32775, -0.9864502, 3.32775, -0.2891235, 3.32775, 1.0992366, 3.32775, 0.8549618, 3.32775, -3.0610688
0.3922941, -0.0149386, 3.3345, -0.0395508, 3.3345, -0.9871826, 3.3345, -0.2904663, 3.3345, 1.2366412, 3.3345, 0.8320611, 3.3345, -3.1526718
0.3930882, -0.0169528, 3.34125, -0.0411987, 3.34125, -0.9835205, 3.34125, -0.2894287, 3.34125, 1.2671756, 3.34125, 0.7633588, 3.34125, -3.2519083
0.3938824, -0.0216526, 3.348, -0.0408325, 3.348, -0.9818115, 3.348, -0.2893066, 3.348, 1.0610687, 3.348, 0.8625954, 3.348, -3.1908398
0.3946765, -0.0216526, 3.35475, -0.0393677, 3.35475, -0.9818726, 3.35475, -0.2915649, 3.35475, 1.2290076, 3.35475, 0.7938932, 3.35475, -3.1450381
0.3954706, -0.0263523, 3.3615, -0.0401611, 3.3615, -0.9862061, 3.3615, -0.288208, 3.3615, 1.1068702, 3.3615, 0.8473282, 3.3615, -3.2290077
0.3962647, -0.027863, 3.36825, -0.0374146, 3.36825, -0.9880371, 3.36825, -0.2893066, 3.36825, 1.2900764, 3.36825, 0.8931298, 3.36825, -3.1755726
0.3970588, -0.0305486, 3.375, -0.039856, 3.375, -0.9883423, 3.375, -0.2880859, 3.375, 1.5648855, 3.375, 0.870229, 3.375, -3.3129771
0.3978529, -0.0273594, 3.38175, -0.0425415, 3.38175, -0.9894409, 3.38175, -0.2901001, 3.38175, 1.2900764, 3.38175, 0.8549618, 3.38175, -3.3740458
0.3986471, -0.0240024, 3.3885, -0.0421143, 3.3885, -0.9848633, 3.3885, -0.2888794, 3.3885, 1.4122137, 3.3885, 0.8244275, 3.3885, -3.221374
0.3994412, -0.0216526, 3.39525, -0.041626, 3.39525, -0.9837036, 3.39525, -0.2905273, 3.39525, 1.3129771, 3.39525, 0.7862595, 3.39525, -3.2519083
0.4002353, -0.0135958, 3.402, -0.041626, 3.402, -0.9839478, 3.402, -0.2904053, 3.402, 1.4885496, 3.402, 0.5725191, 3.402, -3.1526718
0.4010294, -0.0062104, 3.40875, -0.0415039, 3.40875, -0.9855347, 3.40875, -0.2871704, 3.40875, 1.5801526, 3.40875, 0.6641222, 3.40875, -3.3969467
0.4018235, -0.0035248, 3.4155, -0.0396118, 3.4155, -0.9877319, 3.4155, -0.2908936, 3.4155, 1.4885496, 3.4155, 0.5954198, 3.4155, -3.351145
0.4026176, 0.0015106, 3.42225, -0.0380859, 3.42225, -0.9850464, 3.42225, -0.2911377, 3.42225, 1.4351145, 3.42225, 0.6412213, 3.42225, -3.3282442
0.4034118, 0.0062104, 3.429, -0.0386353, 3.429, -0.9879761, 3.429, -0.291626, 3.429, 1.4274809, 3.429, 0.610687, 3.429, -3.3664122
0.4042059, 0.0001678, 3.43575, -0.0385742, 3.43575, -0.9868164, 3.43575, -0.2930298, 3.43575, 1.4122137, 3.43575, 0.6335878, 3.43575, -3.2748091
0.405, -0.0050355, 3.4425, -0.0415649, 3.4425, -0.989502, 3.4425, -0.288147, 3.4425, 1.5725191, 3.4425, 0.6030535, 3.4425, -3.3282442
0.4057941, -0.0068818, 3.44925, -0.0368652, 3.44925, -0.9858398, 3.44925, -0.2863159, 3.44925, 1.6335878, 3.44925, 0.6335878, 3.44925, -3.3587787
0.4065882, -0.0068818, 3.456, -0.0383301, 3.456, -0.9862671, 3.456, -0.2893677, 3.456, 1.6183206, 3.456, 0.7480916, 3.456, -3.2137403
0.4073824, -0.0077211, 3.46275, -0.0419312, 3.46275, -0.9841309, 3.46275, -0.2854614, 3.46275, 1.519084, 3.46275, 0.8091603, 3.46275, -3.3587787
0.4081765, -0.0119173, 3.4695, -0.0426025, 3.4695, -0.9877319, 3.4695, -0.2868652, 3.4695, 1.5038168, 3.4695, 0.8244275, 3.4695, -3.519084
0.4089706, -0.0166171, 3.47625, -0.0448608, 3.47625, -0.9851074, 3.47625, -0.2874756, 3.47625, 1.519084, 3.47625, 0.648855, 3.47625, -3.4274809
0.4097647, -0.01561, 3.483, -0.0487061, 3.483, -0.9834595, 3.483, -0.2869873, 3.483, 1.610687, 3.483, 0.5496183, 3.483, -3.6183207
0.4105588, -0.0149386, 3.48975, -0.0449219, 3.48975, -0.9844971, 3.48975, -0.2913818, 3.48975, 1.6259542, 3.48975, 0.6259542, 3.48975, -3.4274809
0.4113529, -0.018967, 3.4965, -0.0438843, 3.4965, -0.9855347, 3.4965, -0.2932739, 3.4965, 1.7251909, 3.4965, 0.4198473, 3.4965, -3.4198472
0.4121471, -0.0226596, 3.50325, -0.041687, 3.50325, -0.9838867, 3.50325, -0.2944946, 3.50325, 1.6259542, 3.50325, 0.2748092, 3.50325, -3.6412213
0.4129412, -0.0219883, 3.51, -0.0366211, 3.51, -0.982605, 3.51, -0.2929688, 3.51, 1.5801526, 3.51, 0.3664122, 3.51, -3.610687
0.4137353, -0.0203098, 3.51675, -0.0360107, 3.51675, -0.9863892, 3.51675, -0.2930908, 3.51675, 1.7251909, 3.51675, 0.6183206, 3.51675, -3.5954199
0.4145294, -0.0250095, 3.5235, -0.03479, 3.5235, -0.986084, 3.5235, -0.2935181, 3.5235, 1.778626, 3.5235, 0.6641222, 3.5235, -3.5725191
0.4153235, -0.0253452, 3.53025, -0.0339355, 3.53025, -0.9893799, 3.53025, -0.291687, 3.53025, 1.7328244, 3.53025, 0.8167939, 3.53025, -3.4122138
0.4161176, -0.0184634, 3.537, -0.036377, 3.537, -0.9855957, 3.537, -0.2910767, 3.537, 1.6793894, 3.537, 0.9694657, 3.537, -3.3358779
0.4169118, -0.012253, 3.54375, -0.039856, 3.54375, -0.9870605, 3.54375, -0.2921143, 3.54375, 1.6412214, 3.54375, 0.961832, 3.54375, -3.259542
0.4177059, -0.0191348, 3.5505, -0.0474243, 3.5505, -0.9866333, 3.5505, -0.2886963, 3.5505, 1.610687, 3.5505, 0.8015267, 3.5505, -3.2137403
0.4185, -0.0182956, 3.55725, -0.0484619, 3.55725, -0.9891968, 3.55725, -0.2869873, 3.55725, 1.5954199, 3.55725, 0.6793893, 3.55725, -3.3129771
0.4192941, -0.0129244, 3.564, -0.0467529, 3.564, -0.9859009, 3.564, -0.2872925, 3.564, 1.5496184, 3.564, 0.5725191, 3.564, -3.6412213
0.4200882, -0.0115816, 3.57075, -0.0467529, 3.57075, -0.9870605, 3.57075, -0.2927856, 3.57075, 1.0305344, 3.57075, -0.0152672, 3.57075, -3.870229
0.4208824, -0.0058747, 3.5775, -0.0482788, 3.5775, -0.9858398, 3.5775, -0.2887573, 3.5775, 0.9312977, 3.5775, -0.3206107, 3.5775, -4.0458016
0.4216765, -0.0052033, 3.58425, -0.0494995, 3.58425, -0.9883423, 3.58425, -0.293335, 3.58425, 0.7938932, 3.58425, -0.1145038, 3.58425, -4.1755724
0.4224706, -0.0062104, 3.591, -0.0505371, 3.591, -0.989624, 3.591, -0.295105, 3.591, 0.8320611, 3.591, -0.2671756, 3.591, -4.0839696
0.4232647, -0.0085603, 3.59775, -0.043457, 3.59775, -0.9874878, 3.59775, -0.2880249, 3.59775, 1, 3.59775, -0.2290076, 3.59775, -4.2366414
0.4240588, -0.0142672, 3.6045, -0.0419922, 3.6045, -0.9845581, 3.6045, -0.2888794, 3.6045, 1.1145039, 3.6045, -0.259542, 3.6045, -4.3740458
0.4248529, -0.0216526, 3.61125, -0.0423584, 3.61125, -0.9819946, 3.61125, -0.291748, 3.61125, 1.129771, 3.61125, -0.4885496, 3.61125, -4.4351144
0.4256471, -0.0218204, 3.618, -0.0380859, 3.618, -0.9822388, 3.618, -0.2961426, 3.618, 0.9770992, 3.618, -0.3740458, 3.618, -4.3358779
0.4264412, -0.0171206, 3.62475, -0.0345459, 3.62475, -0.9874268, 3.62475, -0.2965698, 3.62475, 1.2061069, 3.62475, -0.0076336, 3.62475, -4.2671757
0.4272353, -0.014435, 3.6315, -0.032959, 3.6315, -0.9873047, 3.6315, -0.293335, 3.6315, 1.1450381, 3.6315, 0.3969466, 3.6315, -4.2290077
0.4280294, -0.0176242, 3.63825, -0.0390015, 3.63825, -0.9869995, 3.63825, -0.2891846, 3.63825, 1.0992366, 3.63825, 0.0992366, 3.63825, -4.4427481
0.4288235, -0.01561, 3.645, -0.0436401, 3.645, -0.9849243, 3.645, -0.2924194, 3.645, 1.1679389, 3.645, -0.2519084, 3.645, -4.4580154
0.4296176, -0.0229953, 3.65175, -0.0466919, 3.65175, -0.9859009, 3.65175, -0.2909546, 3.65175, 1.389313, 3.65175, -0.4961832, 3.65175, -4.8625956
0.4304118, -0.0263523, 3.6585, -0.0447388, 3.6585, -0.9889526, 3.6585, -0.2927246, 3.6585, 1.3587786, 3.6585, -0.4580153, 3.6585, -4.6335878
0.4312059, -0.0229953, 3.66525, -0.0401001, 3.66525, -0.9885254, 3.66525, -0.2918701, 3.66525, 1.3587786, 3.66525, -0.3435115, 3.66525, -4.8167939
0.432, -0.0218204, 3.672, -0.0361938, 3.672, -0.9889526, 3.672, -0.2965088, 3.672, 1.3969465, 3.672, -0.4427481, 3.672, -4.6412215
0.4327941, -0.0193027, 3.67875, -0.038147, 3.67875, -0.9893799, 3.67875, -0.2962036, 3.67875, 1.5725191, 3.67875, -0.4122137, 3.67875, -4.7099237
0.4335882, -0.0152743, 3.6855, -0.0410156, 3.6855, -0.9872437, 3.6855, -0.2949219, 3.6855, 1.5419847, 3.6855, -0.1832061, 3.6855, -4.9007635
0.4343824, -0.0077211, 3.69225, -0.0422363, 3.69225, -0.9857178, 3.69225, -0.2998657, 3.69225, 1.4961832, 3.69225, -0.3282443, 3.69225, -4.7709923
0.4351765, -0.0001678, 3.699, -0.0407715, 3.699, -0.9849854, 3.699, -0.3019409, 3.699, 1.4961832, 3.699, -0.1450382, 3.699, -4.7557254
0.4359706, 0.0006714, 3.70575, -0.0487061, 3.70575, -0.9855957, 3.70575, -0.3002319, 3.70575, 1.6564885, 3.70575, -0.5419847, 3.70575, -5.1145039
0.4367647, 0.0015106, 3.7125, -0.0501709, 3.7125, -0.986084, 3.7125, -0.2984619, 3.7125, 2.038168, 3.7125, -0.3816794, 3.7125, -5.1755724
0.4375588, 0.0011749, 3.71925, -0.0430298, 3.71925, -0.986145, 3.71925, -0.3007812, 3.71925, 2.1450381, 3.71925, -0.4885496, 3.71925, -5.3816795
0.4383529, -0.0025177, 3.726, -0.0397339, 3.726, -0.9885254, 3.726, -0.2939453, 3.726, 2.3587787, 3.726, -0.4885496, 3.726, -5.4122138
0.4391471, -0.0085603, 3.73275, -0.0408325, 3.73275, -0.9882812, 3.73275, -0.2946777, 3.73275, 2.5725191, 3.73275, -0.5648855, 3.73275, -5.3664122
0.4399412, -0.0139315, 3.7395, -0.0455933, 3.7395, -0.9885254, 3.7395, -0.2919312, 3.7395, 2.7480917, 3.7395, -0.4961832, 3.7395, -5.5648856
0.4407353, -0.0129244, 3.74625, -0.0462036, 3.74625, -0.9907837, 3.74625, -0.2929688, 3.74625, 2.9236641, 3.74625, 0.0381679, 3.74625, -5.3511453
0.4415294, -0.0090639, 3.753, -0.0446167, 3.753, -0.9907837, 3.753, -0.2902222, 3.753, 3.1450381, 3.753, 0.0381679, 3.753, -5.4503818
0.4423235, -0.0149386, 3.75975, -0.0368042, 3.75975, -0.9870605, 3.75975, -0.2921753, 3.75975, 3.3435113, 3.75975, -0.4274809, 3.75975, -5.6488547
0.4431176, -0.018967, 3.7665, -0.0362549, 3.7665, -0.9854126, 3.7665, -0.2924194, 3.7665, 3.3053436, 3.7665, -0.5114504, 3.7665, -5.7328243
0.4439118, -0.0199741, 3.77325, -0.0305176, 3.77325, -0.9888306, 3.77325, -0.2904663, 3.77325, 3.6641221, 3.77325, -0.3129771, 3.77325, -5.740458
0.4447059, -0.0193027, 3.78, -0.0269165, 3.78, -0.989624, 3.78, -0.2949829, 3.78, 3.6335878, 3.78, 0.0305344, 3.78, -5.5801525
0.4455, -0.0216526, 3.78675, -0.0228882, 3.78675, -0.9885864, 3.78675, -0.2945557, 3.78675, 3.8015268, 3.78675, 0.2748092, 3.78675, -5.5114503
0.4462941, -0.0219883, 3.7935, -0.0291138, 3.7935, -0.9881592, 3.7935, -0.2959595, 3.7935, 3.6793892, 3.7935, 0.8015267, 3.7935, -5.3664122
0.4470882, -0.0236667, 3.80025, -0.034729, 3.80025, -0.9862061, 3.80025, -0.3002319, 3.80025, 3.2977099, 3.80025, 0.9312977, 3.80025, -5.2290077
0.4478824, -0.0265202, 3.807, -0.0359497, 3.807, -0.9848022, 3.807, -0.2991333, 3.807, 2.9389312, 3.807, 1.3129771, 3.807, -5.1908398
0.4486765, -0.0236667, 3.81375, -0.0441284, 3.81375, -0.9870605, 3.81375, -0.2893066, 3.81375, 2.7175572, 3.81375, 1, 3.81375, -5.4656487
0.4494706, -0.0172885, 3.8205, -0.0548706, 3.8205, -0.9928589, 3.8205, -0.2895508, 3.8205, 3.091603, 3.8205, 0.6641222, 3.8205, -5.6564884
0.4502647, -0.0206455, 3.82725, -0.0490112, 3.82725, -0.9893799, 3.82725, -0.2967529, 3.82725, 3.1145039, 3.82725, 0.2824427, 3.82725, -5.6946564
0.4510588, -0.0186313, 3.834, -0.0404663, 3.834, -0.9838257, 3.834, -0.3007812, 3.834, 3.1374047, 3.834, -0.0458015, 3.834, -5.6030536
0.4518529, -0.0139315, 3.84075, -0.0350342, 3.84075, -0.9909058, 3.84075, -0.2947388, 3.84075, 3.3969467, 3.84075, -0.3358779, 3.84075, -5.6793895
0.4526471, -0.0112459, 3.8475, -0.0339355, 3.8475, -0.9969482, 3.8475, -0.288269, 3.8475, 3.740458, 3.8475, 0.1755725, 3.8475, -5.7938933
0.4534412, -0.0090639, 3.85425, -0.0327148, 3.85425, -0.9998169, 3.85425, -0.2918701, 3.85425, 4, 3.85425, 0.1755725, 3.85425, -5.7328243
0.4542353, -0.0062104, 3.861, -0.0310669, 3.861, -0.9945068, 3.861, -0.2888794, 3.861, 4.3816795, 3.861, 0.3435115, 3.861, -5.8244276
0.4550294, -0.0003357, 3.86775, -0.03302, 3.86775, -0.9888916, 3.86775, -0.2905884, 3.86775, 4.0992365, 3.86775, -0.1374046, 3.86775, -5.6030536
0.4558235, 0.0025177, 3.8745, -0.036438, 3.8745, -0.987854, 3.8745, -0.3046875, 3.8745, 4.0076337, 3.8745, -0.1603053, 3.8745, -5.7099237
0.4566176, -0.005539, 3.88125, -0.0338745, 3.88125, -0.9920044, 3.88125, -0.2997437, 3.88125, 3.3206108, 3.88125, 0.5572519, 3.88125, -5.7862597
0.4574118, -0.0146029, 3.888, -0.0296021, 3.888, -0.9923706, 3.888, -0.3212891, 3.888, 2.5419848, 3.888, 1.2137405, 3.888, -5.9770994
0.4582059, -0.021149, 3.89475, -0.0455933, 3.89475, -0.9909668, 3.89475, -0.3104248, 3.89475, 2.5801528, 3.89475, 1.870229, 3.89475, -6.0534353
0.459, -0.0164492, 3.9015, -0.0475464, 3.9015, -0.9914551, 3.9015, -0.2993774, 3.9015, 2.3587787, 3.9015, 2.4274809, 3.9015, -5.8854961
0.4597941, -0.0152743, 3.90825, -0.0471802, 3.90825, -0.994812, 3.90825, -0.2985229, 3.90825, 2.7022901, 3.90825, 2.908397, 3.90825, -6.0687022
0.4605882, -0.0250095, 3.915, -0.0569458, 3.915, -0.9917603, 3.915, -0.3014526, 3.915, 3.1603053, 3.915, 3.5038168, 3.915, -6.5572519
0.4613824, -0.0310521, 3.92175, -0.0649414, 3.92175, -0.9884033, 3.92175, -0.3005981, 3.92175, 3.4122138, 3.92175, 3.3816793, 3.92175, -6.8854961
0.4621765, -0.0290379, 3.9285, -0.0673828, 3.9285, -0.9865723, 3.9285, -0.3085938, 3.9285, 3.5343511, 3.9285, 2.2442749, 3.9285, -7.1068702
0.4629706, -0.0263523, 3.93525, -0.0547485, 3.93525, -0.9924927, 3.93525, -0.3218384, 3.93525, 3.2519083, 3.93525, 1.7480916, 3.93525, -7.4656487
0.4637647, -0.0223239, 3.942, -0.0549927, 3.942, -1.0055542, 3.942, -0.3115845, 3.942, 3.2977099, 3.942, 2.3740458, 3.942, -8.1450386
0.4645588, -0.0182956, 3.94875, -0.0615234, 3.94875, -0.994812, 3.94875, -0.3331909, 3.94875, 2.6183207, 3.94875, 0.3816794, 3.94875, -8.2900763
0.4653529, -0.0218204, 3.9555, -0.0613403, 3.9555, -0.9984131, 3.9555, -0.3205566, 3.9555, 2.9312978, 3.9555, -0.389313, 3.9555, -8.4351149
0.4661471, -0.0196384, 3.96225, -0.0563965, 3.96225, -1.0050049, 3.96225, -0.3272705, 3.96225, 3.5877862, 3.96225, 1.648855, 3.96225, -9.0763359
0.4669412, -0.0169528, 3.969, -0.0570068, 3.969, -1.00177, 3.969, -0.3532104, 3.969, 1.9923664, 3.969, 3.778626, 3.969, -9.480916
0.4677353, -0.0137636, 3.97575, -0.0571289, 3.97575, -0.989502, 3.97575, -0.3652344, 3.97575, 2.389313, 3.97575, 3.8549619, 3.97575, -9.4503813
0.4685294, -0.0075532, 3.9825, -0.0620117, 3.9825, -0.9967041, 3.9825, -0.3756104, 3.9825, 3.2137403, 3.9825, 3.2748091, 3.9825, -9.3053436
0.4693235, -0.002182, 3.98925, -0.0587769, 3.98925, -1.0171509, 3.98925, -0.3604126, 3.98925, 2.740458, 3.98925, 3.2442749, 3.98925, -9.2290077
0.4701176, -0.0018463, 3.996, -0.0471191, 3.996, -1.0311279, 3.996, -0.3646851, 3.996, 2.4656489, 3.996, 0.3282443, 3.996, -9.8091602
0.4709118, 0.0003357, 4.00275, -0.0324707, 4.00275, -1.03302, 4.00275, -0.3462524, 4.00275, 3.6183207, 4.00275, 1.1526718, 4.00275, -10.1526718
0.4717059, -0.003357, 4.0095, -0.0093994, 4.0095, -1.0263672, 4.0095, -0.3369141, 4.0095, 3.8931298, 4.0095, 2.961832, 4.0095, -10.6259546
0.4725, -0.0048676, 4.01625, -0.0002441, 4.01625, -1.0223999, 4.01625, -0.3359375, 4.01625, 4.3511453, 4.01625, 3.4122138, 4.01625, -10.282443
0.4732941, -0.0048676, 4.023, -0.012146, 4.023, -1.0137939, 4.023, -0.3221436, 4.023, 4.1221375, 4.023, 4.3664122, 4.023, -9.6641226
0.4740882, -0.01561, 4.02975, -0.0255127, 4.02975, -1.0136108, 4.02975, -0.2928467, 4.02975, 4.3282442, 4.02975, 5.6717558, 4.02975, -9.2519083
0.4748824, -0.0159457, 4.0365, -0.0518799, 4.0365, -1.013855, 4.0365, -0.3015137, 4.0365, 5.6106873, 4.0365, 4.1374044, 4.0365, -9.2366409
0.4756765, -0.0105745, 4.04325, -0.0492554, 4.04325, -1.0161133, 4.04325, -0.3340454, 4.04325, 6.4122138, 4.04325, 2.221374, 4.04325, -9.8854961
0.4764706, -0.0162814, 4.05, -0.0518799, 4.05, -1.0235596, 4.05, -0.3029785, 4.05, 8.4427481, 4.05, 2.1984732, 4.05, -9.8091602
0.4772647, -0.0171206, 4.05675, -0.0184937, 4.05675, -1.0304565, 4.05675, -0.2979736, 4.05675, 8.8473282, 4.05675, 1.1450381, 4.05675, -9.9694653
0.4780588, -0.0162814, 4.0635, 0.0043335, 4.0635, -1.0256348, 4.0635, -0.302124, 4.0635, 8.679389, 4.0635, 1.2900764, 4.0635, -10.0763359
0.4788529, -0.0162814, 4.07025, 0.0259399, 4.07025, -1.0008545, 4.07025, -0.3100586, 4.07025, 7.9847326, 4.07025, 2.1679389, 4.07025, -9.4656487
0.4796471, -0.0203098, 4.077, 0.0267334, 4.077, -1.0004883, 4.077, -0.3133545, 4.077, 5.9770994, 4.077, 3.5419848, 4.077, -9.1068707
0.4804412, -0.0256809, 4.08375, 0.0198364, 4.08375, -1.0130005, 4.08375, -0.310791, 4.08375, 4.2977099, 4.08375, 4.8396945, 4.08375, -8.8625956
0.4812353, -0.0285344, 4.0905, 0.0172119, 4.0905, -1.0198975, 4.0905, -0.2988281, 4.0905, 3.3816793, 4.0905, 4.9160304, 4.0905, -8.358779
0.4820294, -0.026688, 4.09725, 0.0176392, 4.09725, -1.0353394, 4.09725, -0.2736816, 4.09725, 3.2824428, 4.09725, 4.8931298, 4.09725, -7.8549619
0.4828235, -0.0223239, 4.104, 0.0183105, 4.104, -1.041748, 4.104, -0.2703857, 4.104, 4.6335878, 4.104, 6.9770994, 4.104, -7.2061067
0.4836176, -0.0172885, 4.11075, 0.0078125, 4.11075, -1.0628662, 4.11075, -0.2385254, 4.11075, 5.5038166, 4.11075, 9.0076332, 4.11075, -6.0992365
0.4844118, -0.0135958, 4.1175, -0.0222778, 4.1175, -1.0493164, 4.1175, -0.2460938, 4.1175, 6.6412215, 4.1175, 10.8091602, 4.1175, -4.7480917
0.4852059, -0.0119173, 4.12425, -0.0282593, 4.12425, -1.0264893, 4.12425, -0.25, 4.12425, 6.9236641, 4.12425, 12.160305, 4.12425, -3.778626
0.486, -0.0068818, 4.131, -0.0531616, 4.131, -1.0384521, 4.131, -0.2878418, 4.131, 7.5572519, 4.131, 14.1221371, 4.131, -3.2519083
0.4867941, -0.0062104, 4.13775, -0.0726318, 4.13775, -1.0421753, 4.13775, -0.2700806, 4.13775, 7.2748094, 4.13775, 15.5343513, 4.13775, -2.1755726
0.4875882, -0.0006714, 4.1445, -0.0350342, 4.1445, -1.0650635, 4.1445, -0.2593384, 4.1445, 6.3129773, 4.1445, 12.2595415, 4.1445, -2.0763359
0.4883824, -0.0005035, 4.15125, -0.0071411, 4.15125, -1.0615234, 4.15125, -0.2803345, 4.15125, 6.6183205, 4.15125, 11.641221, 4.15125, -1.6946565
0.4891765, -0.0025177, 4.158, 0.0205078, 4.158, -1.0612183, 4.158, -0.2910156, 4.158, 6.3129773, 4.158, 12.4732828, 4.158, -0.6946565
0.4899706, -0.0045319, 4.16475, 0.0119019, 4.16475, -1.0593262, 4.16475, -0.2670898, 4.16475, 5.2748094, 4.16475, 15.3053436, 4.16475, -0.2137405
0.4907647, -0.0062104, 4.1715, -0.019043, 4.1715, -1.0455322, 4.1715, -0.2640991, 4.1715, 4.6412215, 4.1715, 14.8625956, 4.1715, 0.7022901
0.4915588, -0.0082246, 4.17825, -0.0307007, 4.17825, -1.0377808, 4.17825, -0.2905884, 4.17825, 5.3740458, 4.17825, 18.4122143, 4.17825, 1.7099236
0.4923529, -0.0036927, 4.185, -0.0341797, 4.185, -1.0422974, 4.185, -0.2810059, 4.185, 4.1755724, 4.185, 19.6335869, 4.185, 1.8778626
0.4931471, -0.0028534, 4.19175, -0.0299683, 4.19175, -1.0464478, 4.19175, -0.2907104, 4.19175, 2.9312978, 4.19175, 19.396946, 4.19175, 2
0.4939412, -0.0179599, 4.1985, -0.0124512, 4.1985, -1.0454712, 4.1985, -0.2890015, 4.1985, 2.7557251, 4.1985, 18.6870232, 4.1985, 2.7862597
0.4947353, -0.0253452, 4.20525, 0.0028687, 4.20525, -1.0379639, 4.20525, -0.2867432, 4.20525, 2.3053436, 4.20525, 19.8625946, 4.20525, 3.2824428
0.4955294, -0.0253452, 4.212, 0.0003662, 4.212, -1.0284424, 4.212, -0.2834473, 4.212, 1.3740458, 4.212, 19, 4.212, 3.9694657
0.4963235, -0.0313878, 4.21875, -0.005127, 4.21875, -1.0380249, 4.21875, -0.2640991, 4.21875, 0.4122137, 4.21875, 18.2519093, 4.21875, 4
0.4971176, -0.0290379, 4.2255, 0.001709, 4.2255, -1.0368042, 4.2255, -0.2770996, 4.2255, 2.0992367, 4.2255, 18.4656487, 4.2255, 4.9770994
0.4979118, -0.0276951, 4.23225, 0.0081787, 4.23225, -1.0335693, 4.23225, -0.2852173, 4.23225, 2.9465649, 4.23225, 19.0839691, 4.23225, 5.8320613
0.4987059, -0.0298772, 4.239, -0.0039062, 4.239, -1.0209351, 4.239, -0.2980957, 4.239, 3.3206108, 4.239, 22.442749, 4.239, 6.0839696
0.4995, -0.018967, 4.24575, -0.0031128, 4.24575, -1.0148315, 4.24575, -0.2941895, 4.24575, 4.8244276, 4.24575, 26.0687027, 4.24575, 7.6564884
0.5002941, -0.0149386, 4.2525, -0.0250854, 4.2525, -1.0216675, 4.2525, -0.2711792, 4.2525, 2.6870229, 4.2525, 23.2366409, 4.2525, 8.641221
0.5010882, -0.014435, 4.25925, -0.0286865, 4.25925, -1.013855, 4.25925, -0.2797852, 4.25925, 3.3587787, 4.25925, 24.8320618, 4.25925, 8.9083967
0.5018824, -0.0139315, 4.266, -0.0336914, 4.266, -1.0234985, 4.266, -0.2507935, 4.266, 2.2442749, 4.266, 25.0229015, 4.266, 8.8854961
0.5026765, -0.0050355, 4.27275, -0.0283203, 4.27275, -1.0134277, 4.27275, -0.2627563, 4.27275, 3.9465649, 4.27275, 21.0305347, 4.27275, 8.9083967
0.5034706, -0.0001678, 4.2795, -0.003418, 4.2795, -0.9906616, 4.2795, -0.3039551, 4.2795, 2.0458016, 4.2795, 24.2137413, 4.2795, 8.8244276
0.5042647, -0.0018463, 4.28625, -0.0370483, 4.28625, -0.9754639, 4.28625, -0.2954102, 4.28625, 2.8015268, 4.28625, 18.9465656, 4.28625, 9.0687027
0.5050588, -0.005539, 4.293, -0.0266724, 4.293, -0.9470825, 4.293, -0.3508911, 4.293, 0.4122137, 4.293, 23.7786255, 4.293, 9.3969469
0.5058529, -0.0075532, 4.29975, -0.0606689, 4.29975, -0.9556885, 4.29975, -0.3164062, 4.29975, 0.3435115, 4.29975, 22.961832, 4.29975, 9.717557
0.5066471, -0.0092317, 4.3065, -0.0748291, 4.3065, -0.982605, 4.3065, -0.2879639, 4.3065, -0.7938932, 4.3065, 20.8778629, 4.3065, 9.4503813
0.5074412, -0.0135958, 4.31325, -0.0646973, 4.31325, -0.9897461, 4.31325, -0.2872314, 4.31325, 0.7328244, 4.31325, 20.7862587, 4.31325, 9.4503813
0.5082353, -0.0149386, 4.32, -0.0355835, 4.32, -0.9970703, 4.32, -0.2876587, 4.32, 0.610687, 4.32, 25.1526718, 4.32, 9.3358774
0.5090294, -0.0182956, 4.32675, -0.0440674, 4.32675, -0.9876709, 4.32675, -0.2684326, 4.32675, 1.4961832, 4.32675, 20.3129768, 4.32675, 8.7099237
0.5098235, -0.0216526, 4.3335, -0.0463257, 4.3335, -0.9682007, 4.3335, -0.2747192, 4.3335, 0.8854962, 4.3335, 20.5419846, 4.3335, 8.3358774
0.5106176, -0.0218204, 4.34025, -0.0441895, 4.34025, -0.9359131, 4.34025, -0.2824097, 4.34025, 1.6641221, 4.34025, 21.7862587, 4.34025, 8.4274807
0.5114118, -0.0280308, 4.347, -0.0383301, 4.347, -0.9307251, 4.347, -0.2515259, 4.347, 0.3282443, 4.347, 15.8167934, 4.347, 8.7251911
0.5122059, -0.0288701, 4.35375, -0.0145264, 4.35375, -0.9351196, 4.35375, -0.2467041, 4.35375, 2.1603053, 4.35375, 15.6106873, 4.35375, 7.6564884
0.513, -0.0229953, 4.3605, -0.0202637, 4.3605, -0.9355469, 4.3605, -0.2428589, 4.3605, 3.4656489, 4.3605, 15.0687027, 4.3605, 8.3893127
0.5137941, -0.0203098, 4.36725, 0.0273438, 4.36725, -0.9342041, 4.36725, -0.239624, 4.36725, 4.8854961, 4.36725, 15.7786255, 4.36725, 8
0.5145882, -0.0229953, 4.374, 0.0026855, 4.374, -0.9346924, 4.374, -0.2146606, 4.374, 4.4503818, 4.374, 17.8244267, 4.374, 7.1755724
0.5153824, -0.0246738, 4.38075, -0.0028687, 4.38075, -0.9249878, 4.38075, -0.2194824, 4.38075, 3.9770992, 4.38075, 15.5572519, 4.38075, 7.6641221
0.5161765, -0.0219883, 4.3875, 0.0065918, 4.3875, -0.9362183, 4.3875, -0.2142944, 4.3875, 3.6259542, 4.3875, 14.9007635, 4.3875, 7.4045801
0.5169706, -0.0209812, 4.39425, 0.0147095, 4.39425, -0.9397583, 4.39425, -0.206604, 4.39425, 6.259542, 4.39425, 14.2290077, 4.39425, 7.0152674
0.5177647, -0.0135958, 4.401, 0.0308228, 4.401, -0.9169312, 4.401, -0.2043457, 4.401, 5.3664122, 4.401, 16.0534344, 4.401, 6.6259542
0.5185588, -0.0099031, 4.40775, 0.0059814, 4.40775, -0.9232178, 4.40775, -0.1814575, 4.40775, 7.8854961, 4.40775, 17.1068707, 4.40775, 6.1908398
0.5193529, -0.0001678, 4.4145, 0.0182495, 4.4145, -0.906189, 4.4145, -0.1812134, 4.4145, 5.2442746, 4.4145, 15.5648851, 4.4145, 5.7328243
0.5201471, -0.0001678, 4.42125, 0.0219116, 4.42125, -0.9170532, 4.42125, -0.1998901, 4.42125, 6.9160304, 4.42125, 12.5801525, 4.42125, 4.0992365
0.5209412, 0.0005035, 4.428, -0.013855, 4.428, -0.9108276, 4.428, -0.211792, 4.428, 7.2671757, 4.428, 12.1832066, 4.428, 3.9847329
0.5217353, -0.0035248, 4.43475, -0.0249634, 4.43475, -0.9070435, 4.43475, -0.1948242, 4.43475, 8.0992365, 4.43475, 10.5648851, 4.43475, 2.6870229
0.5225294, -0.0001678, 4.4415, -0.0253296, 4.4415, -0.9110718, 4.4415, -0.2125854, 4.4415, 7.8702292, 4.4415, 7.2519083, 4.4415, 2.4045801
0.5233235, -0.0011749, 4.44825, -0.0205688, 4.44825, -0.9331665, 4.44825, -0.2122803, 4.44825, 9.7022905, 4.44825, 7.4961834, 4.44825, 1.3053435
0.5241176, -0.0082246, 4.455, -0.0281982, 4.455, -0.9324341, 4.455, -0.2106934, 4.455, 10.5648851, 4.455, 8.358779, 4.455, 0.8549618
0.5249118, -0.0092317, 4.46175, -0.0172729, 4.46175, -0.9425049, 4.46175, -0.2028198, 4.46175, 11.4427481, 4.46175, 9.8702288, 4.46175, 0.8091603
0.5257059, -0.008896, 4.4685, 0.0255737, 4.4685, -0.9286499, 4.4685, -0.241394, 4.4685, 12.9160309, 4.4685, 14.3282442, 4.4685, 0.3358779
0.5265, -0.0135958, 4.47525, -0.0234375, 4.47525, -0.932312, 4.47525, -0.1963501, 4.47525, 12.1221371, 4.47525, 8.038168, 4.47525, -1.3740458
0.5272941, -0.0196384, 4.482, -0.0322876, 4.482, -0.9539795, 4.482, -0.199707, 4.482, 11.5648851, 4.482, 8.8854961, 4.482, -2.1221373
0.5280882, -0.0203098, 4.48875, -0.0048828, 4.48875, -0.9676514, 4.48875, -0.2094727, 4.48875, 13.1145039, 4.48875, 6.1679387, 4.48875, -1.6030535
0.5288824, -0.0283665, 4.4955, -0.0166626, 4.4955, -0.9689331, 4.4955, -0.2192993, 4.4955, 13.198473, 4.4955, 3.961832, 4.4955, -2.5343511
0.5296765, -0.0243381, 4.50225, -0.0345459, 4.50225, -0.979187, 4.50225, -0.2081299, 4.50225, 12.6106873, 4.50225, 7.3053436, 4.50225, -1.8015267
0.5304706, -0.0196384, 4.509, -0.0247803, 4.509, -0.9821167, 4.509, -0.2177124, 4.509, 12.3740454, 4.509, 6.5343513, 4.509, -1.2442749
0.5312647, -0.0238346, 4.51575, -0.0388794, 4.51575, -0.9940796, 4.51575, -0.2149658, 4.51575, 11.3969469, 4.51575, 6.7099237, 4.51575, -1.1221374
0.5320588, -0.0246738, 4.5225, -0.0526733, 4.5225, -0.9979248, 4.5225, -0.2058105, 4.5225, 10.8473282, 4.5225, 5.5267177, 4.5225, -1.4732825
0.5328529, -0.0221561, 4.52925, -0.064209, 4.52925, -0.9961548, 4.52925, -0.2032471, 4.52925, 10.8854961, 4.52925, 5.8625956, 4.52925, -1.4427481
0.5336471, -0.0223239, 4.536, -0.038147, 4.536, -1.0032959, 4.536, -0.2104492, 4.536, 9.839695, 4.536, 5.4427481, 4.536, -0.8854962
0.5344412, -0.0162814, 4.54275, -0.0331421, 4.54275, -0.9987183, 4.54275, -0.2077637, 4.54275, 8.7862597, 4.54275, 4.1145039, 4.54275, -1.038168
0.5352353, -0.012253, 4.5495, -0.0638428, 4.5495, -1.0054932, 4.5495, -0.1894531, 4.5495, 7.6030536, 4.5495, 3.5038168, 4.5495, -1.3969465
0.5360294, -0.012253, 4.55625, -0.0620728, 4.55625, -1.0036621, 4.55625, -0.1990967, 4.55625, 7.1221375, 4.55625, 2.4885497, 4.55625, -1.480916
0.5368235, -0.0085603, 4.563, -0.0480347, 4.563, -0.9961548, 4.563, -0.2002563, 4.563, 7.4656487, 4.563, 0.9770992, 4.563, -0.6030535
0.5376176, -0.0068818, 4.56975, -0.0507812, 4.56975, -0.9838867, 4.56975, -0.2019043, 4.56975, 7.8625956, 4.56975, 2.038168, 4.56975, -0.3587786
0.5384118, -0.0041962, 4.5765, -0.0581055, 4.5765, -0.9802856, 4.5765, -0.2145996, 4.5765, 7.5267177, 4.5765, 1.3435115, 4.5765, 0.0610687
0.5392059, -0.0038605, 4.58325, -0.0644531, 4.58325, -0.9799805, 4.58325, -0.2121582, 4.58325, 7.1221375, 4.58325, 2.1679389, 4.58325, -0.1450382
0.54, -0.0075532, 4.59, -0.0708008, 4.59, -0.9712524, 4.59, -0.2097778, 4.59, 5.8473282, 4.59, 1.5572519, 4.59, -0.3969466
0.5407941, -0.0129244, 4.59675, -0.071167, 4.59675, -0.9763184, 4.59675, -0.2091675, 4.59675, 5.1755724, 4.59675, 1.091603, 4.59675, -0.9770992
0.5415882, -0.0135958, 4.6035, -0.069397, 4.6035, -0.9834595, 4.6035, -0.1986694, 4.6035, 4.9541984, 4.6035, 0.5114504, 4.6035, -1.5114504
0.5423824, -0.0164492, 4.61025, -0.0546265, 4.61025, -0.9749146, 4.61025, -0.2166138, 4.61025, 5.5343513, 4.61025, -0.0839695, 4.61025, -1.3282443
0.5431765, -0.0203098, 4.617, -0.0502319, 4.617, -0.975647, 4.617, -0.2058105, 4.617, 5.7175574, 4.617, -1.3816794, 4.617, -1.908397
0.5439706, -0.0256809, 4.62375, -0.0427246, 4.62375, -0.9754028, 4.62375, -0.2107544, 4.62375, 5.3816795, 4.62375, -0.5572519, 4.62375, -1.8549619
0.5447647, -0.0246738, 4.6305, -0.0192261, 4.6305, -0.9851074, 4.6305, -0.2188721, 4.6305, 6.8473282, 4.6305, 0.5343512, 4.6305, -1.6183206
0.5455588, -0.0243381, 4.63725, -0.0262451, 4.63725, -0.9796753, 4.63725, -0.2116089, 4.63725, 7.4503818, 4.63725, 2.0763359, 4.63725, -1.9847329
0.5463529, -0.0223239, 4.644, -0.041687, 4.644, -0.9830322, 4.644, -0.2050781, 4.644, 8.2671757, 4.644, 1.8778626, 4.644, -2.3358779
0.5471471, -0.0270237, 4.65075, -0.0474243, 4.65075, -0.9787598, 4.65075, -0.2096558, 4.65075, 8.5419846, 4.65075, 0.4885496, 4.65075, -2.8931298
0.5479412, -0.033402, 4.6575, -0.0505371, 4.6575, -0.9769287, 4.6575, -0.2041016, 4.6575, 7.5725193, 4.6575, -0.5267175, 4.6575, -3.0839694
0.5487353, -0.0330663, 4.66425, -0.0454102, 4.66425, -0.9766235, 4.66425, -0.2041626, 4.66425, 6.1526718, 4.66425, -1.7709924, 4.66425, -3.7328243
0.5495294, -0.0231632, 4.671, -0.0127563, 4.671, -0.980957, 4.671, -0.2070923, 4.671, 6.2977099, 4.671, -0.610687, 4.671, -3.0076337
0.5503235, -0.0159457, 4.67775, -0.0162354, 4.67775, -0.9702148, 4.67775, -0.1928711, 4.67775, 4.778626, 4.67775, -2.0610688, 4.67775, -3.9541984
0.5511176, -0.0105745, 4.6845, -0.0110474, 4.6845, -0.979187, 4.6845, -0.1958008, 4.6845, 4.7938933, 4.6845, -2.351145, 4.6845, -3.9007633
0.5519118, -0.0063783, 4.69125, -0.0065308, 4.69125, -0.9848633, 4.69125, -0.187439, 4.69125, 5.6335878, 4.69125, -1.6335878, 4.69125, -3.5648854
0.5527059, -0.0065461, 4.698, -0.0050049, 4.698, -0.9846191, 4.698, -0.1812744, 4.698, 5.3129773, 4.698, -0.870229, 4.698, -3.5496182
0.5535, -0.005539, 4.70475, 0.0040894, 4.70475, -0.9874878, 4.70475, -0.1888428, 4.70475, 5.8702292, 4.70475, 0.2900763, 4.70475, -3.3129771
0.5542941, -0.0011749, 4.7115, -0.0098877, 4.7115, -0.9785767, 4.7115, -0.1896362, 4.7115, 6.5114503, 4.7115, 2.7938931, 4.7115, -2.870229
0.5550882, -0.0003357, 4.71825, -0.017334, 4.71825, -0.9793701, 4.71825, -0.1908569, 4.71825, 5.9389315, 4.71825, 2.0534351, 4.71825, -2.9541984
0.5558824, -0.0018463, 4.725, -0.0330811, 4.725, -0.9829712, 4.725, -0.1950073, 4.725, 5.5038166, 4.725, 1.9160305, 4.725, -2.8778627
0.5566765, -0.0085603, 4.73175, -0.0300903, 4.73175, -0.9865723, 4.73175, -0.1923218, 4.73175, 4.0152674, 4.73175, 1.1526718, 4.73175, -3.0992367
0.5574706, -0.0129244, 4.7385, -0.0252686, 4.7385, -0.9920044, 4.7385, -0.2001953, 4.7385, 2.519084, 4.7385, -0.0839695, 4.7385, -3.389313
0.5582647, -0.0142672, 4.74525, -0.0283203, 4.74525, -1.0005493, 4.74525, -0.1914062, 4.74525, 2.5648854, 4.74525, 0.4198473, 4.74525, -3.4732823
0.5590588, -0.0179599, 4.752, -0.024292, 4.752, -0.9980469, 4.752, -0.1911011, 4.752, 1.6412214, 4.752, -0.519084, 4.752, -3.3358779
0.5598529, -0.0166171, 4.75875, -0.0114136, 4.75875, -1.0008545, 4.75875, -0.2004395, 4.75875, 1.610687, 4.75875, 0.2290076, 4.75875, -3.5877862
0.5606471, -0.0176242, 4.7655, -0.0291138, 4.7655, -0.9928589, 4.7655, -0.203125, 4.7655, 2.091603, 4.7655, 0.3740458, 4.7655, -3.6564887
0.5614412, -0.0226596, 4.77225, -0.039856, 4.77225, -0.9945068, 4.77225, -0.206665, 4.77225, 2.7175572, 4.77225, 1.259542, 4.77225, -3.0534351
0.5622353, -0.0199741, 4.779, -0.0375977, 4.779, -0.9962769, 4.779, -0.2068481, 4.779, 2.3664122, 4.779, 1.961832, 4.779, -2.870229
0.5630294, -0.0179599, 4.78575, -0.0390625, 4.78575, -0.9979248, 4.78575, -0.2171021, 4.78575, 2.5954199, 4.78575, 2.1908398, 4.78575, -2.9923663
0.5638235, -0.0219883, 4.7925, -0.0420532, 4.7925, -0.9963989, 4.7925, -0.2224121, 4.7925, 2.2519083, 4.7925, 1.4198474, 4.7925, -2.3435113
0.5646176, -0.0243381, 4.79925, -0.038269, 4.79925, -0.9908447, 4.79925, -0.2243652, 4.79925, 2.129771, 4.79925, 1.1145039, 4.79925, -3.0610688
0.5654118, -0.0199741, 4.806, -0.0325317, 4.806, -0.9924927, 4.806, -0.223938, 4.806, 1.961832, 4.806, 0.7557252, 4.806, -3.3816793
0.5662059, -0.0152743, 4.81275, -0.0194702, 4.81275, -0.9916382, 4.81275, -0.2342529, 4.81275, 1.6030535, 4.81275, 0.6717557, 4.81275, -3.2900763
0.567, -0.0125887, 4.8195, -0.0130615, 4.8195, -0.998291, 4.8195, -0.2265015, 4.8195, 0.3206107, 4.8195, 0.4580153, 4.8195, -3.6793892
0.5677941, -0.012253, 4.82625, -0.0203857, 4.82625, -0.9954224, 4.82625, -0.223938, 4.82625, -0.1068702, 4.82625, 0.4656489, 4.82625, -3.7862597
0.5685882, -0.0112459, 4.833, -0.0257568, 4.833, -0.9893799, 4.833, -0.2293091, 4.833, 0.0763359, 4.833, 0.9694657, 4.833, -3.4351146
0.5693824, -0.002182, 4.83975, -0.0405884, 4.83975, -0.9937134, 4.83975, -0.2211914, 4.83975, -0.1221374, 4.83975, 0.7938932, 4.83975, -3.4274809
0.5701765, 0.0048676, 4.8465, -0.0654297, 4.8465, -0.9988403, 4.8465, -0.2175903, 4.8465, 0.3664122, 4.8465, 1.3282443, 4.8465, -3.6030533
0.5709706, 0.0011749, 4.85325, -0.0750122, 4.85325, -0.9988403, 4.85325, -0.2166748, 4.85325, 1.4045801, 4.85325, 1.7862595, 4.85325, -3.6183207
0.5717647, -0.002182, 4.86, -0.0702515, 4.86, -0.9991455, 4.86, -0.2192383, 4.86, 1.908397, 4.86, 0.5343512, 4.86, -3.259542
0.5725588, -0.0005035, 4.86675, -0.0645752, 4.86675, -0.9978638, 4.86675, -0.223877, 4.86675, 2.2900763, 4.86675, -0.0534351, 4.86675, -3.6183207
0.5733529, -0.0028534, 4.8735, -0.0614014, 4.8735, -0.9987793, 4.8735, -0.2132568, 4.8735, 2.908397, 4.8735, 0.7022901, 4.8735, -3.7938931
0.5741471, -0.0078889, 4.88025, -0.0430908, 4.88025, -0.9978027, 4.88025, -0.2236938, 4.88025, 2.908397, 4.88025, 0.2900763, 4.88025, -3.2442749
0.5749412, -0.0099031, 4.887, -0.0276489, 4.887, -0.9987793, 4.887, -0.2280884, 4.887, 2.5877862, 4.887, 0.4274809, 4.887, -2.8549619
0.5757353, -0.0112459, 4.89375, -0.0274658, 4.89375, -0.999939, 4.89375, -0.2278442, 4.89375, 2.3358779, 4.89375, 1.3816794, 4.89375, -3
0.5765294, -0.0162814, 4.9005, -0.0345459, 4.9005, -1.0013428, 4.9005, -0.21698, 4.9005, 1.6564885, 4.9005, 1.7709924, 4.9005, -2.5954199
0.5773235, -0.0182956, 4.90725, -0.0252686, 4.90725, -0.9997559, 4.90725, -0.2196655, 4.90725, 1.4503816, 4.90725, 1.4198474, 4.90725, -2.648855
0.5781176, -0.0203098, 4.914, -0.0255737, 4.914, -0.999939, 4.914, -0.2240601, 4.914, 1.4885496, 4.914, 1.1679389, 4.914, -2.8396947
0.5789118, -0.0229953, 4.92075, -0.039856, 4.92075, -0.9939575, 4.92075, -0.222229, 4.92075, 1.5114504, 4.92075, 1.7633588, 4.92075, -2.9847329
0.5797059, -0.0186313, 4.9275, -0.039856, 4.9275, -0.9915771, 4.9275, -0.222229, 4.9275, 1.4122137, 4.9275, 1.8091604, 4.9275, -2.9236641
0.5805, -0.018967, 4.93425, -0.0429077, 4.93425, -0.9955444, 4.93425, -0.2203369, 4.93425, 1.519084, 4.93425, 2.4351146, 4.93425, -2.9312978
0.5812941, -0.021149, 4.941, -0.0464478, 4.941, -0.9995117, 4.941, -0.2166138, 4.941, 2.1374047, 4.941, 1.4885496, 4.941, -2.4427481
0.5820882, -0.0243381, 4.94775, -0.0495605, 4.94775, -0.9973755, 4.94775, -0.2223511, 4.94775, 1.7938931, 4.94775, -0.2061069, 4.94775, -2.778626
0.5828824, -0.0256809, 4.9545, -0.048584, 4.9545, -0.9958496, 4.9545, -0.2244263, 4.9545, 1.6564885, 4.9545, 0.0458015, 4.9545, -2.5114503
0.5836765, -0.0216526, 4.96125, -0.0490112, 4.96125, -1.0012817, 4.96125, -0.2183838, 4.96125, 1.0839695, 4.96125, -0.0229008, 4.96125, -2.8244274
0.5844706, -0.0129244, 4.968, -0.0448608, 4.968, -1.0036011, 4.968, -0.2243652, 4.968, 0.908397, 4.968, 0.0687023, 4.968, -2.7099237
0.5852647, -0.0099031, 4.97475, -0.0427246, 4.97475, -1.00354, 4.97475, -0.2265015, 4.97475, 0.8320611, 4.97475, 0.1603053, 4.97475, -2.3206108
0.5860588, -0.005539, 4.9815, -0.0440063, 4.9815, -1.0045776, 4.9815, -0.2310181, 4.9815, 0.5725191, 4.9815, 0.5572519, 4.9815, -2.3358779
0.5868529, 0.0005035, 4.98825, -0.0512085, 4.98825, -1.0054321, 4.98825, -0.2249146, 4.98825, 0.8167939, 4.98825, 1.648855, 4.98825, -2.2290077
0.5876471, 0.0011749, 4.995, -0.0492554, 4.995, -1.0041504, 4.995, -0.2321777, 4.995, 0.7938932, 4.995, 1.7022901, 4.995, -2.259542
0.5884412, -0.0025177, 5.00175, -0.0545654, 5.00175, -1.0005493, 5.00175, -0.2327881, 5.00175, 0.8091603, 5.00175, 1.7099236, 5.00175, -2.3358779
0.5892353, -0.0117494, 5.0085, -0.0549316, 5.0085, -1.0012207, 5.0085, -0.230896, 5.0085, 1.2290076, 5.0085, 1.8167939, 5.0085, -2.129771
0.5900294, -0.0142672, 5.01525, -0.0560303, 5.01525, -1.0014038, 5.01525, -0.2198486, 5.01525, 0.9847328, 5.01525, 2.2519083, 5.01525, -2.3740458
0.5908235, -0.0125887, 5.022, -0.0463867, 5.022, -1.0018921, 5.022, -0.2216797, 5.022, 2.5114503, 5.022, 1.9007634, 5.022, -2.3358779
0.5916176, -0.0250095, 5.02875, -0.0565796, 5.02875, -0.9973145, 5.02875, -0.220459, 5.02875, 2.7099237, 5.02875, 2.2442749, 5.02875, -2.3664122
0.5924118, -0.0298772, 5.0355, -0.0561523, 5.0355, -0.9960938, 5.0355, -0.2218628, 5.0355, 2.5114503, 5.0355, 1.3053435, 5.0355, -2.4122138
0.5932059, -0.0344091, 5.04225, -0.0566406, 5.04225, -0.9945679, 5.04225, -0.2219238, 5.04225, 2.4427481, 5.04225, 1.4045801, 5.04225, -2.5419848
0.594, -0.036759, 5.049, -0.0426636, 5.049, -0.9959106, 5.049, -0.2226562, 5.049, 2.7175572, 5.049, 1.2900764, 5.049, -2.5038168
0.5947941, -0.0317235, 5.05575, -0.0308228, 5.05575, -0.992981, 5.05575, -0.2312012, 5.05575, 2.0152671, 5.05575, 1.2748091, 5.05575, -2.5038168
0.5955882, -0.0193027, 5.0625, -0.0284424, 5.0625, -0.9979858, 5.0625, -0.2301636, 5.0625, 1.7022901, 5.0625, 1.961832, 5.0625, -2.6564887
0.5963824, -0.0104067, 5.06925, -0.043457, 5.06925, -0.9954224, 5.06925, -0.2325439, 5.06925, 1.6717557, 5.06925, 2.3206108, 5.06925, -2.519084
0.5971765, -0.0052033, 5.076, -0.0327759, 5.076, -0.9978027, 5.076, -0.2298584, 5.076, 1.6259542, 5.076, 2.1145039, 5.076, -2.4198472
0.5979706, -0.005539, 5.08275, -0.0331421, 5.08275, -0.9976196, 5.08275, -0.2240601, 5.08275, 1.5877863, 5.08275, 1.9007634, 5.08275, -2.7557251
0.5987647, -0.0095674, 5.0895, -0.0357666, 5.0895, -0.9959106, 5.0895, -0.2236328, 5.0895, 2.1755726, 5.0895, 2.3206108, 5.0895, -2.7480917
0.5995588, -0.0095674, 5.09625, -0.0464478, 5.09625, -0.9939575, 5.09625, -0.2271729, 5.09625, 2.3206108, 5.09625, 2.8473282, 5.09625, -2.8167939
0.6003529, -0.0082246, 5.103, -0.0487061, 5.103, -0.9944458, 5.103, -0.2297363, 5.103, 2.8320611, 5.103, 2.2977099, 5.103, -2.7022901
0.6011471, -0.0112459, 5.10975, -0.0544434, 5.10975, -0.998291, 5.10975, -0.2263184, 5.10975, 3.2137403, 5.10975, 1.4885496, 5.10975, -2.8778627
0.6019412, -0.011078, 5.1165, -0.0534058, 5.1165, -1.0012207, 5.1165, -0.2230225, 5.1165, 3.2137403, 5.1165, 1.5038168, 5.1165, -2.8396947
0.6027353, -0.0048676, 5.12325, -0.0388184, 5.12325, -0.9990234, 5.12325, -0.2245483, 5.12325, 2.8854961, 5.12325, 0.8625954, 5.12325, -2.610687
0.6035294, -0.002182, 5.13, -0.0420532, 5.13, -0.9993286, 5.13, -0.2244873, 5.13, 2.4198472, 5.13, 0.6946565, 5.13, -2.8473282
0.6043235, -0.0031891, 5.13675, -0.0424194, 5.13675, -0.9990234, 5.13675, -0.2227173, 5.13675, 2.3664122, 5.13675, 1.4427481, 5.13675, -2.5496182
0.6051176, -0.0005035, 5.1435, -0.0424805, 5.1435, -0.9993286, 5.1435, -0.2203979, 5.1435, 1.9160305, 5.1435, 2.0152671, 5.1435, -2.6564887
0.6059118, -0.0025177, 5.15025, -0.0401611, 5.15025, -0.9970093, 5.15025, -0.2244873, 5.15025, 1.7633588, 5.15025, 2.0152671, 5.15025, -2.5801528
0.6067059, -0.0092317, 5.157, -0.0517578, 5.157, -0.9957275, 5.157, -0.2211304, 5.157, 1.8244275, 5.157, 2.5114503, 5.157, -3.0229008
0.6075, -0.0149386, 5.16375, -0.0507202, 5.16375, -0.9981689, 5.16375, -0.2194824, 5.16375, 2.6946564, 5.16375, 2.7557251, 5.16375, -2.8778627
0.6082941, -0.0206455, 5.1705, -0.0467529, 5.1705, -1.0021973, 5.1705, -0.2162476, 5.1705, 2.6335878, 5.1705, 2.3969467, 5.1705, -2.9541984
0.6090882, -0.0229953, 5.17725, -0.046814, 5.17725, -0.9991455, 5.17725, -0.2106323, 5.17725, 2.9236641, 5.17725, 2.1603053, 5.17725, -3.1450381
0.6098824, -0.0270237, 5.184, -0.0507812, 5.184, -0.9993896, 5.184, -0.2093506, 5.184, 3.4580152, 5.184, 2.1526718, 5.184, -3.2061069
0.6106765, -0.0287022, 5.19075, -0.0482178, 5.19075, -0.9931641, 5.19075, -0.2132568, 5.19075, 3.480916, 5.19075, 1.5954199, 5.19075, -2.9389312
0.6114706, -0.0276951, 5.1975, -0.0386353, 5.1975, -0.9962769, 5.1975, -0.2086182, 5.1975, 3.3664122, 5.1975, 0.8244275, 5.1975, -3.1603053
0.6122647, -0.0297093, 5.20425, -0.0492554, 5.20425, -0.9897461, 5.20425, -0.2089844, 5.20425, 2.5114503, 5.20425, 0.5267175, 5.20425, -3.2671757
0.6130588, -0.0270237, 5.211, -0.0477905, 5.211, -0.9910889, 5.211, -0.2163696, 5.211, 2.129771, 5.211, 0.2977099, 5.211, -2.610687
0.6138529, -0.0285344, 5.21775, -0.0427856, 5.21775, -0.9915771, 5.21775, -0.2176514, 5.21775, 1.389313, 5.21775, -0.0305344, 5.21775, -2.8244274
0.6146471, -0.0337377, 5.2245, -0.0516968, 5.2245, -0.9928589, 5.2245, -0.2125854, 5.2245, 1.259542, 5.2245, 0.3435115, 5.2245, -2.9007633
0.6154412, -0.0273594, 5.23125, -0.0452271, 5.23125, -0.9957275, 5.23125, -0.2124023, 5.23125, 1.2900764, 5.23125, 0.3740458, 5.23125, -2.9389312
0.6162353, -0.0216526, 5.238, -0.0405273, 5.238, -0.9993286, 5.238, -0.215271, 5.238, 1.0763359, 5.238, 0.6793893, 5.238, -2.6183207
0.6170294, -0.0191348, 5.24475, -0.0388794, 5.24475, -0.9942017, 5.24475, -0.2168579, 5.24475, 0.8854962, 5.24475, 1.2824427, 5.24475, -2.648855
0.6178235, -0.0204776, 5.2515, -0.0409546, 5.2515, -0.9949341, 5.2515, -0.2095337, 5.2515, 0.7938932, 5.2515, 1.8244275, 5.2515, -2.7175572
0.6186176, -0.0140993, 5.25825, -0.0446777, 5.25825, -0.9951172, 5.25825, -0.2150269, 5.25825, 1.648855, 5.25825, 2.0076337, 5.25825, -2.5572519
0.6194118, -0.0068818, 5.265, -0.053833, 5.265, -0.9951172, 5.265, -0.2151489, 5.265, 2.4274809, 5.265, 2.4656489, 5.265, -2.480916
0.6202059, -0.0058747, 5.27175, -0.053894, 5.27175, -0.9974976, 5.27175, -0.2116089, 5.27175, 3.1221373, 5.27175, 3.129771, 5.27175, -2.6030533
0.621, -0.0038605, 5.2785, -0.0535278, 5.2785, -0.9932861, 5.2785, -0.2076416, 5.2785, 2.9160306, 5.2785, 2.2748091, 5.2785, -2.4656489
0.6217941, -0.0011749, 5.28525, -0.0438843, 5.28525, -0.9901733, 5.28525, -0.204895, 5.28525, 3.129771, 5.28525, 1.5877863, 5.28525, -2.5496182
0.6225882, -0.002182, 5.292, -0.0348511, 5.292, -0.984314, 5.292, -0.2144165, 5.292, 2.2290077, 5.292, 0.7328244, 5.292, -2.5267177
0.6233824, -0.0045319, 5.29875, -0.0393677, 5.29875, -0.9932251, 5.29875, -0.2128906, 5.29875, 2.3206108, 5.29875, 1.9007634, 5.29875, -2.2671757
0.6241765, -0.0092317, 5.3055, -0.0418701, 5.3055, -0.9953613, 5.3055, -0.2162476, 5.3055, 2.4885497, 5.3055, 2.4122138, 5.3055, -2.1755726
0.6249706, -0.0149386, 5.31225, -0.0446777, 5.31225, -0.9989014, 5.31225, -0.2073364, 5.31225, 1.5419847, 5.31225, 2.2290077, 5.31225, -2.0534351
0.6257647, -0.0172885, 5.319, -0.0531616, 5.319, -0.9973145, 5.319, -0.2056274, 5.319, 0.7175573, 5.319, 2.1145039, 5.319, -2.3435113
0.6265588, -0.0142672, 5.32575, -0.0620117, 5.32575, -0.998291, 5.32575, -0.2044678, 5.32575, 0.2519084, 5.32575, 1.3587786, 5.32575, -2.3664122
0.6273529, -0.0162814, 5.3325, -0.0515137, 5.3325, -0.9984741, 5.3325, -0.2028198, 5.3325, 0.2290076, 5.3325, 0.9770992, 5.3325, -2.8015268
0.6281471, -0.0209812, 5.33925, -0.0509644, 5.33925, -0.9978027, 5.33925, -0.2099609, 5.33925, 0.4274809, 5.33925, 1.091603, 5.33925, -2.8091602
0.6289412, -0.0256809, 5.346, -0.0452271, 5.346, -1.0016479, 5.346, -0.2060547, 5.346, 0.0610687, 5.346, 1.5725191, 5.346, -2.740458
0.6297353, -0.0223239, 5.35275, -0.0419312, 5.35275, -1.0043335, 5.35275, -0.2053833, 5.35275, 0.5954198, 5.35275, 1.610687, 5.35275, -2.7709923
0.6305294, -0.0203098, 5.3595, -0.0394897, 5.3595, -1.0028076, 5.3595, -0.2130127, 5.3595, 0.648855, 5.3595, 1.7328244, 5.3595, -2.6564887
0.6313235, -0.0176242, 5.36625, -0.0393066, 5.36625, -1.0039673, 5.36625, -0.2151489, 5.36625, 1.0687023, 5.36625, 1.4732825, 5.36625, -2.351145
0.6321176, -0.0191348, 5.373, -0.0460815, 5.373, -1.0002441, 5.373, -0.2178955, 5.373, 1.038168, 5.373, 1.3587786, 5.373, -2.6564887
0.6329118, -0.0229953, 5.37975, -0.0481567, 5.37975, -1.0042725, 5.37975, -0.2142944, 5.37975, 1.1221374, 5.37975, 1.5801526, 5.37975, -2.5725191
0.6337059, -0.0146029, 5.3865, -0.0462646, 5.3865, -1.0073242, 5.3865, -0.2145386, 5.3865, 1.3587786, 5.3865, 1.5114504, 5.3865, -2.4961832
0.6345, -0.0109102, 5.39325, -0.0447998, 5.39325, -0.9972534, 5.39325, -0.2189941, 5.39325, 1.5572519, 5.39325, 0.648855, 5.39325, -2.2900763
0.6352941, -0.0062104, 5.4, -0.0500488, 5.4, -0.9976196, 5.4, -0.2130737, 5.4, 1.5572519, 5.4, 1.0534351, 5.4, -2.2137403
0.6360882, 0.0005035, 5.40675, -0.0406494, 5.40675, -0.996521, 5.40675, -0.2150269, 5.40675, 1.740458, 5.40675, 0.6641222, 5.40675, -1.5877863
0.6368824, 0.0035248, 5.4135, -0.0366821, 5.4135, -0.9976807, 5.4135, -0.2109985, 5.4135, 1.1450381, 5.4135, 0.4351145, 5.4135, -1.7633588
0.6376765, 0.0025177, 5.42025, -0.0463867, 5.42025, -0.9934082, 5.42025, -0.2094727, 5.42025, 0.908397, 5.42025, 0.9847328, 5.42025, -1.7099236
0.6384706, -0.0050355, 5.427, -0.0432129, 5.427, -0.9904175, 5.427, -0.2145996, 5.427, 1.0839695, 5.427, 0.9694657, 5.427, -1.8778626
0.6392647, 0.0015106, 5.43375, -0.0419922, 5.43375, -0.9864502, 5.43375, -0.2227173, 5.43375, 0.4198473, 5.43375, -0.1832061, 5.43375, -1.9694656
0.6400588, -0.0031891, 5.4405, -0.0361938, 5.4405, -0.989502, 5.4405, -0.2219849, 5.4405, 0.2824427, 5.4405, 0.7709923, 5.4405, -2.1374047
0.6408529, -0.0109102, 5.44725, -0.0265503, 5.44725, -0.9990234, 5.44725, -0.2133789, 5.44725, 0.4274809, 5.44725, 1.4580153, 5.44725, -2.2366412
0.6416471, -0.0135958, 5.454, -0.0236206, 5.454, -0.9970093, 5.454, -0.2123413, 5.454, 0.740458, 5.454, 1.7557251, 5.454, -2.351145
0.6424412, -0.0129244, 5.46075, -0.0351562, 5.46075, -0.9943237, 5.46075, -0.2147217, 5.46075, 0.6335878, 5.46075, 1.778626, 5.46075, -2.3129771
0.6432353, -0.0162814, 5.4675, -0.0400391, 5.4675, -0.9922485, 5.4675, -0.2179565, 5.4675, 0.5725191, 5.4675, 1.5801526, 5.4675, -2.4732823
0.6440294, -0.0226596, 5.47425, -0.0366211, 5.47425, -0.9906006, 5.47425, -0.2167969, 5.47425, 0.9160305, 5.47425, 1.6335878, 5.47425, -2.6793892
0.6448235, -0.0250095, 5.481, -0.0390015, 5.481, -0.9934692, 5.481, -0.2098389, 5.481, 1.2748091, 5.481, 2.129771, 5.481, -2.7099237
0.6456176, -0.024506, 5.48775, -0.0446167, 5.48775, -0.9921875, 5.48775, -0.2039185, 5.48775, 1.0763359, 5.48775, 1.8015267, 5.48775, -2.6870229
0.6464118, -0.0270237, 5.4945, -0.0408936, 5.4945, -0.993103, 5.4945, -0.2203979, 5.4945, 0.908397, 5.4945, 0.9923664, 5.4945, -2.3816793
0.6472059, -0.0240024, 5.50125, -0.0477905, 5.50125, -0.9915771, 5.50125, -0.2134399, 5.50125, 0.7251908, 5.50125, 1.3587786, 5.50125, -2.6793892
0.648, -0.0250095, 5.508, -0.0562134, 5.508, -0.9971924, 5.508, -0.2174683, 5.508, 0.7251908, 5.508, 2.2671757, 5.508, -2.5496182
0.6487941, -0.0206455, 5.51475, -0.0484619, 5.51475, -0.9953003, 5.51475, -0.2247314, 5.51475, 0.9160305, 5.51475, 2.129771, 5.51475, -1.9847329
0.6495882, -0.0176242, 5.5215, -0.0599365, 5.5215, -0.9963989, 5.5215, -0.2120361, 5.5215, 0.2977099, 5.5215, 1.4045801, 5.5215, -2.0534351
0.6503824, -0.0162814, 5.52825, -0.0700073, 5.52825, -1.0014648, 5.52825, -0.2121582, 5.52825, 0.0381679, 5.52825, 1.2900764, 5.52825, -2.2519083
0.6511765, -0.0077211, 5.535, -0.0593262, 5.535, -1.0020142, 5.535, -0.2129517, 5.535, 0.0839695, 5.535, 0.6564885, 5.535, -2.4198472
0.6519706, -0.0045319, 5.54175, -0.0459595, 5.54175, -0.9992676, 5.54175, -0.2177734, 5.54175, 0.2824427, 5.54175, 0.3358779, 5.54175, -2.4656489
0.6527647, -0.0041962, 5.5485, -0.0535889, 5.5485, -0.9953003, 5.5485, -0.2242432, 5.5485, 0.8396947, 5.5485, 0.7709923, 5.5485, -2.7938931
0.6535588, -0.0008392, 5.55525, -0.0614014, 5.55525, -0.9938965, 5.55525, -0.2227173, 5.55525, 1.0534351, 5.55525, 0.9465649, 5.55525, -2.870229
0.6543529, -0.0008392, 5.562, -0.0565796, 5.562, -0.99646, 5.562, -0.2194824, 5.562, 1.1145039, 5.562, 1.610687, 5.562, -2.7099237
0.6551471, -0.0041962, 5.56875, -0.045105, 5.56875, -1.0025635, 5.56875, -0.2194214, 5.56875, 0.9694657, 5.56875, 1.3587786, 5.56875, -2.6564887
0.6559412, -0.0045319, 5.5755, -0.0540771, 5.5755, -0.9995728, 5.5755, -0.225708, 5.5755, 1.0610687, 5.5755, 0.7328244, 5.5755, -2.5954199
0.6567353, -0.0057069, 5.58225, -0.0542603, 5.58225, -1.000061, 5.58225, -0.2211914, 5.58225, 0.7480916, 5.58225, 0.3587786, 5.58225, -2.6870229
0.6575294, -0.0085603, 5.589, -0.0473022, 5.589, -0.996582, 5.589, -0.2261963, 5.589, 0.3129771, 5.589, 0.4274809, 5.589, -2.3740458
0.6583235, -0.0115816, 5.59575, -0.0415649, 5.59575, -1.0012207, 5.59575, -0.2233887, 5.59575, 0.6183206, 5.59575, 0.6412213, 5.59575, -2.5648854
0.6591176, -0.0176242, 5.6025, -0.0484009, 5.6025, -0.9955444, 5.6025, -0.223877, 5.6025, 0.221374, 5.6025, 0.6870229, 5.6025, -2.5267177
0.6599118, -0.0248417, 5.60925, -0.053772, 5.60925, -0.9992676, 5.60925, -0.2217407, 5.60925, -0.1068702, 5.60925, 1.1374046, 5.60925, -2.6183207
0.6607059, -0.0206455, 5.616, -0.050293, 5.616, -1.0028687, 5.616, -0.2189941, 5.616, -0.3969466, 5.616, 0.9465649, 5.616, -2.6335878
0.6615, -0.0179599, 5.62275, -0.0449829, 5.62275, -1.0022583, 5.62275, -0.2174072, 5.62275, -0.2442748, 5.62275, 0.3435115, 5.62275, -2.4427481
0.6622941, -0.0213169, 5.6295, -0.0404053, 5.6295, -1.0012817, 5.6295, -0.2094116, 5.6295, 0.0687023, 5.6295, 0.9236641, 5.6295, -2.4580152
0.6630882, -0.0240024, 5.63625, -0.0352173, 5.63625, -0.9954834, 5.63625, -0.2143555, 5.63625, -0.0458015, 5.63625, 1.4351145, 5.63625, -2.3053436
0.6638824, -0.0290379, 5.643, -0.0447388, 5.643, -0.9927979, 5.643, -0.2113647, 5.643, 0.1603053, 5.643, 2.0610688, 5.643, -2.4198472
0.6646765, -0.0283665, 5.64975, -0.0453491, 5.64975, -0.9987183, 5.64975, -0.2196655, 5.64975, 0.0992366, 5.64975, 2.3587787, 5.64975, -2.5801528
0.6654706, -0.0223239, 5.6565, -0.0528564, 5.6565, -0.9981689, 5.6565, -0.218689, 5.6565, 0.5648855, 5.6565, 3.0687022, 5.6565, -2.8549619
0.6662647, -0.0246738, 5.66325, -0.0552979, 5.66325, -0.9916992, 5.66325, -0.213562, 5.66325, 0.5267175, 5.66325, 2.908397, 5.66325, -2.7251909
0.6670588, -0.0223239, 5.67, -0.0540161, 5.67, -0.9959106, 5.67, -0.2143555, 5.67, 1.0534351, 5.67, 2.2671757, 5.67, -2.8854961
0.6678529, -0.0203098, 5.67675, -0.0587769, 5.67675, -0.9894409, 5.67675, -0.2155151, 5.67675, 0.8091603, 5.67675, 1.0763359, 5.67675, -2.5648854
0.6686471, -0.0132601, 5.6835, -0.0531006, 5.6835, -0.9927368, 5.6835, -0.2189331, 5.6835, 1.1450381, 5.6835, 0.7480916, 5.6835, -2.519084
0.6694412, -0.0035248, 5.69025, -0.0427246, 5.69025, -0.9951172, 5.69025, -0.2236328, 5.69025, 1.4503816, 5.69025, 0.3587786, 5.69025, -2.8091602
0.6702353, -0.0010071, 5.697, -0.0465088, 5.697, -0.9944458, 5.697, -0.2229614, 5.697, 1.3129771, 5.697, 0.8320611, 5.697, -2.6412213
0.6710294, -0.0001678, 5.70375, -0.0386353, 5.70375, -0.9961548, 5.70375, -0.2203369, 5.70375, 1.0610687, 5.70375, 1.5419847, 5.70375, -2.480916
0.6718235, -0.0031891, 5.7105, -0.0430908, 5.7105, -0.9992676, 5.7105, -0.2124634, 5.7105, 0.3358779, 5.7105, 1.6412214, 5.7105, -2.5648854
0.6726176, -0.0082246, 5.71725, -0.0426636, 5.71725, -0.9980469, 5.71725, -0.2123413, 5.71725, 0.2061069, 5.71725, 1.8854961, 5.71725, -2.4198472
0.6734118, -0.0099031, 5.724, -0.0461426, 5.724, -0.9932251, 5.724, -0.2164917, 5.724, 0.5572519, 5.724, 1.8549619, 5.724, -2.4122138
0.6742059, -0.0068818, 5.73075, -0.0480347, 5.73075, -0.991333, 5.73075, -0.2180786, 5.73075, 0.2824427, 5.73075, 1.5267175, 5.73075, -2.5877862
0.675, -0.0105745, 5.7375, -0.0498047, 5.7375, -0.9923706, 5.7375, -0.2149658, 5.7375, 0.4580153, 5.7375, 1.610687, 5.7375, -2.5877862
0.6757941, -0.0169528, 5.74425, -0.0558472, 5.74425, -0.9938354, 5.74425, -0.2216187, 5.74425, 0.6717557, 5.74425, 1.3587786, 5.74425, -2.7328243
