Application:, Trigno Discover (1.7.0)
Date/Time:, 2026/9/9 下午 12:07:46
Collection Length (seconds):, 41.9985
Avanti Sensor 11 (69574)
sensor mode: 50
EMG 1 Time Series (s), EMG 1 (mV), ACC X Time Series (s), ACC X (G), ACC Y Time Series (s), ACC Y (G), ACC Z Time Series (s), ACC Z (G), GYRO X Time Series (s), GYRO X (deg/s), GYRO Y Time Series (s), GYRO Y (deg/s), GYRO Z Time Series (s), GYRO Z (deg/s)
, 1259.2593 Hz, , 148.1481 Hz, , 148.1481 Hz, , 148.1481 Hz, , 148.1481 Hz, , 148.1481 Hz, , 148.1481 Hz
0, -0.0176242, 0, -0.0915527, 0, -0.9663696, 0, -0.3659058, 0, 1.1450381, 0, 0.908397, 0, -3.0992367
0.0007941, -0.0179599, 0.00675, -0.0907593, 0.00675, -0.9641724, 0.00675, -0.3670654, 0.00675, 1.221374, 0.00675, 0.9847328, 0.00675, -3.0763359
0.0015882, -0.0198062, 0.0135, -0.0930786, 0.0135, -0.9627075, 0.0135, -0.3651123, 0.0135, 1.1832061, 0.0135, 1.0610687, 0.0135, -3.038168
0.0023824, -0.0256809, 0.02025, -0.093689, 0.02025, -0.9645996, 0.02025, -0.3659058, 0.02025, 1.3129771, 0.02025, 0.9007633, 0.02025, -3.1068702
0.0031765, -0.0196384, 0.027, -0.0959473, 0.027, -0.9638062, 0.027, -0.3676147, 0.027, 1.1908396, 0.027, 0.7022901, 0.027, -3.1603053
0.0039706, -0.0137636, 0.03375, -0.0951538, 0.03375, -0.9663086, 0.03375, -0.3640747, 0.03375, 1.1832061, 0.03375, 0.8931298, 0.03375, -3.0839694
0.0047647, -0.0134279, 0.0405, -0.0908203, 0.0405, -0.9620361, 0.0405, -0.3687134, 0.0405, 0.9389313, 0.0405, 1.3053435, 0.0405, -2.9312978
0.0055588, -0.0068818, 0.04725, -0.0910645, 0.04725, -0.9647827, 0.04725, -0.3652344, 0.04725, 0.908397, 0.04725, 1.3358779, 0.04725, -3.129771
0.0063529, -0.002182, 0.054, -0.0927124, 0.054, -0.9677124, 0.054, -0.3659058, 0.054, 0.7938932, 0.054, 1.0687023, 0.054, -3.1526718
0.0071471, -0.0031891, 0.06075, -0.0955811, 0.06075, -0.9621582, 0.06075, -0.3688354, 0.06075, 1.0687023, 0.06075, 1.2671756, 0.06075, -3.1755726
0.0079412, -0.0041962, 0.0675, -0.0933228, 0.0675, -0.961731, 0.0675, -0.3687134, 0.0675, 0.9160305, 0.0675, 1.5343511, 0.0675, -2.961832
0.0087353, -0.0068818, 0.07425, -0.0869751, 0.07425, -0.9680176, 0.07425, -0.3676758, 0.07425, 0.8931298, 0.07425, 1.3969465, 0.07425, -3.1526718
0.0095294, -0.0135958, 0.081, -0.0974121, 0.081, -0.9653931, 0.081, -0.3696899, 0.081, 0.9236641, 0.081, 1.1603054, 0.081, -3.2671757
0.0103235, -0.018967, 0.08775, -0.0949707, 0.08775, -0.9642944, 0.08775, -0.3671265, 0.08775, 0.8015267, 0.08775, 0.5954198, 0.08775, -3.129771
0.0111176, -0.0280308, 0.0945, -0.0953369, 0.0945, -0.9644775, 0.0945, -0.3673706, 0.0945, 0.5038168, 0.0945, 0.0610687, 0.0945, -3.4351146
0.0119118, -0.023331, 0.10125, -0.1009521, 0.10125, -0.9649658, 0.10125, -0.3673096, 0.10125, 0.1068702, 0.10125, -0.1450382, 0.10125, -3.480916
0.0127059, -0.0238346, 0.108, -0.100769, 0.108, -0.9674683, 0.108, -0.3703613, 0.108, -0.0076336, 0.108, 0.1450382, 0.108, -3.610687
0.0135, -0.0263523, 0.11475, -0.0992432, 0.11475, -0.9634399, 0.11475, -0.368042, 0.11475, 0.4503817, 0.11475, 0.389313, 0.11475, -3.3969467
0.0142941, -0.0203098, 0.1215, -0.0963135, 0.1215, -0.9650269, 0.1215, -0.3674316, 0.1215, 0.2442748, 0.1215, 0.2137405, 0.1215, -3.6183207
0.0150882, -0.0099031, 0.12825, -0.0946045, 0.12825, -0.9650269, 0.12825, -0.3643799, 0.12825, 0.1603053, 0.12825, -0.1374046, 0.12825, -3.519084
0.0158824, 0.0035248, 0.135, -0.0908203, 0.135, -0.9630127, 0.135, -0.3662109, 0.135, 0.2366412, 0.135, -0.1603053, 0.135, -3.3435113
0.0166765, 0.0057069, 0.14175, -0.0848999, 0.14175, -0.9608154, 0.14175, -0.362915, 0.14175, 0.1679389, 0.14175, -0.0076336, 0.14175, -3.6335878
0.0174706, -0.0041962, 0.1485, -0.088562, 0.1485, -0.9645996, 0.1485, -0.3569946, 0.1485, 0.3664122, 0.1485, -0.4122137, 0.1485, -3.3282442
0.0182647, -0.0124208, 0.15525, -0.0891724, 0.15525, -0.9625854, 0.15525, -0.3605347, 0.15525, 0.2900763, 0.15525, -0.1832061, 0.15525, -3.5648854
0.0190588, -0.0182956, 0.162, -0.0961914, 0.162, -0.9639282, 0.162, -0.3638916, 0.162, 0.1450382, 0.162, -0.4580153, 0.162, -3.4274809
0.0198529, -0.0194705, 0.16875, -0.0935669, 0.16875, -0.963623, 0.16875, -0.3600464, 0.16875, 0.1145038, 0.16875, -0.7709923, 0.16875, -3.259542
0.0206471, -0.0142672, 0.1755, -0.0895996, 0.1755, -0.9639282, 0.1755, -0.3574219, 0.1755, 0.0839695, 0.1755, -1.0763359, 0.1755, -3.2519083
0.0214412, -0.0092317, 0.18225, -0.0891113, 0.18225, -0.961853, 0.18225, -0.3652954, 0.18225, 0.1755725, 0.18225, -1.0076336, 0.18225, -3.1832061
0.0222353, -0.0072175, 0.189, -0.0861206, 0.189, -0.9638062, 0.189, -0.3637085, 0.189, -0.0839695, 0.189, -0.4198473, 0.189, -3.351145
0.0230294, -0.0095674, 0.19575, -0.0848999, 0.19575, -0.9640503, 0.19575, -0.3641968, 0.19575, 0.1908397, 0.19575, -0.1984733, 0.19575, -3.1679389
0.0238235, -0.0109102, 0.2025, -0.0870361, 0.2025, -0.9644165, 0.2025, -0.3623657, 0.2025, 0.3282443, 0.2025, -0.3435115, 0.2025, -3.3129771
0.0246176, -0.0135958, 0.20925, -0.0911255, 0.20925, -0.9614868, 0.20925, -0.3615723, 0.20925, 0.4045801, 0.20925, -0.6870229, 0.20925, -3.5038168
0.0254118, -0.0132601, 0.216, -0.0935669, 0.216, -0.9602051, 0.216, -0.3665161, 0.216, 0.2061069, 0.216, -0.6259542, 0.216, -3.4198472
0.0262059, -0.011078, 0.22275, -0.0944214, 0.22275, -0.9605103, 0.22275, -0.369873, 0.22275, 0.2366412, 0.22275, -0.221374, 0.22275, -3.3282442
0.027, -0.0105745, 0.2295, -0.0906982, 0.2295, -0.9631958, 0.2295, -0.3682251, 0.2295, 0.2519084, 0.2295, -0.3206107, 0.2295, -3.221374
0.0277941, -0.0115816, 0.23625, -0.0914307, 0.23625, -0.9611206, 0.23625, -0.3634033, 0.23625, 0.1755725, 0.23625, -0.389313, 0.23625, -3.5419848
0.0285882, -0.0109102, 0.243, -0.0979614, 0.243, -0.958313, 0.243, -0.3635864, 0.243, 0.1908397, 0.243, -0.0458015, 0.243, -3.4580152
0.0293824, -0.0151064, 0.24975, -0.1021118, 0.24975, -0.960083, 0.24975, -0.3623657, 0.24975, 0, 0.24975, -0.0687023, 0.24975, -3.4656489
0.0301765, -0.0246738, 0.2565, -0.0984497, 0.2565, -0.9591064, 0.2565, -0.3668823, 0.2565, 0.0076336, 0.2565, -0.3358779, 0.2565, -3.7022901
0.0309706, -0.0283665, 0.26325, -0.0961914, 0.26325, -0.9616089, 0.26325, -0.364563, 0.26325, 0, 0.26325, -0.3435115, 0.26325, -3.610687
0.0317647, -0.0243381, 0.27, -0.0918579, 0.27, -0.9604492, 0.27, -0.369812, 0.27, 0.1984733, 0.27, 0.1679389, 0.27, -3.7022901
0.0325588, -0.0182956, 0.27675, -0.0898438, 0.27675, -0.9597778, 0.27675, -0.3686523, 0.27675, -0.1526718, 0.27675, 0.2824427, 0.27675, -3.6183207
0.0333529, -0.0169528, 0.2835, -0.0888062, 0.2835, -0.9603882, 0.2835, -0.3674316, 0.2835, -0.2824427, 0.2835, 0.3740458, 0.2835, -3.7557251
0.0341471, -0.0166171, 0.29025, -0.0901489, 0.29025, -0.9607544, 0.29025, -0.3705444, 0.29025, -0.259542, 0.29025, 0.2748092, 0.29025, -3.648855
0.0349412, -0.0119173, 0.297, -0.0878906, 0.297, -0.9625854, 0.297, -0.366394, 0.297, -0.0229008, 0.297, 0.1679389, 0.297, -3.6870229
0.0357353, -0.0129244, 0.30375, -0.090332, 0.30375, -0.9629517, 0.30375, -0.3701782, 0.30375, -0.0992366, 0.30375, 0.6183206, 0.30375, -3.7328243
0.0365294, -0.0142672, 0.3105, -0.0952148, 0.3105, -0.9559937, 0.3105, -0.3702393, 0.3105, 0.0076336, 0.3105, 1.1221374, 0.3105, -3.6870229
0.0373235, -0.0152743, 0.31725, -0.0964355, 0.31725, -0.9619751, 0.31725, -0.3689575, 0.31725, -0.0076336, 0.31725, 1.129771, 0.31725, -3.6717558
0.0381176, -0.0142672, 0.324, -0.100647, 0.324, -0.9653931, 0.324, -0.3702393, 0.324, 0.2977099, 0.324, 1.3969465, 0.324, -3.5648854
0.0389118, -0.0137636, 0.33075, -0.0998535, 0.33075, -0.9661255, 0.33075, -0.366272, 0.33075, -0.1221374, 0.33075, 1.3816794, 0.33075, -3.6412213
0.0397059, -0.0142672, 0.3375, -0.1004639, 0.3375, -0.9640503, 0.3375, -0.3669434, 0.3375, 0.0305344, 0.3375, 1.0076336, 0.3375, -3.7633588
0.0405, -0.0129244, 0.34425, -0.0963135, 0.34425, -0.9641724, 0.34425, -0.3685303, 0.34425, 0, 0.34425, 0.9389313, 0.34425, -3.9312978
0.0412941, -0.0164492, 0.351, -0.0929565, 0.351, -0.9642944, 0.351, -0.3687134, 0.351, -0.3435115, 0.351, 0.6412213, 0.351, -4.0687022
0.0420882, -0.0193027, 0.35775, -0.0963135, 0.35775, -0.9660645, 0.35775, -0.3641968, 0.35775, -0.2442748, 0.35775, 0.908397, 0.35775, -4.0152674
0.0428824, -0.0176242, 0.3645, -0.0931396, 0.3645, -0.9644775, 0.3645, -0.3689575, 0.3645, 0.0534351, 0.3645, 1.2748091, 0.3645, -3.6793892
0.0436765, -0.0135958, 0.37125, -0.0881958, 0.37125, -0.9633789, 0.37125, -0.3708496, 0.37125, -0.2061069, 0.37125, 0.7099237, 0.37125, -3.5267177
0.0444706, -0.0132601, 0.378, -0.086731, 0.378, -0.9605103, 0.378, -0.3723755, 0.378, 0.0305344, 0.378, 0.5877863, 0.378, -3.519084
0.0452647, -0.0149386, 0.38475, -0.0883789, 0.38475, -0.9599609, 0.38475, -0.3674316, 0.38475, 0.2748092, 0.38475, 0.7328244, 0.38475, -3.8473282
0.0460588, -0.012253, 0.3915, -0.0908203, 0.3915, -0.9561768, 0.3915, -0.3709717, 0.3915, 0.3129771, 0.3915, 0.6412213, 0.3915, -3.5648854
0.0468529, -0.0095674, 0.39825, -0.0898438, 0.39825, -0.9542847, 0.39825, -0.3709717, 0.39825, 0.1450382, 0.39825, 0.259542, 0.39825, -3.7862597
0.0476471, -0.0124208, 0.405, -0.0932007, 0.405, -0.9549561, 0.405, -0.3699951, 0.405, 0.1603053, 0.405, 0.4122137, 0.405, -3.8396947
0.0484412, -0.0109102, 0.41175, -0.0923462, 0.41175, -0.9588623, 0.41175, -0.3723145, 0.41175, 0.1526718, 0.41175, -0.1603053, 0.41175, -3.9160306
0.0492353, -0.0095674, 0.4185, -0.0939331, 0.4185, -0.9573975, 0.4185, -0.3724976, 0.4185, -0.2900763, 0.4185, -0.6183206, 0.4185, -4.1221375
0.0500294, -0.018967, 0.42525, -0.0942383, 0.42525, -0.9615479, 0.42525, -0.3699951, 0.42525, -0.1221374, 0.42525, -0.6412213, 0.42525, -4.1526718
0.0508235, -0.0216526, 0.432, -0.0906982, 0.432, -0.9630737, 0.432, -0.37146, 0.432, 0.0839695, 0.432, -0.4732825, 0.432, -4.0305343
0.0516176, -0.0223239, 0.43875, -0.0901489, 0.43875, -0.9676514, 0.43875, -0.3690796, 0.43875, 0.0152672, 0.43875, -0.1908397, 0.43875, -4.1603055
0.0524118, -0.0162814, 0.4455, -0.0918579, 0.4455, -0.9708862, 0.4455, -0.3675537, 0.4455, 0.2519084, 0.4455, 0.4503817, 0.4455, -3.9465649
0.0532059, -0.0083925, 0.45225, -0.0912476, 0.45225, -0.9719849, 0.45225, -0.3690796, 0.45225, 0.4961832, 0.45225, 0.6793893, 0.45225, -3.7557251
0.054, -0.005539, 0.459, -0.0927734, 0.459, -0.9719849, 0.459, -0.3704834, 0.459, 0.0458015, 0.459, 0.4961832, 0.459, -3.6412213
0.0547941, -0.0068818, 0.46575, -0.0925293, 0.46575, -0.9710083, 0.46575, -0.3640747, 0.46575, 0.0916031, 0.46575, 1.2519084, 0.46575, -3.740458
0.0555882, -0.0099031, 0.4725, -0.0982056, 0.4725, -0.9716187, 0.4725, -0.3659058, 0.4725, -0.1374046, 0.4725, 1.4045801, 0.4725, -3.6183207
0.0563824, -0.012253, 0.47925, -0.1008301, 0.47925, -0.9651489, 0.47925, -0.3710938, 0.47925, -0.4122137, 0.47925, 1.4961832, 0.47925, -3.740458
0.0571765, -0.0115816, 0.486, -0.095459, 0.486, -0.9622803, 0.486, -0.3756104, 0.486, -0.5572519, 0.486, 1.1984733, 0.486, -3.740458
0.0579706, -0.0082246, 0.49275, -0.098938, 0.49275, -0.9606934, 0.49275, -0.3722534, 0.49275, -0.778626, 0.49275, 1.221374, 0.49275, -3.8396947
0.0587647, -0.0104067, 0.4995, -0.0970459, 0.4995, -0.9592285, 0.4995, -0.3728027, 0.4995, -1.351145, 0.4995, 1.5343511, 0.4995, -3.9847329
0.0595588, -0.0162814, 0.50625, -0.0908813, 0.50625, -0.958374, 0.50625, -0.3738403, 0.50625, -1.8854961, 0.50625, 1.2671756, 0.50625, -4.0229006
0.0603529, -0.0181277, 0.513, -0.0891724, 0.513, -0.9588013, 0.513, -0.3706055, 0.513, -1.9312977, 0.513, 0.8625954, 0.513, -4.1297708
0.0611471, -0.0182956, 0.51975, -0.0856323, 0.51975, -0.9598389, 0.51975, -0.3755493, 0.51975, -1.9389313, 0.51975, 0.5877863, 0.51975, -4.0763359
0.0619412, -0.0246738, 0.5265, -0.0852661, 0.5265, -0.9564819, 0.5265, -0.3803711, 0.5265, -1.5648855, 0.5265, 0.5801527, 0.5265, -4.259542
0.0627353, -0.0216526, 0.53325, -0.0852051, 0.53325, -0.9569702, 0.53325, -0.3773193, 0.53325, -1.7557251, 0.53325, 1.1679389, 0.53325, -3.9694657
0.0635294, -0.0149386, 0.54, -0.0882568, 0.54, -0.9585571, 0.54, -0.3794556, 0.54, -1.8778626, 0.54, 1.3740458, 0.54, -3.9847329
0.0643235, -0.0171206, 0.54675, -0.0874023, 0.54675, -0.9641724, 0.54675, -0.3737793, 0.54675, -1.9389313, 0.54675, 1.2137405, 0.54675, -4.0916033
0.0651176, -0.0193027, 0.5535, -0.0927124, 0.5535, -0.9655762, 0.5535, -0.3748169, 0.5535, -1.5572519, 0.5535, 0.7633588, 0.5535, -3.9465649
0.0659118, -0.0182956, 0.56025, -0.093811, 0.56025, -0.9642944, 0.56025, -0.3783569, 0.56025, -1.4885496, 0.56025, 0.5648855, 0.56025, -3.9923663
0.0667059, -0.0171206, 0.567, -0.0877075, 0.567, -0.9613037, 0.567, -0.3759766, 0.567, -1.4351145, 0.567, 0.3129771, 0.567, -3.9847329
0.0675, -0.0203098, 0.57375, -0.0842285, 0.57375, -0.9633179, 0.57375, -0.3735352, 0.57375, -0.8931298, 0.57375, 0.2977099, 0.57375, -3.9770992
0.0682941, -0.023331, 0.5805, -0.0864258, 0.5805, -0.9660645, 0.5805, -0.3808594, 0.5805, -0.4503817, 0.5805, 0.7328244, 0.5805, -3.9236641
0.0690882, -0.017792, 0.58725, -0.0845947, 0.58725, -0.9598999, 0.58725, -0.3806152, 0.58725, -0.610687, 0.58725, 1.1832061, 0.58725, -3.8167939
0.0698824, -0.0154421, 0.594, -0.085144, 0.594, -0.9593506, 0.594, -0.3847046, 0.594, -0.3358779, 0.594, 1.0305344, 0.594, -3.778626
0.0706765, -0.014435, 0.60075, -0.0872803, 0.60075, -0.9628906, 0.60075, -0.3833618, 0.60075, -0.2977099, 0.60075, 0.6564885, 0.60075, -3.7709923
0.0714706, -0.008896, 0.6075, -0.0888062, 0.6075, -0.9628906, 0.6075, -0.3843994, 0.6075, -0.0534351, 0.6075, 0.5343512, 0.6075, -3.6335878
0.0722647, -0.0078889, 0.61425, -0.085144, 0.61425, -0.9639893, 0.61425, -0.3889771, 0.61425, -0.0610687, 0.61425, 0.4122137, 0.61425, -3.6793892
0.0730588, -0.008896, 0.621, -0.0861206, 0.621, -0.9648438, 0.621, -0.3860474, 0.621, 0.0305344, 0.621, 0.1145038, 0.621, -3.7862597
0.0738529, -0.0125887, 0.62775, -0.0856934, 0.62775, -0.9614868, 0.62775, -0.3879395, 0.62775, 0.1450382, 0.62775, 0.4122137, 0.62775, -3.6946564
0.0746471, -0.012253, 0.6345, -0.088562, 0.6345, -0.9641113, 0.6345, -0.3864746, 0.6345, -0.1450382, 0.6345, 0.3129771, 0.6345, -3.4503818
0.0754412, -0.0104067, 0.64125, -0.0890503, 0.64125, -0.9645996, 0.64125, -0.3862915, 0.64125, -0.0610687, 0.64125, 0.0305344, 0.64125, -3.4885497
0.0762353, -0.0135958, 0.648, -0.0892334, 0.648, -0.9619141, 0.648, -0.3886719, 0.648, 0.3282443, 0.648, 0.0992366, 0.648, -3.6183207
0.0770294, -0.0198062, 0.65475, -0.0848389, 0.65475, -0.960022, 0.65475, -0.3865967, 0.65475, 0.221374, 0.65475, -0.1068702, 0.65475, -3.7938931
0.0778235, -0.0206455, 0.6615, -0.0857544, 0.6615, -0.9597168, 0.6615, -0.387085, 0.6615, 0.0305344, 0.6615, -0.1679389, 0.6615, -3.6641221
0.0786176, -0.0176242, 0.66825, -0.0863037, 0.66825, -0.956543, 0.66825, -0.3876343, 0.66825, 0.2748092, 0.66825, -0.221374, 0.66825, -3.4198472
0.0794118, -0.0152743, 0.675, -0.09021, 0.675, -0.9614258, 0.675, -0.385498, 0.675, 0.4198473, 0.675, -0.0305344, 0.675, -3.5419848
0.0802059, -0.0196384, 0.68175, -0.0894165, 0.68175, -0.961853, 0.68175, -0.3824463, 0.68175, 0.6030535, 0.68175, -0.0381679, 0.68175, -3.5038168
0.081, -0.0162814, 0.6885, -0.0910034, 0.6885, -0.9610596, 0.6885, -0.3862915, 0.6885, 0.6564885, 0.6885, -0.1221374, 0.6885, -3.480916
0.0817941, -0.0135958, 0.69525, -0.0907593, 0.69525, -0.9609985, 0.69525, -0.3804932, 0.69525, 0.4732825, 0.69525, 0.221374, 0.69525, -3.6641221
0.0825882, -0.0112459, 0.702, -0.092041, 0.702, -0.9590454, 0.702, -0.3782959, 0.702, 0.5954198, 0.702, -0.1145038, 0.702, -3.5954199
0.0833824, -0.014435, 0.70875, -0.0965576, 0.70875, -0.9584961, 0.70875, -0.3751831, 0.70875, 0.7251908, 0.70875, -0.5038168, 0.70875, -3.6793892
0.0841765, -0.0196384, 0.7155, -0.0945435, 0.7155, -0.9594116, 0.7155, -0.3786621, 0.7155, 0.648855, 0.7155, -0.6564885, 0.7155, -3.6793892
0.0849706, -0.0206455, 0.72225, -0.0909424, 0.72225, -0.9568481, 0.72225, -0.3811646, 0.72225, 0.9312977, 0.72225, -0.1374046, 0.72225, -3.8167939
0.0857647, -0.023331, 0.729, -0.0872803, 0.729, -0.9602051, 0.729, -0.3780518, 0.729, 0.9923664, 0.729, 0.0076336, 0.729, -3.7251909
0.0865588, -0.0199741, 0.73575, -0.088623, 0.73575, -0.9586792, 0.73575, -0.3805542, 0.73575, 1.3129771, 0.73575, 0.2977099, 0.73575, -3.7328243
0.0873529, -0.0142672, 0.7425, -0.0844116, 0.7425, -0.960144, 0.7425, -0.382019, 0.7425, 1.4351145, 0.7425, 0.3740458, 0.7425, -3.7328243
0.0881471, -0.0129244, 0.74925, -0.086853, 0.74925, -0.9664917, 0.74925, -0.3825073, 0.74925, 1.2824427, 0.74925, 0.2519084, 0.74925, -3.7862597
0.0889412, -0.0132601, 0.756, -0.0888062, 0.756, -0.963623, 0.756, -0.3794556, 0.756, 1.1526718, 0.756, 0.6793893, 0.756, -3.8015268
0.0897353, -0.0104067, 0.76275, -0.0873413, 0.76275, -0.9622803, 0.76275, -0.3782959, 0.76275, 1.3129771, 0.76275, 0.7328244, 0.76275, -3.7251909
0.0905294, -0.012253, 0.7695, -0.0914917, 0.7695, -0.9607544, 0.7695, -0.3770142, 0.7695, 1.0763359, 0.7695, 0.4274809, 0.7695, -3.9770992
0.0913235, -0.0112459, 0.77625, -0.0932617, 0.77625, -0.9592285, 0.77625, -0.3770142, 0.77625, 1.1908396, 0.77625, 0.4198473, 0.77625, -3.8854961
0.0921176, -0.0102388, 0.783, -0.0906372, 0.783, -0.9578247, 0.783, -0.380249, 0.783, 1.1679389, 0.783, 0.3740458, 0.783, -3.9694657
0.0929118, -0.0102388, 0.78975, -0.0936279, 0.78975, -0.956543, 0.78975, -0.3804932, 0.78975, 0.8015267, 0.78975, -0.0534351, 0.78975, -4.221374
0.0937059, -0.0105745, 0.7965, -0.0944214, 0.7965, -0.9596558, 0.7965, -0.3807983, 0.7965, 0.6870229, 0.7965, 0.0534351, 0.7965, -4.2748094
0.0945, -0.01561, 0.80325, -0.0974121, 0.80325, -0.9567261, 0.80325, -0.3840942, 0.80325, 0.2442748, 0.80325, -0.2442748, 0.80325, -4.6564884
0.0952941, -0.0182956, 0.81, -0.0964355, 0.81, -0.9558716, 0.81, -0.3773193, 0.81, 0, 0.81, -0.5419847, 0.81, -4.7175574
0.0960882, -0.0139315, 0.81675, -0.0931396, 0.81675, -0.9598389, 0.81675, -0.3760986, 0.81675, 0.0610687, 0.81675, -0.648855, 0.81675, -4.9312978
0.0968824, -0.0125887, 0.8235, -0.090271, 0.8235, -0.9598389, 0.8235, -0.3809204, 0.8235, 0.2824427, 0.8235, -0.3740458, 0.8235, -4.9236641
0.0976765, -0.0142672, 0.83025, -0.0883179, 0.83025, -0.9550171, 0.83025, -0.380249, 0.83025, 0.3816794, 0.83025, -0.648855, 0.83025, -4.6870227
0.0984706, -0.0193027, 0.837, -0.0895386, 0.837, -0.9581299, 0.837, -0.3812866, 0.837, 0.3053435, 0.837, -0.4961832, 0.837, -4.8244276
0.0992647, -0.0169528, 0.84375, -0.0921631, 0.84375, -0.9605103, 0.84375, -0.37854, 0.84375, 0.3358779, 0.84375, -0.1450382, 0.84375, -4.8778625
0.1000588, -0.0162814, 0.8505, -0.0898438, 0.8505, -0.9613647, 0.8505, -0.3808594, 0.8505, 0.1679389, 0.8505, 0.4961832, 0.8505, -4.519084
0.1008529, -0.01561, 0.85725, -0.0848389, 0.85725, -0.9638062, 0.85725, -0.3811646, 0.85725, 0.2977099, 0.85725, 0.9923664, 0.85725, -4.740458
0.1016471, -0.0119173, 0.864, -0.0858765, 0.864, -0.9605713, 0.864, -0.3800659, 0.864, -0.1374046, 0.864, 1.351145, 0.864, -4.6259542
0.1024412, -0.0099031, 0.87075, -0.0874634, 0.87075, -0.9597168, 0.87075, -0.380249, 0.87075, -0.1374046, 0.87075, 1.4427481, 0.87075, -4.5648856
0.1032353, -0.0082246, 0.8775, -0.0866089, 0.8775, -0.9604492, 0.8775, -0.380127, 0.8775, 0.0916031, 0.8775, 1.7175573, 0.8775, -4.4045801
0.1040294, -0.0031891, 0.88425, -0.0828247, 0.88425, -0.9643555, 0.88425, -0.37677, 0.88425, 0.4656489, 0.88425, 2.0992367, 0.88425, -4.3969464
0.1048235, -0.0124208, 0.891, -0.0830688, 0.891, -0.9634399, 0.891, -0.3773804, 0.891, 0.5114504, 0.891, 1.8167939, 0.891, -4.3740458
0.1056176, -0.0293736, 0.89775, -0.0807495, 0.89775, -0.9656372, 0.89775, -0.3753052, 0.89775, 0.4580153, 0.89775, 2.3053436, 0.89775, -4.1221375
0.1064118, -0.0234989, 0.9045, -0.0758667, 0.9045, -0.9593506, 0.9045, -0.380188, 0.9045, 0.351145, 0.9045, 2.6030533, 0.9045, -4.0610685
0.1072059, -0.0124208, 0.91125, -0.0733643, 0.91125, -0.9605103, 0.91125, -0.380249, 0.91125, 0.1755725, 0.91125, 2.9236641, 0.91125, -3.7480917
0.108, -0.008896, 0.918, -0.0723267, 0.918, -0.9612427, 0.918, -0.3744507, 0.918, 0.1145038, 0.918, 3.2748091, 0.918, -3.7862597
0.1087941, -0.0129244, 0.92475, -0.0745239, 0.92475, -0.9590454, 0.92475, -0.3728638, 0.92475, 0.1679389, 0.92475, 3.4503818, 0.92475, -3.6946564
0.1095882, -0.0149386, 0.9315, -0.0777588, 0.9315, -0.9599609, 0.9315, -0.3728638, 0.9315, -0.0381679, 0.9315, 3.3206108, 0.9315, -3.2519083
0.1103824, -0.0109102, 0.93825, -0.0840454, 0.93825, -0.9592896, 0.93825, -0.3729858, 0.93825, 0.0381679, 0.93825, 3.1526718, 0.93825, -3.5343511
0.1111765, -0.005539, 0.945, -0.0861816, 0.945, -0.9587402, 0.945, -0.3758545, 0.945, -0.1068702, 0.945, 2.8015268, 0.945, -3.3053436
0.1119706, -0.0068818, 0.95175, -0.088562, 0.95175, -0.9581299, 0.95175, -0.3778687, 0.95175, -0.1450382, 0.95175, 2.1755726, 0.95175, -3.4351146
0.1127647, -0.0119173, 0.9585, -0.0877075, 0.9585, -0.958374, 0.9585, -0.3783569, 0.9585, -0.0916031, 0.9585, 1.8931298, 0.9585, -3.6183207
0.1135588, -0.0127565, 0.96525, -0.0844727, 0.96525, -0.9585571, 0.96525, -0.3821411, 0.96525, -0.2366412, 0.96525, 1.6717557, 0.96525, -3.6259542
0.1143529, -0.0105745, 0.972, -0.0823364, 0.972, -0.9591064, 0.972, -0.3892212, 0.972, -0.2290076, 0.972, 1.9541985, 0.972, -3.480916
0.1151471, -0.0219883, 0.97875, -0.0837402, 0.97875, -0.9564819, 0.97875, -0.3876343, 0.97875, -0.4274809, 0.97875, 1.9465649, 0.97875, -3.4656489
0.1159412, -0.0360876, 0.9855, -0.085022, 0.9855, -0.9573364, 0.9855, -0.3821411, 0.9855, -0.2977099, 0.9855, 2.221374, 0.9855, -3.3816793
0.1167353, -0.0332341, 0.99225, -0.0909424, 0.99225, -0.9588013, 0.99225, -0.3807373, 0.99225, -0.6717557, 0.99225, 2.0305343, 0.99225, -3.4961832
0.1175294, -0.0283665, 0.999, -0.0932617, 0.999, -0.9592896, 0.999, -0.3814087, 0.999, -0.6259542, 0.999, 2.3740458, 0.999, -3.3435113
0.1183235, -0.0226596, 1.00575, -0.0873413, 1.00575, -0.9619141, 1.00575, -0.3869019, 1.00575, -0.7633588, 1.00575, 1.9847329, 1.00575, -3.3129771
0.1191176, -0.0048676, 1.0125, -0.0891113, 1.0125, -0.963623, 1.0125, -0.385437, 1.0125, -0.6030535, 1.0125, 1.3969465, 1.0125, -3.5648854
0.1199118, 0.0050355, 1.01925, -0.0908813, 1.01925, -0.9629517, 1.01925, -0.3840942, 1.01925, -0.389313, 1.01925, 1.0534351, 1.01925, -3.5572519
0.1207059, 0.0068818, 1.026, -0.0827026, 1.026, -0.9613037, 1.026, -0.3842773, 1.026, -0.3664122, 1.026, 0.7022901, 1.026, -3.6946564
0.1215, 0.0099031, 1.03275, -0.0854492, 1.03275, -0.9643555, 1.03275, -0.3842163, 1.03275, -0.5877863, 1.03275, 0.3206107, 1.03275, -3.6641221
0.1222941, 0.0005035, 1.0395, -0.0875854, 1.0395, -0.9606323, 1.0395, -0.3898315, 1.0395, -0.6641222, 1.0395, 0.5114504, 1.0395, -3.6641221
0.1230882, -0.0082246, 1.04625, -0.081604, 1.04625, -0.9585571, 1.04625, -0.3912964, 1.04625, -0.648855, 1.04625, 0.6183206, 1.04625, -3.5419848
0.1238824, -0.0115816, 1.053, -0.0793457, 1.053, -0.9539795, 1.053, -0.3949585, 1.053, -0.4732825, 1.053, 0.908397, 1.053, -3.4580152
0.1246765, -0.0139315, 1.05975, -0.0785522, 1.05975, -0.9554443, 1.05975, -0.397583, 1.05975, -0.4656489, 1.05975, 0.9770992, 1.05975, -3.4961832
0.1254706, -0.0164492, 1.0665, -0.0797119, 1.0665, -0.9541016, 1.0665, -0.394043, 1.0665, 0.0839695, 1.0665, 1.0458015, 1.0665, -3.6946564
0.1262647, -0.0171206, 1.07325, -0.0923462, 1.07325, -0.9551392, 1.07325, -0.3899536, 1.07325, 0.0763359, 1.07325, 1.1984733, 1.07325, -3.5343511
0.1270588, -0.014435, 1.08, -0.0914307, 1.08, -0.9535522, 1.08, -0.3916626, 1.08, 0.1374046, 1.08, 1.1068702, 1.08, -3.4656489
0.1278529, -0.0146029, 1.08675, -0.088501, 1.08675, -0.956665, 1.08675, -0.3933105, 1.08675, 0.2366412, 1.08675, 1.1145039, 1.08675, -3.5419848
0.1286471, -0.0181277, 1.0935, -0.09375, 1.0935, -0.9597168, 1.0935, -0.3903809, 1.0935, 0.4732825, 1.0935, 0.740458, 1.0935, -3.8320611
0.1294412, -0.0203098, 1.10025, -0.0977783, 1.10025, -0.9572144, 1.10025, -0.3920288, 1.10025, 0.5038168, 1.10025, 0.2137405, 1.10025, -3.9160306
0.1302353, -0.018967, 1.107, -0.0921631, 1.107, -0.9579468, 1.107, -0.3909912, 1.107, 0.0076336, 1.107, -1.1603054, 1.107, -4.2137403
0.1310294, -0.0132601, 1.11375, -0.0878906, 1.11375, -0.9581299, 1.11375, -0.3858643, 1.11375, -0.1374046, 1.11375, -1.6335878, 1.11375, -4.3053436
0.1318235, -0.0166171, 1.1205, -0.0831909, 1.1205, -0.9602661, 1.1205, -0.3903198, 1.1205, -0.0839695, 1.1205, -1.5801526, 1.1205, -4.3969464
0.1326176, -0.0198062, 1.12725, -0.0859375, 1.12725, -0.960144, 1.12725, -0.3839111, 1.12725, -0.3282443, 1.12725, -1.480916, 1.12725, -4.4351144
0.1334118, -0.0234989, 1.134, -0.0870972, 1.134, -0.9538574, 1.134, -0.3815308, 1.134, -0.2519084, 1.134, -1.3587786, 1.134, -4.3053436
0.1342059, -0.0236667, 1.14075, -0.0896606, 1.14075, -0.9545898, 1.14075, -0.3884888, 1.14075, -0.4427481, 1.14075, -1.3129771, 1.14075, -4.2900763
0.135, -0.0224918, 1.1475, -0.0899658, 1.1475, -0.9573364, 1.1475, -0.3909302, 1.1475, -0.6335878, 1.1475, -1.3282443, 1.1475, -4.221374
0.1357941, -0.0219883, 1.15425, -0.0883179, 1.15425, -0.9621582, 1.15425, -0.3869629, 1.15425, -0.1603053, 1.15425, -1.2748091, 1.15425, -4.2900763
0.1365882, -0.0209812, 1.161, -0.0847778, 1.161, -0.9641113, 1.161, -0.3842773, 1.161, -0.2442748, 1.161, -1.5114504, 1.161, -4.5038166
0.1373824, -0.0146029, 1.16775, -0.081604, 1.16775, -0.9623413, 1.16775, -0.3856812, 1.16775, -0.1755725, 1.16775, -1.648855, 1.16775, -4.3816795
0.1381765, -0.011078, 1.1745, -0.0742188, 1.1745, -0.9602661, 1.1745, -0.3858643, 1.1745, -0.1374046, 1.1745, -1.3664122, 1.1745, -4.1908398
0.1389706, -0.0142672, 1.18125, -0.0755005, 1.18125, -0.9579468, 1.18125, -0.3897705, 1.18125, -0.0763359, 1.18125, -1.129771, 1.18125, -4.038168
0.1397647, -0.0137636, 1.188, -0.0778198, 1.188, -0.9581299, 1.188, -0.3922119, 1.188, 0.0305344, 1.188, -0.5114504, 1.188, -3.8625953
0.1405588, -0.0119173, 1.19475, -0.078064, 1.19475, -0.9599609, 1.19475, -0.3914185, 1.19475, -0.0152672, 1.19475, -0.0992366, 1.19475, -3.778626
0.1413529, -0.0129244, 1.2015, -0.0840454, 1.2015, -0.9622803, 1.2015, -0.3874512, 1.2015, 0.2748092, 1.2015, 0.2977099, 1.2015, -4.1984735
0.1421471, -0.0159457, 1.20825, -0.0883789, 1.20825, -0.9589233, 1.20825, -0.3916016, 1.20825, 0.0229008, 1.20825, 0.2671756, 1.20825, -3.9770992
0.1429412, -0.0149386, 1.215, -0.0916748, 1.215, -0.9608765, 1.215, -0.3903198, 1.215, -0.0610687, 1.215, 0.0839695, 1.215, -4.0916033
0.1437353, -0.0112459, 1.22175, -0.0901489, 1.22175, -0.9581299, 1.22175, -0.390625, 1.22175, 0.1221374, 1.22175, 0.0687023, 1.22175, -3.9847329
0.1445294, -0.0135958, 1.2285, -0.0952759, 1.2285, -0.9580688, 1.2285, -0.3918457, 1.2285, 0.1908397, 1.2285, -0.0152672, 1.2285, -4.0763359
0.1453235, -0.0142672, 1.23525, -0.0914307, 1.23525, -0.9590454, 1.23525, -0.3903198, 1.23525, 0.2900763, 1.23525, -0.1908397, 1.23525, -4.2442746
0.1461176, -0.0152743, 1.242, -0.085083, 1.242, -0.9572754, 1.242, -0.3912354, 1.242, 0.3435115, 1.242, -0.3664122, 1.242, -4.4122138
0.1469118, -0.0206455, 1.24875, -0.0775146, 1.24875, -0.9570312, 1.24875, -0.3943481, 1.24875, 0.3053435, 1.24875, -0.5496183, 1.24875, -4.4580154
0.1477059, -0.01561, 1.2555, -0.0773926, 1.2555, -0.956543, 1.2555, -0.3939209, 1.2555, 0.3664122, 1.2555, -0.4351145, 1.2555, -4.2671757
0.1485, -0.0139315, 1.26225, -0.0755005, 1.26225, -0.9567871, 1.26225, -0.3925781, 1.26225, 0.4198473, 1.26225, -0.4580153, 1.26225, -4.3358779
0.1492941, -0.0125887, 1.269, -0.0748291, 1.269, -0.9526367, 1.269, -0.3873291, 1.269, 0.1755725, 1.269, -0.3282443, 1.269, -4.3282442
0.1500882, -0.0095674, 1.27575, -0.0747681, 1.27575, -0.9498291, 1.27575, -0.3882446, 1.27575, 0.4427481, 1.27575, -0.2137405, 1.27575, -4.0305343
0.1508824, -0.0125887, 1.2825, -0.0787354, 1.2825, -0.9488525, 1.2825, -0.3909912, 1.2825, 0.1450382, 1.2825, 0.2519084, 1.2825, -4.0152674
0.1516765, -0.0159457, 1.28925, -0.0666504, 1.28925, -0.9500732, 1.28925, -0.3868408, 1.28925, 0.3587786, 1.28925, 0.2824427, 1.28925, -3.7633588
0.1524706, -0.0182956, 1.296, -0.0692139, 1.296, -0.9514771, 1.296, -0.3858643, 1.296, 0.3053435, 1.296, 0.5267175, 1.296, -3.740458
0.1532647, -0.0224918, 1.30275, -0.0697632, 1.30275, -0.9570923, 1.30275, -0.3842773, 1.30275, 0.4198473, 1.30275, 0.7480916, 1.30275, -3.4580152
0.1540588, -0.0234989, 1.3095, -0.0664062, 1.3095, -0.9587402, 1.3095, -0.3892822, 1.3095, 0.1374046, 1.3095, 1.0534351, 1.3095, -3.3129771
0.1548529, -0.0117494, 1.31625, -0.0700073, 1.31625, -0.958313, 1.31625, -0.3864746, 1.31625, -0.2748092, 1.31625, 1.3129771, 1.31625, -3.2061069
0.1556471, -0.0068818, 1.323, -0.0758057, 1.323, -0.9598389, 1.323, -0.3838501, 1.323, -0.1526718, 1.323, 1.9694656, 1.323, -2.961832
0.1564412, -0.012253, 1.32975, -0.0776978, 1.32975, -0.9585571, 1.32975, -0.3829346, 1.32975, -0.129771, 1.32975, 2.4045801, 1.32975, -2.7557251
0.1572353, -0.0095674, 1.3365, -0.0788574, 1.3365, -0.9627075, 1.3365, -0.3824463, 1.3365, -0.7099237, 1.3365, 2.519084, 1.3365, -2.5496182
0.1580294, -0.0060426, 1.34325, -0.0793457, 1.34325, -0.9620361, 1.34325, -0.3823853, 1.34325, -0.8320611, 1.34325, 2.6793892, 1.34325, -2.5572519
0.1588235, -0.0095674, 1.35, -0.074585, 1.35, -0.9616699, 1.35, -0.3865356, 1.35, -0.7022901, 1.35, 2.8473282, 1.35, -2.6717558
0.1596176, -0.0151064, 1.35675, -0.0708008, 1.35675, -0.9616089, 1.35675, -0.3856201, 1.35675, -0.6870229, 1.35675, 2.9389312, 1.35675, -2.3358779
0.1604118, -0.01561, 1.3635, -0.0747681, 1.3635, -0.9578857, 1.3635, -0.3823853, 1.3635, -0.4732825, 1.3635, 3.3664122, 1.3635, -2.091603
0.1612059, -0.0171206, 1.37025, -0.0751343, 1.37025, -0.953186, 1.37025, -0.3856201, 1.37025, -0.5801527, 1.37025, 3.7557251, 1.37025, -2.1526718
0.162, -0.0229953, 1.377, -0.0764771, 1.377, -0.9512939, 1.377, -0.3880005, 1.377, -0.8396947, 1.377, 3.5496182, 1.377, -2.1221373
0.1627941, -0.0176242, 1.38375, -0.0803223, 1.38375, -0.9536743, 1.38375, -0.3893433, 1.38375, -1, 1.38375, 3.259542, 1.38375, -2.091603
0.1635882, -0.0135958, 1.3905, -0.0838013, 1.3905, -0.9567261, 1.3905, -0.3922729, 1.3905, -1.0458015, 1.3905, 2.908397, 1.3905, -2.1603053
0.1643824, -0.0142672, 1.39725, -0.0879517, 1.39725, -0.9570312, 1.39725, -0.3905029, 1.39725, -0.9389313, 1.39725, 2.9160306, 1.39725, -2.1450381
0.1651765, -0.0129244, 1.404, -0.0858765, 1.404, -0.9523926, 1.404, -0.3900757, 1.404, -1.1984733, 1.404, 2.5343511, 1.404, -2.1984732
0.1659706, -0.012253, 1.41075, -0.0911255, 1.41075, -0.9545288, 1.41075, -0.3901978, 1.41075, -1.1908396, 1.41075, 2.0610688, 1.41075, -2.1984732
0.1667647, -0.0135958, 1.4175, -0.0880127, 1.4175, -0.9555664, 1.4175, -0.3920898, 1.4175, -1.2290076, 1.4175, 2.2977099, 1.4175, -2.221374
0.1675588, -0.0169528, 1.42425, -0.0806274, 1.42425, -0.9568481, 1.42425, -0.395752, 1.42425, -1.129771, 1.42425, 2.5114503, 1.42425, -2.4045801
0.1683529, -0.0193027, 1.431, -0.0844727, 1.431, -0.9556274, 1.431, -0.4005127, 1.431, -1.1221374, 1.431, 2.2290077, 1.431, -2.5725191
0.1691471, -0.0179599, 1.43775, -0.0913696, 1.43775, -0.9580078, 1.43775, -0.4000854, 1.43775, -0.9465649, 1.43775, 1.9312977, 1.43775, -2.5801528
0.1699412, -0.0172885, 1.4445, -0.0866089, 1.4445, -0.9555054, 1.4445, -0.4067383, 1.4445, -0.778626, 1.4445, 1.7251909, 1.4445, -2.5419848
0.1707353, -0.018967, 1.45125, -0.0804443, 1.45125, -0.9564209, 1.45125, -0.4031982, 1.45125, -1.2137405, 1.45125, 1.4503816, 1.45125, -2.908397
0.1715294, -0.0179599, 1.458, -0.0772705, 1.458, -0.9541016, 1.458, -0.4018555, 1.458, -0.9770992, 1.458, 1.5038168, 1.458, -2.8473282
0.1723235, -0.0161135, 1.46475, -0.0806274, 1.46475, -0.956543, 1.46475, -0.4013672, 1.46475, -0.8091603, 1.46475, 1.5419847, 1.46475, -2.9007633
0.1731176, -0.0129244, 1.4715, -0.0787354, 1.4715, -0.9587402, 1.4715, -0.4042358, 1.4715, -0.740458, 1.4715, 1.8931298, 1.4715, -2.5954199
0.1739118, -0.0109102, 1.47825, -0.0811768, 1.47825, -0.9588623, 1.47825, -0.3991089, 1.47825, -0.9312977, 1.47825, 2.0992367, 1.47825, -2.7557251
0.1747059, -0.0129244, 1.485, -0.0877686, 1.485, -0.9606934, 1.485, -0.3963623, 1.485, -0.908397, 1.485, 2.4122138, 1.485, -2.6870229
0.1755, -0.012253, 1.49175, -0.0849609, 1.49175, -0.9587402, 1.49175, -0.3973389, 1.49175, -1.0992366, 1.49175, 2.7328243, 1.49175, -2.4427481
0.1762941, -0.0119173, 1.4985, -0.081665, 1.4985, -0.9592285, 1.4985, -0.3989868, 1.4985, -1.3053435, 1.4985, 2.6641221, 1.4985, -2.6335878
0.1770882, -0.012253, 1.50525, -0.0855103, 1.50525, -0.958374, 1.50525, -0.395874, 1.50525, -1.1908396, 1.50525, 2.870229, 1.50525, -2.5877862
0.1778824, -0.0132601, 1.512, -0.0824585, 1.512, -0.9547729, 1.512, -0.3980713, 1.512, -1.2824427, 1.512, 2.8931298, 1.512, -2.3969467
0.1786765, -0.0166171, 1.51875, -0.085144, 1.51875, -0.9564819, 1.51875, -0.3966064, 1.51875, -1.2900764, 1.51875, 2.2977099, 1.51875, -2.5877862
0.1794706, -0.0139315, 1.5255, -0.09375, 1.5255, -0.9553223, 1.5255, -0.3959961, 1.5255, -1.1984733, 1.5255, 2.0839694, 1.5255, -2.6946564
0.1802647, -0.0146029, 1.53225, -0.0950317, 1.53225, -0.9515991, 1.53225, -0.3982544, 1.53225, -1.038168, 1.53225, 1.8625954, 1.53225, -2.6030533
0.1810588, -0.0172885, 1.539, -0.0848999, 1.539, -0.9553833, 1.539, -0.3977051, 1.539, -1.0687023, 1.539, 1.4274809, 1.539, -2.778626
0.1818529, -0.0162814, 1.54575, -0.0841064, 1.54575, -0.9501343, 1.54575, -0.3984375, 1.54575, -0.908397, 1.54575, 1.6335878, 1.54575, -2.870229
0.1826471, -0.0095674, 1.5525, -0.0814209, 1.5525, -0.9487915, 1.5525, -0.4007568, 1.5525, -1.0458015, 1.5525, 1.4885496, 1.5525, -2.8244274
0.1834412, -0.0075532, 1.55925, -0.0860596, 1.55925, -0.9508667, 1.55925, -0.4007568, 1.55925, -1.1221374, 1.55925, 1.3740458, 1.55925, -2.7251909
0.1842353, -0.0112459, 1.566, -0.0779419, 1.566, -0.9545288, 1.566, -0.4011841, 1.566, -1.1755725, 1.566, 1.3969465, 1.566, -2.8473282
0.1850294, -0.0142672, 1.57275, -0.0762329, 1.57275, -0.9555054, 1.57275, -0.399353, 1.57275, -1.0763359, 1.57275, 1.259542, 1.57275, -2.8091602
0.1858235, -0.0135958, 1.5795, -0.0800171, 1.5795, -0.9523315, 1.5795, -0.3979492, 1.5795, -1.091603, 1.5795, 1.3358779, 1.5795, -3.0687022
0.1866176, -0.0139315, 1.58625, -0.0841675, 1.58625, -0.9508667, 1.58625, -0.4005127, 1.58625, -0.6564885, 1.58625, 1.2977099, 1.58625, -2.7022901
0.1874118, -0.0182956, 1.593, -0.0840454, 1.593, -0.9498901, 1.593, -0.401062, 1.593, -0.3282443, 1.593, 1.5725191, 1.593, -2.8625953
0.1882059, -0.023331, 1.59975, -0.0839233, 1.59975, -0.9483032, 1.59975, -0.4046631, 1.59975, -0.2137405, 1.59975, 1.740458, 1.59975, -2.6870229
0.189, -0.0157778, 1.6065, -0.0865479, 1.6065, -0.9494629, 1.6065, -0.4002686, 1.6065, -0.2442748, 1.6065, 1.8473282, 1.6065, -2.8778627
0.1897941, -0.0102388, 1.61325, -0.0862427, 1.61325, -0.9493408, 1.61325, -0.3994141, 1.61325, -0.5038168, 1.61325, 1.8015267, 1.61325, -2.9312978
0.1905882, -0.0142672, 1.62, -0.0880127, 1.62, -0.9510498, 1.62, -0.4020386, 1.62, -0.6259542, 1.62, 1.351145, 1.62, -2.9236641
0.1913824, -0.0176242, 1.62675, -0.085144, 1.62675, -0.9499512, 1.62675, -0.4019775, 1.62675, -0.778626, 1.62675, 1.2671756, 1.62675, -3.1603053
0.1921765, -0.0196384, 1.6335, -0.0803833, 1.6335, -0.9559326, 1.6335, -0.3988037, 1.6335, -0.8854962, 1.6335, 1.0534351, 1.6335, -3.1603053
0.1929706, -0.0125887, 1.64025, -0.0786133, 1.64025, -0.9537964, 1.64025, -0.3955688, 1.64025, -0.7862595, 1.64025, 1.0076336, 1.64025, -3.038168
0.1937647, -0.012253, 1.647, -0.0783081, 1.647, -0.9538574, 1.647, -0.397644, 1.647, -0.7862595, 1.647, 1.1450381, 1.647, -2.9541984
0.1945588, -0.0203098, 1.65375, -0.0809937, 1.65375, -0.9563599, 1.65375, -0.4003296, 1.65375, -1.1145039, 1.65375, 1.0229008, 1.65375, -2.8778627
0.1953529, -0.0203098, 1.6605, -0.085083, 1.6605, -0.9561157, 1.6605, -0.4016113, 1.6605, -0.870229, 1.6605, 1.0992366, 1.6605, -3.1221373
0.1961471, -0.01561, 1.66725, -0.0841064, 1.66725, -0.9528809, 1.66725, -0.4004517, 1.66725, -1.0152671, 1.66725, 0.8625954, 1.66725, -2.9770992
0.1969412, -0.0125887, 1.674, -0.0881958, 1.674, -0.9518433, 1.674, -0.40271, 1.674, -1.0687023, 1.674, 0.6564885, 1.674, -3.1679389
0.1977353, -0.0117494, 1.68075, -0.0914307, 1.68075, -0.949585, 1.68075, -0.4007568, 1.68075, -0.9770992, 1.68075, 0.6870229, 1.68075, -3.1679389
0.1985294, -0.0157778, 1.6875, -0.086853, 1.6875, -0.9501343, 1.6875, -0.4042358, 1.6875, -1.0839695, 1.6875, 0.6259542, 1.6875, -3.1068702
0.1993235, -0.0159457, 1.69425, -0.0858765, 1.69425, -0.9526978, 1.69425, -0.4074707, 1.69425, -1.129771, 1.69425, 0.5343512, 1.69425, -3.0687022
0.2001176, -0.0132601, 1.701, -0.0928345, 1.701, -0.9536133, 1.701, -0.4038696, 1.701, -1.2519084, 1.701, 0.5801527, 1.701, -3.1450381
0.2009118, -0.017792, 1.70775, -0.093811, 1.70775, -0.9514771, 1.70775, -0.4070435, 1.70775, -1.0763359, 1.70775, 0.8015267, 1.70775, -3.1450381
0.2017059, -0.0184634, 1.7145, -0.0871582, 1.7145, -0.9523315, 1.7145, -0.4033813, 1.7145, -1.2366412, 1.7145, 0.5725191, 1.7145, -3.1603053
0.2025, -0.0166171, 1.72125, -0.0801392, 1.72125, -0.9556274, 1.72125, -0.4050293, 1.72125, -1.1908396, 1.72125, 0.6793893, 1.72125, -3.091603
0.2032941, -0.0139315, 1.728, -0.0828247, 1.728, -0.9541626, 1.728, -0.4043579, 1.728, -0.8625954, 1.728, 1.0152671, 1.728, -3.0839694
0.2040882, -0.012253, 1.73475, -0.0805664, 1.73475, -0.9483032, 1.73475, -0.4077148, 1.73475, -0.7709923, 1.73475, 0.9923664, 1.73475, -3.0305343
0.2048824, -0.0102388, 1.7415, -0.0737915, 1.7415, -0.9516602, 1.7415, -0.4105835, 1.7415, -0.961832, 1.7415, 0.8549618, 1.7415, -3.1374047
0.2056765, -0.0082246, 1.74825, -0.0769043, 1.74825, -0.9535522, 1.74825, -0.4053345, 1.74825, -0.9389313, 1.74825, 1.0992366, 1.74825, -3.0305343
0.2064706, -0.0082246, 1.755, -0.0797119, 1.755, -0.9501343, 1.755, -0.4044189, 1.755, -0.9389313, 1.755, 1.5114504, 1.755, -3.0534351
0.2072647, -0.0099031, 1.76175, -0.0783081, 1.76175, -0.9498901, 1.76175, -0.4073486, 1.76175, -1.0152671, 1.76175, 1.3969465, 1.76175, -2.961832
0.2080588, -0.0095674, 1.7685, -0.0809326, 1.7685, -0.9509277, 1.7685, -0.4100342, 1.7685, -1.1221374, 1.7685, 1.2977099, 1.7685, -2.9694657
0.2088529, -0.018967, 1.77525, -0.0874634, 1.77525, -0.9475708, 1.77525, -0.4102783, 1.77525, -0.7633588, 1.77525, 1.389313, 1.77525, -3.038168
0.2096471, -0.0226596, 1.782, -0.0889282, 1.782, -0.9493408, 1.782, -0.4067993, 1.782, -1.2824427, 1.782, 1.0152671, 1.782, -3.1526718
0.2104412, -0.0186313, 1.78875, -0.0911865, 1.78875, -0.953125, 1.78875, -0.4067993, 1.78875, -1.3587786, 1.78875, 0.6259542, 1.78875, -3.351145
0.2112353, -0.0169528, 1.7955, -0.09198, 1.7955, -0.9506836, 1.7955, -0.4092407, 1.7955, -1.2977099, 1.7955, 0.4351145, 1.7955, -3.2137403
0.2120294, -0.0169528, 1.80225, -0.088623, 1.80225, -0.9502563, 1.80225, -0.4120483, 1.80225, -1.2977099, 1.80225, 0.3282443, 1.80225, -3.480916
0.2128235, -0.0167849, 1.809, -0.0873413, 1.809, -0.9490356, 1.809, -0.4098511, 1.809, -1.0610687, 1.809, 0.0305344, 1.809, -3.7099237
0.2136176, -0.0142672, 1.81575, -0.0872803, 1.81575, -0.9480591, 1.81575, -0.4089355, 1.81575, -0.9694657, 1.81575, -0.3969466, 1.81575, -3.6259542
0.2144118, -0.0142672, 1.8225, -0.0863647, 1.8225, -0.9490356, 1.8225, -0.4128418, 1.8225, -0.961832, 1.8225, -0.4732825, 1.8225, -3.6259542
0.2152059, -0.0137636, 1.82925, -0.0869141, 1.82925, -0.9485474, 1.82925, -0.4151001, 1.82925, -0.9236641, 1.82925, -0.648855, 1.82925, -3.7862597
0.216, -0.0129244, 1.836, -0.083252, 1.836, -0.9494629, 1.836, -0.4172363, 1.836, -0.7175573, 1.836, -0.5801527, 1.836, -3.6564887
0.2167941, -0.0152743, 1.84275, -0.0841064, 1.84275, -0.9518433, 1.84275, -0.4140625, 1.84275, -0.3740458, 1.84275, -0.610687, 1.84275, -3.778626
0.2175882, -0.0171206, 1.8495, -0.0811157, 1.8495, -0.9516602, 1.8495, -0.4121704, 1.8495, -0.0763359, 1.8495, -0.6717557, 1.8495, -3.8167939
0.2183824, -0.0157778, 1.85625, -0.0840454, 1.85625, -0.9503174, 1.85625, -0.4160156, 1.85625, 0.4274809, 1.85625, -0.7633588, 1.85625, -3.7862597
0.2191765, -0.0149386, 1.863, -0.0837402, 1.863, -0.9474487, 1.863, -0.4203491, 1.863, 0.4503817, 1.863, -0.961832, 1.863, -3.8549619
0.2199706, -0.0169528, 1.86975, -0.0877686, 1.86975, -0.949585, 1.86975, -0.4212036, 1.86975, 0.4885496, 1.86975, -0.1755725, 1.86975, -3.9236641
0.2207647, -0.0182956, 1.8765, -0.0906372, 1.8765, -0.9501343, 1.8765, -0.414917, 1.8765, 0.4503817, 1.8765, 0.4885496, 1.8765, -3.8778627
0.2215588, -0.012253, 1.88325, -0.0877686, 1.88325, -0.9533691, 1.88325, -0.4212036, 1.88325, 0.1984733, 1.88325, 0.1679389, 1.88325, -4.038168
0.2223529, -0.0119173, 1.89, -0.0848999, 1.89, -0.9552612, 1.89, -0.4190063, 1.89, -0.0534351, 1.89, 0.1755725, 1.89, -4.1374044
0.2231471, -0.0115816, 1.89675, -0.0822144, 1.89675, -0.9543457, 1.89675, -0.4154663, 1.89675, -0.0839695, 1.89675, 0.1984733, 1.89675, -4.1297708
0.2239412, -0.0102388, 1.9035, -0.0837402, 1.9035, -0.958313, 1.9035, -0.4119873, 1.9035, -0.1679389, 1.9035, 0.3664122, 1.9035, -4.1297708
0.2247353, -0.012253, 1.91025, -0.0817871, 1.91025, -0.9539185, 1.91025, -0.4181519, 1.91025, -0.3053435, 1.91025, 0.2671756, 1.91025, -4.0305343
0.2255294, -0.0135958, 1.917, -0.0813599, 1.917, -0.9520874, 1.917, -0.4120483, 1.917, -0.2824427, 1.917, 0.2900763, 1.917, -4.0076337
0.2263235, -0.0119173, 1.92375, -0.0789795, 1.92375, -0.9519043, 1.92375, -0.4117432, 1.92375, -0.5725191, 1.92375, 0.3740458, 1.92375, -4.0229006
0.2271176, -0.0090639, 1.9305, -0.0794678, 1.9305, -0.9507446, 1.9305, -0.4111938, 1.9305, -0.5343512, 1.9305, 0.5648855, 1.9305, -3.908397
0.2279118, -0.0038605, 1.93725, -0.0766602, 1.93725, -0.9481812, 1.93725, -0.4110718, 1.93725, -0.4961832, 1.93725, 0.8320611, 1.93725, -3.7633588
0.2287059, -0.0065461, 1.944, -0.0739746, 1.944, -0.9486084, 1.944, -0.4119873, 1.944, -0.5343512, 1.944, 0.9007633, 1.944, -3.7862597
0.2295, -0.012253, 1.95075, -0.0770874, 1.95075, -0.9501953, 1.95075, -0.4110718, 1.95075, -0.4427481, 1.95075, 0.7480916, 1.95075, -3.6717558
0.2302941, -0.0142672, 1.9575, -0.0765381, 1.9575, -0.9522705, 1.9575, -0.4108276, 1.9575, -0.5038168, 1.9575, 0.4427481, 1.9575, -3.610687
0.2310882, -0.0172885, 1.96425, -0.0773926, 1.96425, -0.9517212, 1.96425, -0.4117432, 1.96425, -0.7099237, 1.96425, 0.4427481, 1.96425, -3.7862597
0.2318824, -0.0179599, 1.971, -0.076416, 1.971, -0.9511108, 1.971, -0.4118652, 1.971, -0.6946565, 1.971, 0.7099237, 1.971, -3.648855
0.2326765, -0.0196384, 1.97775, -0.0773926, 1.97775, -0.9520874, 1.97775, -0.4064331, 1.97775, -0.7099237, 1.97775, 0.5725191, 1.97775, -3.6183207
0.2334706, -0.0216526, 1.9845, -0.0802002, 1.9845, -0.9553833, 1.9845, -0.4086304, 1.9845, -0.5801527, 1.9845, 0.6793893, 1.9845, -3.351145
0.2342647, -0.018967, 1.99125, -0.0834961, 1.99125, -0.9512939, 1.99125, -0.4147339, 1.99125, -0.778626, 1.99125, 0.610687, 1.99125, -3.5038168
0.2350588, -0.01561, 1.998, -0.0823364, 1.998, -0.9477539, 1.998, -0.4169922, 1.998, -0.648855, 1.998, 0.3969466, 1.998, -3.4351146
0.2358529, -0.018967, 2.00475, -0.078064, 2.00475, -0.9435425, 2.00475, -0.4155273, 2.00475, -0.7709923, 2.00475, 0.5725191, 2.00475, -3.4274809
0.2366471, -0.0285344, 2.0115, -0.0785522, 2.0115, -0.9482422, 2.0115, -0.4140015, 2.0115, -0.480916, 2.0115, 0.9694657, 2.0115, -3.3053436
0.2374412, -0.0283665, 2.01825, -0.0805054, 2.01825, -0.9493408, 2.01825, -0.4207764, 2.01825, -0.4198473, 2.01825, 0.7328244, 2.01825, -3.2061069
0.2382353, -0.0276951, 2.025, -0.0787964, 2.025, -0.9501953, 2.025, -0.4174805, 2.025, -0.2671756, 2.025, 1.0229008, 2.025, -3.2061069
0.2390294, -0.0263523, 2.03175, -0.0792236, 2.03175, -0.9515991, 2.03175, -0.4243164, 2.03175, -0.1832061, 2.03175, 1.2137405, 2.03175, -3.1984732
0.2398235, -0.0209812, 2.0385, -0.0819092, 2.0385, -0.9522095, 2.0385, -0.4261475, 2.0385, 0.0076336, 2.0385, 1.038168, 2.0385, -3.3664122
0.2406176, -0.0023499, 2.04525, -0.0854492, 2.04525, -0.9503174, 2.04525, -0.4241333, 2.04525, 0.0381679, 2.04525, 1.3740458, 2.04525, -3.1603053
0.2414118, 0.0052033, 2.052, -0.0823975, 2.052, -0.9511719, 2.052, -0.421936, 2.052, 0.0381679, 2.052, 1.3358779, 2.052, -3.091603
0.2422059, 0.0082246, 2.05875, -0.0823364, 2.05875, -0.9503174, 2.05875, -0.4249878, 2.05875, 0.480916, 2.05875, 1.2671756, 2.05875, -3.1450381
0.243, 0.0015106, 2.0655, -0.0876465, 2.0655, -0.9521484, 2.0655, -0.4244385, 2.0655, 0.5419847, 2.0655, 1.4503816, 2.0655, -3.2366412
0.2437941, -0.0112459, 2.07225, -0.0847778, 2.07225, -0.9509277, 2.07225, -0.418396, 2.07225, 0.870229, 2.07225, 1.3129771, 2.07225, -3.1603053
0.2445882, -0.0193027, 2.079, -0.0852661, 2.079, -0.9483032, 2.079, -0.416748, 2.079, 0.9770992, 2.079, 0.9847328, 2.079, -3.259542
0.2453824, -0.0184634, 2.08575, -0.0831909, 2.08575, -0.9476929, 2.08575, -0.4144287, 2.08575, 0.9465649, 2.08575, 0.7633588, 2.08575, -3.3358779
0.2461765, -0.0203098, 2.0925, -0.0796509, 2.0925, -0.9487915, 2.0925, -0.4127808, 2.0925, 0.8549618, 2.0925, 0.9007633, 2.0925, -3.4656489
0.2469706, -0.0213169, 2.09925, -0.0732422, 2.09925, -0.9480591, 2.09925, -0.4175415, 2.09925, 0.8778626, 2.09925, 1.1984733, 2.09925, -3.3816793
0.2477647, -0.0149386, 2.106, -0.074707, 2.106, -0.951416, 2.106, -0.4179077, 2.106, 0.8625954, 2.106, 1.1755725, 2.106, -3.2290077
0.2485588, -0.0112459, 2.11275, -0.0778198, 2.11275, -0.9502563, 2.11275, -0.4193726, 2.11275, 1.0076336, 2.11275, 1.2748091, 2.11275, -3.2671757
0.2493529, -0.0162814, 2.1195, -0.0760498, 2.1195, -0.9470825, 2.1195, -0.4172363, 2.1195, 1.0076336, 2.1195, 1.2900764, 2.1195, -3.3358779
0.2501471, -0.0149386, 2.12625, -0.0780029, 2.12625, -0.949646, 2.12625, -0.4176636, 2.12625, 1.0610687, 2.12625, 0.9923664, 2.12625, -3.1908398
0.2509412, -0.0142672, 2.133, -0.0834351, 2.133, -0.9490967, 2.133, -0.4135132, 2.133, 1.1908396, 2.133, 1.0610687, 2.133, -3.1374047
0.2517353, -0.0149386, 2.13975, -0.085144, 2.13975, -0.9465942, 2.13975, -0.4154053, 2.13975, 1.4045801, 2.13975, 1.1145039, 2.13975, -3.1450381
0.2525294, -0.0151064, 2.1465, -0.0870972, 2.1465, -0.9490356, 2.1465, -0.4208984, 2.1465, 1.3587786, 2.1465, 0.9541985, 2.1465, -3.0610688
0.2533235, -0.0119173, 2.15325, -0.0865479, 2.15325, -0.9500122, 2.15325, -0.4226074, 2.15325, 1.2061069, 2.15325, 0.8167939, 2.15325, -3.0458016
0.2541176, -0.0132601, 2.16, -0.0857544, 2.16, -0.9503174, 2.16, -0.4223633, 2.16, 1.221374, 2.16, 0.6412213, 2.16, -3.4274809
0.2549118, -0.0135958, 2.16675, -0.0917969, 2.16675, -0.9509888, 2.16675, -0.4197998, 2.16675, 1.3435115, 2.16675, 0.2900763, 2.16675, -3.6030533
0.2557059, -0.0119173, 2.1735, -0.0905762, 2.1735, -0.9505615, 2.1735, -0.4190674, 2.1735, 1.648855, 2.1735, 0.0687023, 2.1735, -3.5496182
0.2565, -0.0135958, 2.18025, -0.0864258, 2.18025, -0.9498901, 2.18025, -0.4190063, 2.18025, 1.5496184, 2.18025, -0.2442748, 2.18025, -3.8625953
0.2572941, -0.0130922, 2.187, -0.0818481, 2.187, -0.9489746, 2.187, -0.4230347, 2.187, 1.648855, 2.187, -0.1450382, 2.187, -3.8473282
0.2580882, -0.0135958, 2.19375, -0.0768433, 2.19375, -0.9486694, 2.19375, -0.4250488, 2.19375, 1.3740458, 2.19375, 0.0381679, 2.19375, -3.8396947
0.2588824, -0.0152743, 2.2005, -0.0770264, 2.2005, -0.947876, 2.2005, -0.4256592, 2.2005, 1.2748091, 2.2005, 0.5343512, 2.2005, -3.9770992
0.2596765, -0.012253, 2.20725, -0.0794067, 2.20725, -0.9511719, 2.20725, -0.4191895, 2.20725, 1.129771, 2.20725, 0.7328244, 2.20725, -3.7557251
0.2604706, -0.0149386, 2.214, -0.083252, 2.214, -0.9477539, 2.214, -0.4224854, 2.214, 1.0687023, 2.214, 0.7175573, 2.214, -3.7633588
0.2612647, -0.0129244, 2.22075, -0.0800781, 2.22075, -0.9498291, 2.22075, -0.4232178, 2.22075, 0.7709923, 2.22075, 0.5954198, 2.22075, -3.7099237
0.2620588, -0.0169528, 2.2275, -0.0776978, 2.2275, -0.9492188, 2.2275, -0.418335, 2.2275, 0.7099237, 2.2275, 0.6641222, 2.2275, -3.6412213
0.2628529, -0.0193027, 2.23425, -0.076416, 2.23425, -0.9476318, 2.23425, -0.4180298, 2.23425, 0.9923664, 2.23425, 1.0610687, 2.23425, -3.7709923
0.2636471, -0.0152743, 2.241, -0.0838623, 2.241, -0.949585, 2.241, -0.4143066, 2.241, 1.1145039, 2.241, 1.1145039, 2.241, -3.6717558
0.2644412, -0.0139315, 2.24775, -0.0825195, 2.24775, -0.9494019, 2.24775, -0.4150391, 2.24775, 1.3129771, 2.24775, 0.9541985, 2.24775, -3.6870229
0.2652353, -0.0162814, 2.2545, -0.0794678, 2.2545, -0.9490356, 2.2545, -0.416748, 2.2545, 1.2824427, 2.2545, 0.6717557, 2.2545, -3.7557251
0.2660294, -0.0146029, 2.26125, -0.0838013, 2.26125, -0.9528198, 2.26125, -0.4180298, 2.26125, 1.4732825, 2.26125, 0.3129771, 2.26125, -3.7175572
0.2668235, -0.0130922, 2.268, -0.0811768, 2.268, -0.9532471, 2.268, -0.4117432, 2.268, 1.8320611, 2.268, 0.3587786, 2.268, -3.648855
0.2676176, -0.0129244, 2.27475, -0.0804443, 2.27475, -0.9477539, 2.27475, -0.4161987, 2.27475, 1.7099236, 2.27475, 0.7328244, 2.27475, -3.6335878
0.2684118, -0.0206455, 2.2815, -0.0797119, 2.2815, -0.9448853, 2.2815, -0.4225464, 2.2815, 1.1755725, 2.2815, 0.2671756, 2.2815, -3.480916
0.2692059, -0.0297093, 2.28825, -0.0811157, 2.28825, -0.947998, 2.28825, -0.4196167, 2.28825, 1.4274809, 2.28825, 0.5648855, 2.28825, -3.5114503
0.27, -0.0219883, 2.295, -0.0758667, 2.295, -0.9484863, 2.295, -0.4190063, 2.295, 1.3816794, 2.295, 0.7328244, 2.295, -3.5725191
0.2707941, -0.0166171, 2.30175, -0.0684204, 2.30175, -0.949646, 2.30175, -0.4172974, 2.30175, 1.5419847, 2.30175, 0.6793893, 2.30175, -3.648855
0.2715882, -0.0172885, 2.3085, -0.0692749, 2.3085, -0.9518433, 2.3085, -0.413208, 2.3085, 1.4656489, 2.3085, 0.8091603, 2.3085, -3.7022901
0.2723824, -0.0162814, 2.31525, -0.0681152, 2.31525, -0.9504395, 2.31525, -0.4158936, 2.31525, 1.7022901, 2.31525, 1.5496184, 2.31525, -2.9923663
0.2731765, -0.0129244, 2.322, -0.0715332, 2.322, -0.9448242, 2.322, -0.4190063, 2.322, 1.7328244, 2.322, 1.5954199, 2.322, -2.9847329
0.2739706, -0.0135958, 2.32875, -0.0745239, 2.32875, -0.9510498, 2.32875, -0.416748, 2.32875, 1.5954199, 2.32875, 1.6641221, 2.32875, -3.0229008
0.2747647, -0.0135958, 2.3355, -0.0754395, 2.3355, -0.9498901, 2.3355, -0.4136353, 2.3355, 1.740458, 2.3355, 1.778626, 2.3355, -2.9541984
0.2755588, -0.0109102, 2.34225, -0.076416, 2.34225, -0.9498291, 2.34225, -0.4155884, 2.34225, 1.4427481, 2.34225, 1.3129771, 2.34225, -2.8549619
0.2763529, -0.0072175, 2.349, -0.0810547, 2.349, -0.9506836, 2.349, -0.4125977, 2.349, 1.3129771, 2.349, 1.2900764, 2.349, -2.9007633
0.2771471, -0.0109102, 2.35575, -0.0808716, 2.35575, -0.9484253, 2.35575, -0.4151611, 2.35575, 1.4274809, 2.35575, 1, 2.35575, -2.8854961
0.2779412, -0.0152743, 2.3625, -0.0792847, 2.3625, -0.9476929, 2.3625, -0.414917, 2.3625, 1.3969465, 2.3625, 0.9007633, 2.3625, -3.0076337
0.2787353, -0.0109102, 2.36925, -0.0804443, 2.36925, -0.9521484, 2.36925, -0.4136963, 2.36925, 1.4427481, 2.36925, 0.9312977, 2.36925, -3.0534351
0.2795294, -0.0095674, 2.376, -0.0780029, 2.376, -0.9497681, 2.376, -0.4156494, 2.376, 1.5343511, 2.376, 1.1984733, 2.376, -3.0610688
0.2803235, -0.0142672, 2.38275, -0.0808716, 2.38275, -0.9472656, 2.38275, -0.4147949, 2.38275, 1.4274809, 2.38275, 1.519084, 2.38275, -2.9389312
0.2811176, -0.017792, 2.3895, -0.0819702, 2.3895, -0.9460449, 2.3895, -0.4172363, 2.3895, 1.3435115, 2.3895, 1.4503816, 2.3895, -2.908397
0.2819118, -0.0196384, 2.39625, -0.0870361, 2.39625, -0.9467773, 2.39625, -0.4169312, 2.39625, 1.221374, 2.39625, 1.129771, 2.39625, -2.9923663
0.2827059, -0.0151064, 2.403, -0.085144, 2.403, -0.9501343, 2.403, -0.4133911, 2.403, 1.1526718, 2.403, 1.1984733, 2.403, -2.870229
0.2835, -0.0115816, 2.40975, -0.0783691, 2.40975, -0.949707, 2.40975, -0.4168701, 2.40975, 1.3740458, 2.40975, 1.5038168, 2.40975, -2.9160306
0.2842941, -0.0117494, 2.4165, -0.0784302, 2.4165, -0.9489136, 2.4165, -0.4139404, 2.4165, 1.2748091, 2.4165, 0.9389313, 2.4165, -2.961832
0.2850882, -0.0115816, 2.42325, -0.0797119, 2.42325, -0.9500732, 2.42325, -0.411438, 2.42325, 1.6030535, 2.42325, 0.9236641, 2.42325, -2.9312978
0.2858824, -0.0105745, 2.43, -0.0813599, 2.43, -0.9510498, 2.43, -0.4168701, 2.43, 1.3435115, 2.43, 0.8244275, 2.43, -2.961832
0.2866765, -0.014435, 2.43675, -0.0811157, 2.43675, -0.9490967, 2.43675, -0.4159546, 2.43675, 1.4885496, 2.43675, 0.908397, 2.43675, -2.9465649
0.2874706, -0.0209812, 2.4435, -0.0765381, 2.4435, -0.9494019, 2.4435, -0.4144287, 2.4435, 1.3282443, 2.4435, 0.8473282, 2.4435, -3.1603053
0.2882647, -0.0219883, 2.45025, -0.0776367, 2.45025, -0.9520264, 2.45025, -0.4121094, 2.45025, 1.7709924, 2.45025, 0.7175573, 2.45025, -3.0076337
0.2890588, -0.0169528, 2.457, -0.0791626, 2.457, -0.9498291, 2.457, -0.4125366, 2.457, 1.6793894, 2.457, 0.7251908, 2.457, -2.8167939
0.2898529, -0.0152743, 2.46375, -0.0805054, 2.46375, -0.9487915, 2.46375, -0.411438, 2.46375, 1.7099236, 2.46375, 0.9236641, 2.46375, -2.8473282
0.2906471, -0.0119173, 2.4705, -0.0807495, 2.4705, -0.9476318, 2.4705, -0.4124756, 2.4705, 1.5267175, 2.4705, 0.610687, 2.4705, -3.0152671
0.2914412, -0.012253, 2.47725, -0.083252, 2.47725, -0.9469604, 2.47725, -0.4204102, 2.47725, 1.6564885, 2.47725, 0.4045801, 2.47725, -3.1145039
0.2922353, -0.0179599, 2.484, -0.0845337, 2.484, -0.9456787, 2.484, -0.414978, 2.484, 1.5114504, 2.484, 0.4885496, 2.484, -2.9236641
0.2930294, -0.014435, 2.49075, -0.0839844, 2.49075, -0.9495239, 2.49075, -0.4105835, 2.49075, 1.7862595, 2.49075, 0.4351145, 2.49075, -3.1679389
0.2938235, -0.0102388, 2.4975, -0.0918579, 2.4975, -0.9448242, 2.4975, -0.4124146, 2.4975, 1.6946565, 2.4975, 0.2442748, 2.4975, -3.1145039
0.2946176, -0.0117494, 2.50425, -0.0889282, 2.50425, -0.9489746, 2.50425, -0.4169312, 2.50425, 1.4885496, 2.50425, 0.129771, 2.50425, -3.2824428
0.2954118, -0.0109102, 2.511, -0.0875854, 2.511, -0.949646, 2.511, -0.4154053, 2.511, 1.4274809, 2.511, 0.1145038, 2.511, -3.3129771
0.2962059, -0.0095674, 2.51775, -0.0870972, 2.51775, -0.9498901, 2.51775, -0.4174805, 2.51775, 1.7633588, 2.51775, -0.0992366, 2.51775, -3.3282442
0.297, -0.0149386, 2.5245, -0.0848999, 2.5245, -0.9502563, 2.5245, -0.4208374, 2.5245, 1.8167939, 2.5245, 0.259542, 2.5245, -3.4580152
0.2977941, -0.0169528, 2.53125, -0.0805054, 2.53125, -0.9510498, 2.53125, -0.4242554, 2.53125, 1.5877863, 2.53125, 0.3206107, 2.53125, -3.6259542
0.2985882, -0.0166171, 2.538, -0.0825806, 2.538, -0.9486694, 2.538, -0.4163208, 2.538, 1.5801526, 2.538, 0.4274809, 2.538, -3.4427481
0.2993824, -0.01561, 2.54475, -0.0812378, 2.54475, -0.9495239, 2.54475, -0.4169922, 2.54475, 1.6564885, 2.54475, 0.5877863, 2.54475, -3.4427481
0.3001765, -0.0216526, 2.5515, -0.0802002, 2.5515, -0.9475708, 2.5515, -0.4180908, 2.5515, 1.4656489, 2.5515, 0.740458, 2.5515, -3.4427481
0.3009706, -0.0229953, 2.55825, -0.0791016, 2.55825, -0.949585, 2.55825, -0.4110718, 2.55825, 1.3816794, 2.55825, 0.648855, 2.55825, -3.4580152
0.3017647, -0.0149386, 2.565, -0.0827637, 2.565, -0.9488525, 2.565, -0.4120483, 2.565, 1.5343511, 2.565, 0.8625954, 2.565, -3.4503818
0.3025588, -0.012253, 2.57175, -0.0858765, 2.57175, -0.9494019, 2.57175, -0.4124146, 2.57175, 1.3358779, 2.57175, 0.8625954, 2.57175, -3.3664122
0.3033529, -0.0097353, 2.5785, -0.0853882, 2.5785, -0.9488525, 2.5785, -0.4168091, 2.5785, 1.1374046, 2.5785, 1.1145039, 2.5785, -3.3816793
0.3041471, -0.0090639, 2.58525, -0.0864868, 2.58525, -0.951416, 2.58525, -0.414917, 2.58525, 1.0839695, 2.58525, 1.2519084, 2.58525, -3.3740458
0.3049412, -0.008896, 2.592, -0.0820312, 2.592, -0.9512939, 2.592, -0.4154663, 2.592, 0.740458, 2.592, 0.908397, 2.592, -3.5343511
0.3057353, -0.0095674, 2.59875, -0.0848389, 2.59875, -0.9475708, 2.59875, -0.4130249, 2.59875, 0.9923664, 2.59875, 0.961832, 2.59875, -3.778626
0.3065294, -0.0083925, 2.6055, -0.0824585, 2.6055, -0.9490967, 2.6055, -0.4146729, 2.6055, 0.9541985, 2.6055, 0.7251908, 2.6055, -3.4885497
0.3073235, -0.008896, 2.61225, -0.078064, 2.61225, -0.9489746, 2.61225, -0.416748, 2.61225, 0.9694657, 2.61225, 0.7099237, 2.61225, -3.6030533
0.3081176, -0.0117494, 2.619, -0.0759888, 2.619, -0.9519653, 2.619, -0.4197998, 2.619, 1.3053435, 2.619, 0.8549618, 2.619, -3.5801528
0.3089118, -0.0157778, 2.62575, -0.0744629, 2.62575, -0.949585, 2.62575, -0.4151611, 2.62575, 1.3053435, 2.62575, 0.6717557, 2.62575, -3.5114503
0.3097059, -0.01561, 2.6325, -0.0782471, 2.6325, -0.9488525, 2.6325, -0.4136353, 2.6325, 1.4274809, 2.6325, 0.5648855, 2.6325, -3.3587787
0.3105, -0.0146029, 2.63925, -0.0797119, 2.63925, -0.949585, 2.63925, -0.4172363, 2.63925, 1.4274809, 2.63925, 0.6183206, 2.63925, -3.3740458
0.3112941, -0.0125887, 2.646, -0.0808105, 2.646, -0.9465332, 2.646, -0.4155884, 2.646, 1.5419847, 2.646, 0.480916, 2.646, -3.4885497
0.3120882, -0.014435, 2.65275, -0.0838013, 2.65275, -0.9446411, 2.65275, -0.4159546, 2.65275, 1.6412214, 2.65275, -0.1984733, 2.65275, -3.5038168
0.3128824, -0.0134279, 2.6595, -0.0806274, 2.6595, -0.9487305, 2.6595, -0.4161377, 2.6595, 1.480916, 2.6595, -0.3129771, 2.6595, -3.480916
0.3136765, -0.0152743, 2.66625, -0.0714722, 2.66625, -0.9490356, 2.66625, -0.4146729, 2.66625, 1.3969465, 2.66625, -0.3129771, 2.66625, -3.389313
0.3144706, -0.018967, 2.673, -0.0722046, 2.673, -0.9483643, 2.673, -0.4102173, 2.673, 1.610687, 2.673, -0.3664122, 2.673, -3.5648854
0.3152647, -0.0223239, 2.67975, -0.0736084, 2.67975, -0.949707, 2.67975, -0.4103394, 2.67975, 1.5877863, 2.67975, -0.0381679, 2.67975, -3.4656489
0.3160588, -0.0172885, 2.6865, -0.0736694, 2.6865, -0.9465942, 2.6865, -0.4124146, 2.6865, 1.6335878, 2.6865, 0.2137405, 2.6865, -3.2748091
0.3168529, -0.0149386, 2.69325, -0.0800781, 2.69325, -0.9488525, 2.69325, -0.4113159, 2.69325, 1.5343511, 2.69325, 0.1221374, 2.69325, -3.3740458
0.3176471, -0.0115816, 2.7, -0.0830688, 2.7, -0.9484253, 2.7, -0.4144287, 2.7, 1.3740458, 2.7, -0.0152672, 2.7, -3.3053436
0.3184412, -0.0085603, 2.70675, -0.0852661, 2.70675, -0.9511719, 2.70675, -0.4110718, 2.70675, 1.1603054, 2.70675, -0.1984733, 2.70675, -3.4961832
0.3192353, -0.0085603, 2.7135, -0.0842896, 2.7135, -0.9544067, 2.7135, -0.4113159, 2.7135, 1.129771, 2.7135, -0.4122137, 2.7135, -3.648855
0.3200294, -0.0204776, 2.72025, -0.0875244, 2.72025, -0.9505005, 2.72025, -0.413208, 2.72025, 1.4274809, 2.72025, -0.2137405, 2.72025, -3.778626
0.3208235, -0.0229953, 2.727, -0.0839233, 2.727, -0.9486694, 2.727, -0.4139404, 2.727, 1.5877863, 2.727, 0.1984733, 2.727, -3.3358779
0.3216176, -0.0176242, 2.73375, -0.0822754, 2.73375, -0.9477539, 2.73375, -0.4147949, 2.73375, 1.8549619, 2.73375, 0.4351145, 2.73375, -3.4580152
0.3224118, -0.0169528, 2.7405, -0.0819702, 2.7405, -0.9506836, 2.7405, -0.4111938, 2.7405, 1.7328244, 2.7405, -0.0534351, 2.7405, -3.4885497
0.3232059, -0.0117494, 2.74725, -0.081543, 2.74725, -0.9515991, 2.74725, -0.411438, 2.74725, 1.6183206, 2.74725, 0.2977099, 2.74725, -3.5038168
0.324, -0.0129244, 2.754, -0.0803833, 2.754, -0.947876, 2.754, -0.4099121, 2.754, 1.648855, 2.754, 0.6183206, 2.754, -3.5114503
0.3247941, -0.018967, 2.76075, -0.0767822, 2.76075, -0.9499512, 2.76075, -0.4095459, 2.76075, 1.389313, 2.76075, 0.221374, 2.76075, -3.6335878
0.3255882, -0.0213169, 2.7675, -0.0766602, 2.7675, -0.9526367, 2.7675, -0.4122314, 2.7675, 1.3740458, 2.7675, 0.0992366, 2.7675, -3.5038168
0.3263824, -0.0152743, 2.77425, -0.0733032, 2.77425, -0.9498901, 2.77425, -0.4141235, 2.77425, 0.778626, 2.77425, 0.2442748, 2.77425, -3.5725191
0.3271765, -0.0176242, 2.781, -0.069458, 2.781, -0.9538574, 2.781, -0.4093018, 2.781, 0.648855, 2.781, 0.8091603, 2.781, -3.2748091
0.3279706, -0.0203098, 2.78775, -0.0681763, 2.78775, -0.9511719, 2.78775, -0.411377, 2.78775, 0.5954198, 2.78775, 1.3358779, 2.78775, -2.961832
0.3287647, -0.0166171, 2.7945, -0.072876, 2.7945, -0.9534912, 2.7945, -0.4106445, 2.7945, 0.610687, 2.7945, 1.3969465, 2.7945, -2.5954199
0.3295588, -0.0162814, 2.80125, -0.0762329, 2.80125, -0.9503784, 2.80125, -0.4144287, 2.80125, 0.8244275, 2.80125, 1.7557251, 2.80125, -2.6412213
0.3303529, -0.0135958, 2.808, -0.0797729, 2.808, -0.951355, 2.808, -0.4134521, 2.808, 0.908397, 2.808, 2.0458016, 2.808, -2.3969467
0.3311471, -0.0166171, 2.81475, -0.0795898, 2.81475, -0.9499512, 2.81475, -0.4152222, 2.81475, 0.8854962, 2.81475, 2.0687022, 2.81475, -2.5725191
0.3319412, -0.0182956, 2.8215, -0.0844116, 2.8215, -0.949585, 2.8215, -0.4144287, 2.8215, 0.6870229, 2.8215, 1.8244275, 2.8215, -2.5343511
0.3327353, -0.0171206, 2.82825, -0.0817261, 2.82825, -0.953064, 2.82825, -0.411499, 2.82825, 0.5801527, 2.82825, 1.7175573, 2.82825, -2.610687
0.3335294, -0.018967, 2.835, -0.083252, 2.835, -0.951355, 2.835, -0.4112549, 2.835, 0.6946565, 2.835, 1.740458, 2.835, -2.648855
0.3343235, -0.0166171, 2.84175, -0.0831299, 2.84175, -0.9494019, 2.84175, -0.4147339, 2.84175, 0.7480916, 2.84175, 2.0305343, 2.84175, -2.6870229
0.3351176, -0.0182956, 2.8485, -0.0752563, 2.8485, -0.9498291, 2.8485, -0.4144287, 2.8485, 0.6870229, 2.8485, 1.961832, 2.8485, -2.5343511
0.3359118, -0.0203098, 2.85525, -0.0769043, 2.85525, -0.9487915, 2.85525, -0.4139404, 2.85525, 0.7022901, 2.85525, 2.1755726, 2.85525, -2.5648854
0.3367059, -0.0199741, 2.862, -0.0819092, 2.862, -0.9480591, 2.862, -0.4092407, 2.862, 0.2900763, 2.862, 1.9007634, 2.862, -2.519084
0.3375, -0.0151064, 2.86875, -0.0853271, 2.86875, -0.9480591, 2.86875, -0.4125977, 2.86875, 0.2519084, 2.86875, 1.5419847, 2.86875, -2.3587787
0.3382941, -0.0154421, 2.8755, -0.0863647, 2.8755, -0.946228, 2.8755, -0.4162598, 2.8755, 0.0229008, 2.8755, 1.2977099, 2.8755, -2.5648854
0.3390882, -0.0115816, 2.88225, -0.0827637, 2.88225, -0.9498291, 2.88225, -0.4196167, 2.88225, -0.4427481, 2.88225, 1.2442749, 2.88225, -2.7022901
0.3398824, -0.0058747, 2.889, -0.0778198, 2.889, -0.9465332, 2.889, -0.4193726, 2.889, -0.1068702, 2.889, 1.4198474, 2.889, -2.7938931
0.3406765, -0.0018463, 2.89575, -0.078064, 2.89575, -0.9487915, 2.89575, -0.4195557, 2.89575, 0.2290076, 2.89575, 1.4503816, 2.89575, -2.7022901
0.3414706, -0.0070497, 2.9025, -0.0776367, 2.9025, -0.9530029, 2.9025, -0.4152832, 2.9025, 0.1526718, 2.9025, 2.0076337, 2.9025, -2.5038168
0.3422647, -0.0115816, 2.90925, -0.0794678, 2.90925, -0.9483032, 2.90925, -0.4223022, 2.90925, 0.7862595, 2.90925, 2.5496182, 2.90925, -2.4122138
0.3430588, -0.0072175, 2.916, -0.0806885, 2.916, -0.9474487, 2.916, -0.4259644, 2.916, 0.9160305, 2.916, 2.4198472, 2.916, -2.3129771
0.3438529, -0.0075532, 2.92275, -0.081604, 2.92275, -0.9475708, 2.92275, -0.4224854, 2.92275, 0.8931298, 2.92275, 2.2442749, 2.92275, -2.5114503
0.3446471, -0.0164492, 2.9295, -0.0838623, 2.9295, -0.9480591, 2.9295, -0.4210205, 2.9295, 0.8091603, 2.9295, 2.4351146, 2.9295, -2.4656489
0.3454412, -0.0276951, 2.93625, -0.0889893, 2.93625, -0.9494019, 2.93625, -0.4175415, 2.93625, 0.870229, 2.93625, 2.8167939, 2.93625, -2.5572519
0.3462353, -0.0216526, 2.943, -0.0915527, 2.943, -0.9468994, 2.943, -0.4259644, 2.943, 0.8244275, 2.943, 2.3206108, 2.943, -2.5038168
0.3470294, -0.0171206, 2.94975, -0.0913696, 2.94975, -0.9528809, 2.94975, -0.4251099, 2.94975, 0.4427481, 2.94975, 1.259542, 2.94975, -2.8167939
0.3478235, -0.0109102, 2.9565, -0.0884399, 2.9565, -0.9525757, 2.9565, -0.4231567, 2.9565, 0.778626, 2.9565, 1.5648855, 2.9565, -3.1450381
0.3486176, -0.0095674, 2.96325, -0.0853882, 2.96325, -0.9456787, 2.96325, -0.4249878, 2.96325, 0.9007633, 2.96325, 1.4351145, 2.96325, -3.1832061
0.3494118, -0.0105745, 2.97, -0.0845947, 2.97, -0.9456177, 2.97, -0.4221191, 2.97, 1.0610687, 2.97, 0.740458, 2.97, -3.2442749
0.3502059, -0.0072175, 2.97675, -0.0870972, 2.97675, -0.9470825, 2.97675, -0.4196167, 2.97675, 0.6641222, 2.97675, 0.5877863, 2.97675, -3.3816793
0.351, -0.0025177, 2.9835, -0.0853882, 2.9835, -0.9435425, 2.9835, -0.4226074, 2.9835, 0.9160305, 2.9835, 0.2977099, 2.9835, -3.5114503
0.3517941, -0.0075532, 2.99025, -0.0884399, 2.99025, -0.9450073, 2.99025, -0.4259033, 2.99025, 0.8320611, 2.99025, 0.0916031, 2.99025, -3.7480917
0.3525882, -0.012253, 2.997, -0.0844727, 2.997, -0.9466553, 2.997, -0.4194946, 2.997, 0.9007633, 2.997, 0.4274809, 2.997, -3.6183207
0.3533824, -0.0166171, 3.00375, -0.0764771, 3.00375, -0.9464722, 3.00375, -0.4216919, 3.00375, 0.7557252, 3.00375, 0.0839695, 3.00375, -3.7251909
0.3541765, -0.0216526, 3.0105, -0.0803833, 3.0105, -0.9476318, 3.0105, -0.4194946, 3.0105, 0.5572519, 3.0105, -0.9007633, 3.0105, -4.1679387
0.3549706, -0.0236667, 3.01725, -0.0886841, 3.01725, -0.9470215, 3.01725, -0.4206543, 3.01725, 0.5343512, 3.01725, -0.5877863, 3.01725, -3.961832
0.3557647, -0.0238346, 3.024, -0.0834351, 3.024, -0.9465942, 3.024, -0.4177856, 3.024, -0.1374046, 3.024, -0.4045801, 3.024, -4.0687022
0.3565588, -0.0206455, 3.03075, -0.0800781, 3.03075, -0.9501343, 3.03075, -0.4136963, 3.03075, -0.4656489, 3.03075, -0.351145, 3.03075, -4.0534353
0.3573529, -0.0243381, 3.0375, -0.0776367, 3.0375, -0.9532471, 3.0375, -0.4161377, 3.0375, -0.1984733, 3.0375, -0.0916031, 3.0375, -3.9694657
0.3581471, -0.0250095, 3.04425, -0.0731812, 3.04425, -0.9534912, 3.04425, -0.4147949, 3.04425, -0.0229008, 3.04425, 0.0763359, 3.04425, -3.9236641
0.3589412, -0.0203098, 3.051, -0.0757446, 3.051, -0.9497681, 3.051, -0.4135742, 3.051, 0.0458015, 3.051, 0.5114504, 3.051, -3.8167939
0.3597353, -0.0139315, 3.05775, -0.0803833, 3.05775, -0.9501953, 3.05775, -0.4155884, 3.05775, 0.1374046, 3.05775, 1.0839695, 3.05775, -3.4732823
0.3605294, -0.0005035, 3.0645, -0.0764771, 3.0645, -0.9503174, 3.0645, -0.4219971, 3.0645, 0.7099237, 3.0645, 1.1908396, 3.0645, -3.6793892
0.3613235, 0.012253, 3.07125, -0.0822754, 3.07125, -0.9463501, 3.07125, -0.4231567, 3.07125, 0.9541985, 3.07125, 1.7633588, 3.07125, -3.6946564
0.3621176, 0.0105745, 3.078, -0.0856934, 3.078, -0.9504395, 3.078, -0.4208374, 3.078, 1.1068702, 3.078, 1.8473282, 3.078, -3.5419848
0.3629118, 0.0025177, 3.08475, -0.0863037, 3.08475, -0.9501953, 3.08475, -0.4203491, 3.08475, 1.221374, 3.08475, 1.7709924, 3.08475, -3.4732823
0.3637059, -0.0041962, 3.0915, -0.0845947, 3.0915, -0.9517212, 3.0915, -0.4168091, 3.0915, 1.221374, 3.0915, 2.1374047, 3.0915, -3.6183207
0.3645, -0.0115816, 3.09825, -0.083374, 3.09825, -0.9485474, 3.09825, -0.4208984, 3.09825, 1.5419847, 3.09825, 1.7862595, 3.09825, -3.6946564
0.3652941, -0.0172885, 3.105, -0.0838013, 3.105, -0.9502563, 3.105, -0.4232788, 3.105, 1.5725191, 3.105, 1.908397, 3.105, -3.8091602
0.3660882, -0.017792, 3.11175, -0.0861206, 3.11175, -0.9476929, 3.11175, -0.4215088, 3.11175, 1.3664122, 3.11175, 1.7328244, 3.11175, -3.908397
0.3668824, -0.017792, 3.1185, -0.0827026, 3.1185, -0.9480591, 3.1185, -0.4211426, 3.1185, 1.4580153, 3.1185, 1.351145, 3.1185, -4.0916033
0.3676765, -0.0198062, 3.12525, -0.0828857, 3.12525, -0.9454956, 3.12525, -0.4171143, 3.12525, 1.5877863, 3.12525, 1.2748091, 3.12525, -4.0458016
0.3684706, -0.021149, 3.132, -0.081543, 3.132, -0.949707, 3.132, -0.4235229, 3.132, 1.7099236, 3.132, 1.1832061, 3.132, -4.4198475
0.3692647, -0.0196384, 3.13875, -0.0824585, 3.13875, -0.9475708, 3.13875, -0.4231567, 3.13875, 1.9160305, 3.13875, 1.610687, 3.13875, -4.221374
0.3700588, -0.0169528, 3.1455, -0.079895, 3.1455, -0.9456787, 3.1455, -0.4250488, 3.1455, 1.740458, 3.1455, 1.2748091, 3.1455, -4.0458016
0.3708529, -0.0208133, 3.15225, -0.0767212, 3.15225, -0.9483643, 3.15225, -0.4221802, 3.15225, 2.091603, 3.15225, 1.7022901, 3.15225, -4.2137403
0.3716471, -0.0250095, 3.159, -0.0756226, 3.159, -0.9525146, 3.159, -0.4187012, 3.159, 2.1908398, 3.159, 2.0458016, 3.159, -4.2061067
0.3724412, -0.0229953, 3.16575, -0.0757446, 3.16575, -0.9522095, 3.16575, -0.4174194, 3.16575, 2.1221373, 3.16575, 2.221374, 3.16575, -4.1984735
0.3732353, -0.0203098, 3.1725, -0.0758667, 3.1725, -0.9512939, 3.1725, -0.4231567, 3.1725, 2.4580152, 3.1725, 2.1679389, 3.1725, -4.2290077
0.3740294, -0.0179599, 3.17925, -0.0770874, 3.17925, -0.947937, 3.17925, -0.4249268, 3.17925, 2.389313, 3.17925, 2.1221373, 3.17925, -3.9312978
0.3748235, -0.01561, 3.186, -0.0770874, 3.186, -0.9470825, 3.186, -0.4193726, 3.186, 1.9312977, 3.186, 2.3358779, 3.186, -4.0839696
0.3756176, -0.0135958, 3.19275, -0.0776978, 3.19275, -0.9469604, 3.19275, -0.4188232, 3.19275, 2.1221373, 3.19275, 2.389313, 3.19275, -4.2900763
0.3764118, -0.0142672, 3.1995, -0.0831299, 3.1995, -0.9507446, 3.1995, -0.4207764, 3.1995, 2.4045801, 3.1995, 2.3435113, 3.1995, -4.3511453
0.3772059, -0.0109102, 3.20625, -0.0819702, 3.20625, -0.9468994, 3.20625, -0.4224854, 3.20625, 2.259542, 3.20625, 2.0992367, 3.20625, -4.3358779
0.378, -0.0082246, 3.213, -0.0805054, 3.213, -0.9483643, 3.213, -0.4213257, 3.213, 2.1984732, 3.213, 1.7022901, 3.213, -4.2137403
0.3787941, -0.0146029, 3.21975, -0.0777588, 3.21975, -0.9492188, 3.21975, -0.4208984, 3.21975, 2.6946564, 3.21975, 1.7022901, 3.21975, -4.259542
0.3795882, -0.0243381, 3.2265, -0.0740356, 3.2265, -0.9497681, 3.2265, -0.4144287, 3.2265, 2.6870229, 3.2265, 2.0076337, 3.2265, -4.3893127
0.3803824, -0.0193027, 3.23325, -0.078125, 3.23325, -0.9486084, 3.23325, -0.4155884, 3.23325, 2.8244274, 3.23325, 1.9541985, 3.23325, -4.5114503
0.3811765, -0.0137636, 3.24, -0.0772705, 3.24, -0.9453735, 3.24, -0.416687, 3.24, 3.1145039, 3.24, 1.9847329, 3.24, -4.4122138
0.3819706, -0.0139315, 3.24675, -0.074707, 3.24675, -0.9429932, 3.24675, -0.4127808, 3.24675, 2.7938931, 3.24675, 1.8549619, 3.24675, -4.3587785
0.3827647, -0.0179599, 3.2535, -0.0792847, 3.2535, -0.9484863, 3.2535, -0.4133301, 3.2535, 2.8625953, 3.2535, 1.8778626, 3.2535, -4.3282442
0.3835588, -0.0186313, 3.26025, -0.0810547, 3.26025, -0.9504395, 3.26025, -0.411377, 3.26025, 2.8549619, 3.26025, 1.5114504, 3.26025, -4.4427481
0.3843529, -0.0193027, 3.267, -0.0726929, 3.267, -0.9500122, 3.267, -0.4093018, 3.267, 2.4885497, 3.267, 1.2671756, 3.267, -4.5419846
0.3851471, -0.0198062, 3.27375, -0.0776978, 3.27375, -0.9510498, 3.27375, -0.4084473, 3.27375, 2.8244274, 3.27375, 1.4274809, 3.27375, -4.4351144
0.3859412, -0.0152743, 3.2805, -0.0811157, 3.2805, -0.9471436, 3.2805, -0.4127197, 3.2805, 3.1450381, 3.2805, 1.8320611, 3.2805, -4.3893127
0.3867353, -0.0130922, 3.28725, -0.0792847, 3.28725, -0.9490967, 3.28725, -0.4099121, 3.28725, 2.9236641, 3.28725, 2.1145039, 3.28725, -4.5648856
0.3875294, -0.011078, 3.294, -0.0792236, 3.294, -0.9509277, 3.294, -0.40979, 3.294, 2.7938931, 3.294, 2.0992367, 3.294, -4.4274807
0.3883235, -0.01561, 3.30075, -0.0761719, 3.30075, -0.9512939, 3.30075, -0.4107666, 3.30075, 2.7022901, 3.30075, 2.0992367, 3.30075, -4.259542
0.3891176, -0.0166171, 3.3075, -0.072998, 3.3075, -0.9519653, 3.3075, -0.4100342, 3.3075, 2.221374, 3.3075, 1.870229, 3.3075, -4.221374
0.3899118, -0.012253, 3.31425, -0.0723267, 3.31425, -0.9556274, 3.31425, -0.4055176, 3.31425, 2.3358779, 3.31425, 1.8320611, 3.31425, -4.0687022
0.3907059, -0.008896, 3.321, -0.0759277, 3.321, -0.9519653, 3.321, -0.4066772, 3.321, 2.3435113, 3.321, 2.0305343, 3.321, -3.9923663
0.3915, -0.0092317, 3.32775, -0.0707397, 3.32775, -0.9473267, 3.32775, -0.4105835, 3.32775, 2.4274809, 3.32775, 1.8778626, 3.32775, -3.908397
0.3922941, -0.0109102, 3.3345, -0.0700073, 3.3345, -0.9459839, 3.3345, -0.4127808, 3.3345, 2.4045801, 3.3345, 1.870229, 3.3345, -4
0.3930882, -0.0104067, 3.34125, -0.072876, 3.34125, -0.9491577, 3.34125, -0.407959, 3.34125, 2.4351146, 3.34125, 1.6259542, 3.34125, -4.0076337
0.3938824, -0.0082246, 3.348, -0.0675049, 3.348, -0.9468994, 3.348, -0.4136353, 3.348, 2.259542, 3.348, 1.4122137, 3.348, -3.9847329
0.3946765, -0.0112459, 3.35475, -0.0700684, 3.35475, -0.949707, 3.35475, -0.4133911, 3.35475, 2.0992367, 3.35475, 1.4656489, 3.35475, -3.9770992
0.3954706, -0.0099031, 3.3615, -0.0702515, 3.3615, -0.9494019, 3.3615, -0.4130249, 3.3615, 2.351145, 3.3615, 1.2061069, 3.3615, -4.0152674
0.3962647, -0.0109102, 3.36825, -0.0761108, 3.36825, -0.9502563, 3.36825, -0.4098511, 3.36825, 2.3664122, 3.36825, 1.1984733, 3.36825, -3.9770992
0.3970588, -0.0119173, 3.375, -0.076416, 3.375, -0.9486694, 3.375, -0.4124146, 3.375, 2.3282442, 3.375, 1.1908396, 3.375, -3.9694657
0.3978529, -0.0179599, 3.38175, -0.0780029, 3.38175, -0.9464111, 3.38175, -0.4157104, 3.38175, 2.2900763, 3.38175, 0.9465649, 3.38175, -3.9847329
0.3986471, -0.0270237, 3.3885, -0.0767212, 3.3885, -0.949707, 3.3885, -0.4100342, 3.3885, 2.2977099, 3.3885, 0.9236641, 3.3885, -3.9770992
0.3994412, -0.0196384, 3.39525, -0.0796509, 3.39525, -0.9499512, 3.39525, -0.4103394, 3.39525, 2.4656489, 3.39525, 1.0763359, 3.39525, -4.0763359
0.4002353, -0.0129244, 3.402, -0.0809326, 3.402, -0.9483032, 3.402, -0.4067993, 3.402, 2.4961832, 3.402, 0.9007633, 3.402, -4.3435116
0.4010294, -0.0193027, 3.40875, -0.0776367, 3.40875, -0.9465942, 3.40875, -0.4127808, 3.40875, 2.4122138, 3.40875, 0.2366412, 3.40875, -4.2977099
0.4018235, -0.0226596, 3.4155, -0.0740967, 3.4155, -0.9516602, 3.4155, -0.411438, 3.4155, 2.3816793, 3.4155, 0.0839695, 3.4155, -4.4961834
0.4026176, -0.0203098, 3.42225, -0.0692139, 3.42225, -0.9529419, 3.42225, -0.4141846, 3.42225, 2.2900763, 3.42225, -0.2519084, 3.42225, -4.3358779
0.4034118, -0.0179599, 3.429, -0.0726318, 3.429, -0.9521484, 3.429, -0.4096069, 3.429, 2.2519083, 3.429, -0.6335878, 3.429, -4.480916
0.4042059, -0.0095674, 3.43575, -0.071228, 3.43575, -0.9484253, 3.43575, -0.4090576, 3.43575, 2.1374047, 3.43575, -0.9007633, 3.43575, -4.4656487
0.405, -0.0058747, 3.4425, -0.0706177, 3.4425, -0.9519653, 3.4425, -0.4085693, 3.4425, 1.8015267, 3.4425, -1.2824427, 3.4425, -4.3969464
0.4057941, -0.0058747, 3.44925, -0.0742798, 3.44925, -0.9529419, 3.44925, -0.4056396, 3.44925, 1.9465649, 3.44925, -1.1755725, 3.44925, -4.3435116
0.4065882, -0.0015106, 3.456, -0.0719604, 3.456, -0.9511719, 3.456, -0.4039307, 3.456, 1.8244275, 3.456, -0.9312977, 3.456, -4.2519083
0.4073824, -0.005539, 3.46275, -0.0709839, 3.46275, -0.9515381, 3.46275, -0.411438, 3.46275, 1.4122137, 3.46275, -0.8931298, 3.46275, -4.2748094
0.4081765, -0.0092317, 3.4695, -0.0684814, 3.4695, -0.9539795, 3.4695, -0.4074097, 3.4695, 1.259542, 3.4695, -1.0152671, 3.4695, -4.4122138
0.4089706, -0.0048676, 3.47625, -0.0686646, 3.47625, -0.956604, 3.47625, -0.4036255, 3.47625, 1.4274809, 3.47625, -1.0152671, 3.47625, -4.2061067
0.4097647, -0.0043641, 3.483, -0.0716553, 3.483, -0.9530029, 3.483, -0.4025879, 3.483, 1.3129771, 3.483, -0.6946565, 3.483, -4.3358779
0.4105588, -0.0072175, 3.48975, -0.0697632, 3.48975, -0.9517212, 3.48975, -0.4019165, 3.48975, 1.6183206, 3.48975, -0.5954198, 3.48975, -4.1374044
0.4113529, -0.0135958, 3.4965, -0.0700684, 3.4965, -0.9459229, 3.4965, -0.4030151, 3.4965, 1.6259542, 3.4965, -0.2290076, 3.4965, -4.1221375
0.4121471, -0.0184634, 3.50325, -0.0747681, 3.50325, -0.9459839, 3.50325, -0.4082031, 3.50325, 1.4503816, 3.50325, -0.5267175, 3.50325, -4.2748094
0.4129412, -0.0171206, 3.51, -0.0788574, 3.51, -0.9475708, 3.51, -0.4050293, 3.51, 1.4351145, 3.51, -0.3969466, 3.51, -4.1603055
0.4137353, -0.0179599, 3.51675, -0.074585, 3.51675, -0.9524536, 3.51675, -0.4104004, 3.51675, 1.2519084, 3.51675, -0.8167939, 3.51675, -4.3053436
0.4145294, -0.0251774, 3.5235, -0.0728149, 3.5235, -0.9558716, 3.5235, -0.4129028, 3.5235, 1.4580153, 3.5235, -1.4656489, 3.5235, -4.5572519
0.4153235, -0.0273594, 3.53025, -0.0731812, 3.53025, -0.9530029, 3.53025, -0.4174194, 3.53025, 1.6183206, 3.53025, -1.7557251, 3.53025, -4.5343513
0.4161176, -0.0203098, 3.537, -0.071167, 3.537, -0.9505005, 3.537, -0.4216919, 3.537, 1.4580153, 3.537, -1.6870229, 3.537, -4.5419846
0.4169118, -0.0166171, 3.54375, -0.0675049, 3.54375, -0.9515991, 3.54375, -0.4200439, 3.54375, 1.7633588, 3.54375, -1.6183206, 3.54375, -4.1908398
0.4177059, -0.012253, 3.5505, -0.0723267, 3.5505, -0.9547119, 3.5505, -0.4196167, 3.5505, 2.1832061, 3.5505, -1.1068702, 3.5505, -4.2900763
0.4185, -0.0142672, 3.55725, -0.0812378, 3.55725, -0.954834, 3.55725, -0.4141235, 3.55725, 2.0763359, 3.55725, -0.9541985, 3.55725, -4.2061067
0.4192941, -0.0219883, 3.564, -0.0822754, 3.564, -0.9535522, 3.564, -0.4161987, 3.564, 2.3969467, 3.564, -1.2290076, 3.564, -4.2061067
0.4200882, -0.0213169, 3.57075, -0.0806885, 3.57075, -0.9532471, 3.57075, -0.4198608, 3.57075, 2.4961832, 3.57075, -1.8091604, 3.57075, -4.5267177
0.4208824, -0.0162814, 3.5775, -0.085022, 3.5775, -0.9502563, 3.5775, -0.4215698, 3.5775, 2.5267177, 3.5775, -1.8015267, 3.5775, -4.6412215
0.4216765, -0.0152743, 3.58425, -0.0820923, 3.58425, -0.9487305, 3.58425, -0.4199219, 3.58425, 3.1526718, 3.58425, -1.519084, 3.58425, -4.6717558
0.4224706, -0.0149386, 3.591, -0.0794678, 3.591, -0.9468384, 3.591, -0.4226074, 3.591, 2.8625953, 3.591, -2.0610688, 3.591, -4.9236641
0.4232647, -0.0129244, 3.59775, -0.0758057, 3.59775, -0.9544678, 3.59775, -0.4210205, 3.59775, 2.9541984, 3.59775, -2.7633588, 3.59775, -5.1755724
0.4240588, -0.0135958, 3.6045, -0.0741577, 3.6045, -0.9541016, 3.6045, -0.4197388, 3.6045, 3.351145, 3.6045, -2.6793892, 3.6045, -5.1526718
0.4248529, -0.0115816, 3.61125, -0.0652466, 3.61125, -0.9563599, 3.61125, -0.4194336, 3.61125, 3.5114503, 3.61125, -3.0763359, 3.61125, -5.2900763
0.4256471, -0.0112459, 3.618, -0.062439, 3.618, -0.9542236, 3.618, -0.4154053, 3.618, 3.5419848, 3.618, -2.9312978, 3.618, -5.1068702
0.4264412, -0.0149386, 3.62475, -0.0627441, 3.62475, -0.954834, 3.62475, -0.4113159, 3.62475, 3.8167939, 3.62475, -2.8167939, 3.62475, -5.2748094
0.4272353, -0.0142672, 3.6315, -0.0664673, 3.6315, -0.9544067, 3.6315, -0.4118652, 3.6315, 3.9694657, 3.6315, -2.8396947, 3.6315, -5.1221375
0.4280294, -0.0162814, 3.63825, -0.0681152, 3.63825, -0.9538574, 3.63825, -0.4214478, 3.63825, 3.8625953, 3.63825, -2.7022901, 3.63825, -5.0687022
0.4288235, -0.01561, 3.645, -0.0620117, 3.645, -0.9532471, 3.645, -0.4204102, 3.645, 3.9160306, 3.645, -2.1832061, 3.645, -4.778626
0.4296176, -0.0182956, 3.65175, -0.0632324, 3.65175, -0.9526367, 3.65175, -0.4147949, 3.65175, 3.610687, 3.65175, -2.3282442, 3.65175, -4.6870227
0.4304118, -0.0139315, 3.6585, -0.0684204, 3.6585, -0.9519043, 3.6585, -0.4141235, 3.6585, 3.3129771, 3.6585, -2.648855, 3.6585, -4.6641221
0.4312059, -0.0105745, 3.66525, -0.0736694, 3.66525, -0.9490967, 3.66525, -0.4175415, 3.66525, 3, 3.66525, -2.221374, 3.66525, -4.3969464
0.432, -0.0109102, 3.672, -0.071167, 3.672, -0.9490967, 3.672, -0.4142456, 3.672, 2.8015268, 3.672, -1.7099236, 3.672, -4.3969464
0.4327941, -0.0182956, 3.67875, -0.0646362, 3.67875, -0.9528809, 3.67875, -0.4190063, 3.67875, 3.038168, 3.67875, -1.908397, 3.67875, -4.3053436
0.4335882, -0.0258488, 3.6855, -0.0621338, 3.6855, -0.958252, 3.6855, -0.4102173, 3.6855, 2.7633588, 3.6855, -2.3816793, 3.6855, -4.4274807
0.4343824, -0.0253452, 3.69225, -0.064209, 3.69225, -0.960083, 3.69225, -0.4064331, 3.69225, 3.221374, 3.69225, -2.2442749, 3.69225, -4.221374
0.4351765, -0.0209812, 3.699, -0.0634155, 3.699, -0.9589233, 3.699, -0.4082642, 3.699, 3.1755726, 3.699, -2.1984732, 3.699, -4.2900763
0.4359706, -0.0169528, 3.70575, -0.0616455, 3.70575, -0.9580688, 3.70575, -0.4085693, 3.70575, 2.9389312, 3.70575, -2.2366412, 3.70575, -4.0992365
0.4367647, -0.0140993, 3.7125, -0.0647583, 3.7125, -0.9590454, 3.7125, -0.4038696, 3.7125, 3.0458016, 3.7125, -1.9847329, 3.7125, -3.8931298
0.4375588, -0.0115816, 3.71925, -0.0610962, 3.71925, -0.9596558, 3.71925, -0.4012451, 3.71925, 2.9694657, 3.71925, -1.8854961, 3.71925, -3.7328243
0.4383529, -0.0135958, 3.726, -0.0623169, 3.726, -0.9589233, 3.726, -0.4004517, 3.726, 2.8625953, 3.726, -2.0229008, 3.726, -3.6259542
0.4391471, -0.0172885, 3.73275, -0.057373, 3.73275, -0.9550171, 3.73275, -0.4075928, 3.73275, 2.7022901, 3.73275, -1.9389313, 3.73275, -3.3587787
0.4399412, -0.0176242, 3.7395, -0.0556641, 3.7395, -0.949707, 3.7395, -0.4107056, 3.7395, 2.7251909, 3.7395, -1.7022901, 3.7395, -3.2671757
0.4407353, -0.0095674, 3.74625, -0.0565186, 3.74625, -0.9530029, 3.74625, -0.4085693, 3.74625, 2.8396947, 3.74625, -1.7480916, 3.74625, -3.1908398
0.4415294, -0.0050355, 3.753, -0.0619507, 3.753, -0.9539185, 3.753, -0.4048462, 3.753, 3.3664122, 3.753, -1.0763359, 3.753, -2.9389312
0.4423235, -0.0065461, 3.75975, -0.0638428, 3.75975, -0.9523926, 3.75975, -0.4087524, 3.75975, 3.4427481, 3.75975, -0.4427481, 3.75975, -2.6793892
0.4431176, -0.012253, 3.7665, -0.0579834, 3.7665, -0.9528809, 3.7665, -0.4110107, 3.7665, 3.5419848, 3.7665, -0.2519084, 3.7665, -2.480916
0.4439118, -0.0142672, 3.77325, -0.064209, 3.77325, -0.9555054, 3.77325, -0.4061279, 3.77325, 3.7328243, 3.77325, -0.0076336, 3.77325, -2.2366412
0.4447059, -0.0149386, 3.78, -0.0655518, 3.78, -0.9603271, 3.78, -0.4029541, 3.78, 3.8473282, 3.78, 0.2290076, 3.78, -2.0839694
0.4455, -0.01561, 3.78675, -0.0657959, 3.78675, -0.9569702, 3.78675, -0.4000244, 3.78675, 4.2824426, 3.78675, 0.2900763, 3.78675, -2.2671757
0.4462941, -0.0209812, 3.7935, -0.0643921, 3.7935, -0.9499512, 3.7935, -0.3997192, 3.7935, 4.3129773, 3.7935, 0.1908397, 3.7935, -2.1145039
0.4470882, -0.0256809, 3.80025, -0.0648193, 3.80025, -0.9528809, 3.80025, -0.3988037, 3.80025, 4, 3.80025, 0.870229, 3.80025, -1.9312977
0.4478824, -0.0256809, 3.807, -0.0631714, 3.807, -0.9554443, 3.807, -0.3969727, 3.807, 3.9465649, 3.807, 2.1145039, 3.807, -1.5038168
0.4486765, -0.0191348, 3.81375, -0.0651245, 3.81375, -0.956543, 3.81375, -0.394043, 3.81375, 3.8473282, 3.81375, 2.5572519, 3.81375, -1.389313
0.4494706, -0.0072175, 3.8205, -0.0685425, 3.8205, -0.9575806, 3.8205, -0.3954468, 3.8205, 3.3435113, 3.8205, 2.2824428, 3.8205, -1.2366412
0.4502647, -0.0068818, 3.82725, -0.0671387, 3.82725, -0.9556274, 3.82725, -0.3920898, 3.82725, 3.1374047, 3.82725, 2.4427481, 3.82725, -1.1984733
0.4510588, -0.0097353, 3.834, -0.0690308, 3.834, -0.9576416, 3.834, -0.3884888, 3.834, 3.1984732, 3.834, 2.2824428, 3.834, -0.9160305
0.4518529, -0.0129244, 3.84075, -0.0680542, 3.84075, -0.9627686, 3.84075, -0.3886719, 3.84075, 2.5419848, 3.84075, 2.3206108, 3.84075, -0.8854962
0.4526471, -0.0132601, 3.8475, -0.0663452, 3.8475, -0.9595947, 3.8475, -0.3882446, 3.8475, 2.6870229, 3.8475, 3.1145039, 3.8475, -0.648855
0.4534412, -0.0102388, 3.85425, -0.0636597, 3.85425, -0.951416, 3.85425, -0.3980713, 3.85425, 2.6564887, 3.85425, 3.3664122, 3.85425, -0.3969466
0.4542353, -0.0135958, 3.861, -0.0654297, 3.861, -0.9536743, 3.861, -0.3963623, 3.861, 2.3969467, 3.861, 3.3358779, 3.861, -0.4961832
0.4550294, -0.0162814, 3.86775, -0.0793457, 3.86775, -0.9532471, 3.86775, -0.3895874, 3.86775, 2.3053436, 3.86775, 3.4427481, 3.86775, -0.3816794
0.4558235, -0.0162814, 3.8745, -0.0856323, 3.8745, -0.9518433, 3.8745, -0.3919678, 3.8745, 2.1221373, 3.8745, 3.3053436, 3.8745, -0.3129771
0.4566176, -0.0159457, 3.88125, -0.0890503, 3.88125, -0.9519043, 3.88125, -0.3947144, 3.88125, 2.1145039, 3.88125, 2.8091602, 3.88125, -0.5114504
0.4574118, -0.0152743, 3.888, -0.0842896, 3.888, -0.9526367, 3.888, -0.397644, 3.888, 2.0992367, 3.888, 2.3435113, 3.888, -0.7251908
0.4582059, -0.0152743, 3.89475, -0.0829468, 3.89475, -0.953064, 3.89475, -0.4000854, 3.89475, 2.2900763, 3.89475, 1.870229, 3.89475, -0.8549618
0.459, -0.0176242, 3.9015, -0.0823975, 3.9015, -0.9527588, 3.9015, -0.3984375, 3.9015, 2.389313, 3.9015, 1.6641221, 3.9015, -1.1374046
0.4597941, -0.0135958, 3.90825, -0.0799561, 3.90825, -0.9532471, 3.90825, -0.4006958, 3.90825, 2.2061069, 3.90825, 1.3664122, 3.90825, -1.1908396
0.4605882, -0.01561, 3.915, -0.0788574, 3.915, -0.9556274, 3.915, -0.4057007, 3.915, 2.1908398, 3.915, 1.5801526, 3.915, -1.1908396
0.4613824, -0.0149386, 3.92175, -0.0792847, 3.92175, -0.9519043, 3.92175, -0.4101562, 3.92175, 2.4045801, 3.92175, 1.351145, 3.92175, -1.2977099
0.4621765, -0.0102388, 3.9285, -0.0817261, 3.9285, -0.9547729, 3.9285, -0.4061279, 3.9285, 2.2977099, 3.9285, 1.129771, 3.9285, -1.4503816
0.4629706, -0.0130922, 3.93525, -0.0838623, 3.93525, -0.9573364, 3.93525, -0.4035645, 3.93525, 2.259542, 3.93525, 0.961832, 3.93525, -1.6183206
0.4637647, -0.01561, 3.942, -0.086792, 3.942, -0.9580078, 3.942, -0.4020996, 3.942, 2.2137403, 3.942, 0.740458, 3.942, -1.8396946
0.4645588, -0.0142672, 3.94875, -0.0915527, 3.94875, -0.9564819, 3.94875, -0.4006958, 3.94875, 2.7175572, 3.94875, 0.7709923, 3.94875, -1.7862595
0.4653529, -0.018967, 3.9555, -0.0869141, 3.9555, -0.9542847, 3.9555, -0.4170532, 3.9555, 2.740458, 3.9555, 0.9770992, 3.9555, -1.648855
0.4661471, -0.0176242, 3.96225, -0.0811157, 3.96225, -0.9538574, 3.96225, -0.4074707, 3.96225, 2.870229, 3.96225, 1.0534351, 3.96225, -1.7709924
0.4669412, -0.0164492, 3.969, -0.0810547, 3.969, -0.9567261, 3.969, -0.4060669, 3.969, 2.740458, 3.969, 1.2290076, 3.969, -2.0305343
0.4677353, -0.0129244, 3.97575, -0.0807495, 3.97575, -0.9569702, 3.97575, -0.4025269, 3.97575, 3.0534351, 3.97575, 0.908397, 3.97575, -2.038168
0.4685294, -0.0102388, 3.9825, -0.086731, 3.9825, -0.9544067, 3.9825, -0.4077759, 3.9825, 2.9389312, 3.9825, 0.5801527, 3.9825, -2.129771
0.4693235, -0.0062104, 3.98925, -0.0888062, 3.98925, -0.9556274, 3.98925, -0.4052124, 3.98925, 2.9694657, 3.98925, 0.5954198, 3.98925, -2.2366412
0.4701176, -0.0062104, 3.996, -0.0856323, 3.996, -0.9553223, 3.996, -0.4074707, 3.996, 3.1145039, 3.996, 0.0916031, 3.996, -2.4656489
0.4709118, -0.0146029, 4.00275, -0.0866699, 4.00275, -0.9561157, 4.00275, -0.4046021, 4.00275, 3.1374047, 4.00275, -0.3053435, 4.00275, -2.6564887
0.4717059, -0.0162814, 4.0095, -0.0878296, 4.0095, -0.954834, 4.0095, -0.4017944, 4.0095, 2.9541984, 4.0095, -0.4503817, 4.0095, -2.7862597
0.4725, -0.0151064, 4.01625, -0.0875244, 4.01625, -0.9522705, 4.01625, -0.4005737, 4.01625, 3.0229008, 4.01625, -0.8167939, 4.01625, -2.9160306
0.4732941, -0.0171206, 4.023, -0.086731, 4.023, -0.9512329, 4.023, -0.4011841, 4.023, 2.9465649, 4.023, -1.2137405, 4.023, -3.2137403
0.4740882, -0.0146029, 4.02975, -0.0842896, 4.02975, -0.9539795, 4.02975, -0.401062, 4.02975, 3.0992367, 4.02975, -1.4885496, 4.02975, -3.2442749
0.4748824, -0.0112459, 4.0365, -0.0844727, 4.0365, -0.9533081, 4.0365, -0.4015503, 4.0365, 3.3435113, 4.0365, -1.5954199, 4.0365, -3.389313
0.4756765, -0.0109102, 4.04325, -0.0848999, 4.04325, -0.9535522, 4.04325, -0.4002075, 4.04325, 3.2290077, 4.04325, -1.8473282, 4.04325, -3.5572519
0.4764706, -0.0119173, 4.05, -0.0849609, 4.05, -0.9534912, 4.05, -0.3981934, 4.05, 3.4045801, 4.05, -2.3358779, 4.05, -3.8320611
0.4772647, -0.0129244, 4.05675, -0.0809937, 4.05675, -0.9526978, 4.05675, -0.3983765, 4.05675, 3.5954199, 4.05675, -2.4732823, 4.05675, -3.8625953
0.4780588, -0.0135958, 4.0635, -0.0806274, 4.0635, -0.9517822, 4.0635, -0.401001, 4.0635, 3.4503818, 4.0635, -2.3969467, 4.0635, -4.1603055
0.4788529, -0.0149386, 4.07025, -0.0829468, 4.07025, -0.9529419, 4.07025, -0.3977661, 4.07025, 3.480916, 4.07025, -2.0687022, 4.07025, -4.1526718
0.4796471, -0.0157778, 4.077, -0.0826416, 4.077, -0.9558105, 4.077, -0.3959351, 4.077, 4.0534353, 4.077, -1.7557251, 4.077, -4.2290077
0.4804412, -0.0176242, 4.08375, -0.0824585, 4.08375, -0.9567871, 4.08375, -0.3939209, 4.08375, 4.1832061, 4.08375, -1.8396946, 4.08375, -4.1755724
0.4812353, -0.0146029, 4.0905, -0.0790405, 4.0905, -0.9539185, 4.0905, -0.3938599, 4.0905, 4.3740458, 4.0905, -1.9465649, 4.0905, -4.2061067
0.4820294, -0.0130922, 4.09725, -0.0817261, 4.09725, -0.9567871, 4.09725, -0.3899536, 4.09725, 4.5877862, 4.09725, -1.9007634, 4.09725, -4.3511453
0.4828235, -0.012253, 4.104, -0.0811157, 4.104, -0.958374, 4.104, -0.3865356, 4.104, 4.3511453, 4.104, -1.9236641, 4.104, -4.3893127
0.4836176, -0.0135958, 4.11075, -0.0869751, 4.11075, -0.9603271, 4.11075, -0.3907471, 4.11075, 4.3587785, 4.11075, -1.8167939, 4.11075, -4.3587785
0.4844118, -0.0119173, 4.1175, -0.0865479, 4.1175, -0.9615479, 4.1175, -0.3912964, 4.1175, 4.2671757, 4.1175, -1.6717557, 4.1175, -4.5114503
0.4852059, -0.0139315, 4.12425, -0.0823364, 4.12425, -0.9591675, 4.12425, -0.3880615, 4.12425, 4.1832061, 4.12425, -2.0839694, 4.12425, -4.5725193
0.486, -0.0152743, 4.131, -0.0774536, 4.131, -0.9628906, 4.131, -0.3858643, 4.131, 4.0687022, 4.131, -1.9007634, 4.131, -4.5877862
0.4867941, -0.0135958, 4.13775, -0.0771484, 4.13775, -0.9651489, 4.13775, -0.3887939, 4.13775, 3.8931298, 4.13775, -1.7328244, 4.13775, -4.4503818
0.4875882, -0.0169528, 4.1445, -0.0742798, 4.1445, -0.9594727, 4.1445, -0.3867188, 4.1445, 3.9694657, 4.1445, -1.4503816, 4.1445, -4.5038166
0.4883824, -0.0142672, 4.15125, -0.0733643, 4.15125, -0.9567871, 4.15125, -0.3884277, 4.15125, 3.5496182, 4.15125, -1.3206106, 4.15125, -4.4732823
0.4891765, -0.0075532, 4.158, -0.072998, 4.158, -0.9544067, 4.158, -0.3867798, 4.158, 3.5954199, 4.158, -1.4198474, 4.158, -4.3587785
0.4899706, -0.0115816, 4.16475, -0.0742798, 4.16475, -0.9552612, 4.16475, -0.3857422, 4.16475, 3.4885497, 4.16475, -1.1984733, 4.16475, -4.5496182
0.4907647, -0.0219883, 4.1715, -0.0742188, 4.1715, -0.9564819, 4.1715, -0.387146, 4.1715, 3.1908398, 4.1715, -0.5725191, 4.1715, -4.2671757
0.4915588, -0.0246738, 4.17825, -0.0724487, 4.17825, -0.956604, 4.17825, -0.3856201, 4.17825, 3.1755726, 4.17825, -0.7709923, 4.17825, -4.3587785
0.4923529, -0.0176242, 4.185, -0.0750122, 4.185, -0.9554443, 4.185, -0.383667, 4.185, 3.1908398, 4.185, -1.3206106, 4.185, -4.3816795
0.4931471, -0.0186313, 4.19175, -0.0770874, 4.19175, -0.9561768, 4.19175, -0.3852539, 4.19175, 3.1450381, 4.19175, -1.1145039, 4.19175, -4.2671757
0.4939412, -0.0260166, 4.1985, -0.0789795, 4.1985, -0.9554443, 4.1985, -0.3898926, 4.1985, 3.3358779, 4.1985, -0.908397, 4.1985, -4.3282442
0.4947353, -0.0350805, 4.20525, -0.079895, 4.20525, -0.9567871, 4.20525, -0.3859253, 4.20525, 3.221374, 4.20525, -0.9541985, 4.20525, -4.2977099
0.4955294, -0.0340734, 4.212, -0.0791016, 4.212, -0.9559937, 4.212, -0.383667, 4.212, 3.1908398, 4.212, -0.9541985, 4.212, -4.4045801
0.4963235, -0.0196384, 4.21875, -0.0726929, 4.21875, -0.9547119, 4.21875, -0.385376, 4.21875, 3.2519083, 4.21875, -0.9465649, 4.21875, -4.3893127
0.4971176, -0.0023499, 4.2255, -0.0731201, 4.2255, -0.9560547, 4.2255, -0.3867188, 4.2255, 3.0229008, 4.2255, -1.0152671, 4.2255, -4.4580154
0.4979118, 0.0068818, 4.23225, -0.0787964, 4.23225, -0.9570923, 4.23225, -0.3869629, 4.23225, 2.740458, 4.23225, -0.9007633, 4.23225, -4.3358779
0.4987059, 0.0036927, 4.239, -0.0801392, 4.239, -0.9594727, 4.239, -0.3852539, 4.239, 2.778626, 4.239, -0.6259542, 4.239, -4.3740458
0.4995, -0.0035248, 4.24575, -0.0787354, 4.24575, -0.9598389, 4.24575, -0.3856812, 4.24575, 2.9007633, 4.24575, -0.7175573, 4.24575, -4.3206105
0.5002941, -0.0048676, 4.2525, -0.0805664, 4.2525, -0.9609375, 4.2525, -0.390686, 4.2525, 3.091603, 4.2525, -0.7251908, 4.2525, -4.259542
0.5010882, -0.0105745, 4.25925, -0.0750732, 4.25925, -0.9610596, 4.25925, -0.3895264, 4.25925, 2.778626, 4.25925, -0.2442748, 4.25925, -4.1679387
0.5018824, -0.0142672, 4.266, -0.0742798, 4.266, -0.9611816, 4.266, -0.3842773, 4.266, 2.8473282, 4.266, -0.5877863, 4.266, -4.1832061
0.5026765, -0.0137636, 4.27275, -0.0736084, 4.27275, -0.9655762, 4.27275, -0.3798218, 4.27275, 3.3206108, 4.27275, -0.2290076, 4.27275, -4.0076337
0.5034706, -0.0162814, 4.2795, -0.0709839, 4.2795, -0.9622803, 4.2795, -0.3825684, 4.2795, 3.0992367, 4.2795, 0.2442748, 4.2795, -3.8778627
0.5042647, -0.0130922, 4.28625, -0.0726318, 4.28625, -0.9604492, 4.28625, -0.3855591, 4.28625, 3.2824428, 4.28625, 0.1374046, 4.28625, -3.7328243
0.5050588, -0.0149386, 4.293, -0.0774536, 4.293, -0.9580688, 4.293, -0.3873901, 4.293, 3.0763359, 4.293, 0.4961832, 4.293, -3.610687
0.5058529, -0.0149386, 4.29975, -0.0765991, 4.29975, -0.953186, 4.29975, -0.3831177, 4.29975, 2.778626, 4.29975, 0.3206107, 4.29975, -3.6564887
0.5066471, -0.0149386, 4.3065, -0.0767212, 4.3065, -0.9592896, 4.3065, -0.3813477, 4.3065, 2.8473282, 4.3065, -0.1450382, 4.3065, -3.7175572
0.5074412, -0.01561, 4.31325, -0.0738525, 4.31325, -0.9574585, 4.31325, -0.3803101, 4.31325, 2.7480917, 4.31325, -0.4580153, 4.31325, -3.8549619
0.5082353, -0.0139315, 4.32, -0.0774536, 4.32, -0.9596558, 4.32, -0.3811035, 4.32, 2.7709923, 4.32, -0.389313, 4.32, -3.7557251
0.5090294, -0.0109102, 4.32675, -0.0699463, 4.32675, -0.9593506, 4.32675, -0.3818359, 4.32675, 2.7099237, 4.32675, 0.351145, 4.32675, -3.8931298
0.5098235, -0.012253, 4.3335, -0.0697632, 4.3335, -0.9592285, 4.3335, -0.3832397, 4.3335, 2.8854961, 4.3335, 0.5419847, 4.3335, -3.6717558
0.5106176, -0.0167849, 4.34025, -0.071228, 4.34025, -0.9594727, 4.34025, -0.3765869, 4.34025, 2.9847329, 4.34025, 0.7862595, 4.34025, -3.7175572
0.5114118, -0.0199741, 4.347, -0.0714722, 4.347, -0.960022, 4.347, -0.3809814, 4.347, 3.221374, 4.347, 1.2900764, 4.347, -3.6412213
0.5122059, -0.0167849, 4.35375, -0.0693359, 4.35375, -0.9592285, 4.35375, -0.3812866, 4.35375, 3.3435113, 4.35375, 1.3435115, 4.35375, -3.5648854
0.513, -0.0149386, 4.3605, -0.0722656, 4.3605, -0.9614258, 4.3605, -0.3795776, 4.3605, 3.3282442, 4.3605, 1.4198474, 4.3605, -3.6717558
0.5137941, -0.0139315, 4.36725, -0.0720825, 4.36725, -0.9611816, 4.36725, -0.3809204, 4.36725, 3.1526718, 4.36725, 1.4885496, 4.36725, -3.6335878
0.5145882, -0.0159457, 4.374, -0.0780029, 4.374, -0.9577026, 4.374, -0.3820801, 4.374, 3.0763359, 4.374, 1.870229, 4.374, -3.3664122
0.5153824, -0.018967, 4.38075, -0.0761719, 4.38075, -0.9569092, 4.38075, -0.3795166, 4.38075, 2.778626, 4.38075, 1.9236641, 4.38075, -3.4580152
0.5161765, -0.0164492, 4.3875, -0.0740967, 4.3875, -0.9554443, 4.3875, -0.3789673, 4.3875, 2.8549619, 4.3875, 1.7175573, 4.3875, -3.4198472
0.5169706, -0.0179599, 4.39425, -0.067688, 4.39425, -0.9604492, 4.39425, -0.3809814, 4.39425, 2.6641221, 4.39425, 1.8091604, 4.39425, -3.4198472
0.5177647, -0.0218204, 4.401, -0.0722046, 4.401, -0.9602051, 4.401, -0.3813477, 4.401, 2.5954199, 4.401, 1.8931298, 4.401, -3.4274809
0.5185588, -0.0166171, 4.40775, -0.0731201, 4.40775, -0.9602051, 4.40775, -0.3841553, 4.40775, 2.5496182, 4.40775, 2.1603053, 4.40775, -3.3435113
0.5193529, -0.0119173, 4.4145, -0.0714111, 4.4145, -0.9573364, 4.4145, -0.3818359, 4.4145, 2.1221373, 4.4145, 2.2977099, 4.4145, -3.389313
0.5201471, -0.0149386, 4.42125, -0.0714722, 4.42125, -0.9589844, 4.42125, -0.3800659, 4.42125, 2.1145039, 4.42125, 2.389313, 4.42125, -3.1908398
0.5209412, -0.0078889, 4.428, -0.0788574, 4.428, -0.9609375, 4.428, -0.3725586, 4.428, 2.3053436, 4.428, 2.3206108, 4.428, -3.3969467
0.5217353, -0.0015106, 4.43475, -0.0854492, 4.43475, -0.9598389, 4.43475, -0.3652954, 4.43475, 2.038168, 4.43475, 1.7175573, 4.43475, -3.4274809
0.5225294, -0.0048676, 4.4415, -0.0842285, 4.4415, -0.9584351, 4.4415, -0.3746948, 4.4415, 2.2900763, 4.4415, 1.3206106, 4.4415, -3.3435113
0.5233235, -0.0139315, 4.44825, -0.0789795, 4.44825, -0.9567261, 4.44825, -0.3803711, 4.44825, 2.1832061, 4.44825, 1.2442749, 4.44825, -3.4274809
0.5241176, -0.0162814, 4.455, -0.074585, 4.455, -0.9630127, 4.455, -0.3804932, 4.455, 2.0076337, 4.455, 1.0458015, 4.455, -3.5038168
0.5249118, -0.0125887, 4.46175, -0.074646, 4.46175, -0.961731, 4.46175, -0.3786011, 4.46175, 2.0687022, 4.46175, 1.0610687, 4.46175, -3.4122138
0.5257059, -0.0176242, 4.4685, -0.0687256, 4.4685, -0.9616699, 4.4685, -0.3798218, 4.4685, 2.038168, 4.4685, 0.6641222, 4.4685, -3.4122138
0.5265, -0.018967, 4.47525, -0.0658569, 4.47525, -0.9613647, 4.47525, -0.3823242, 4.47525, 2.0610688, 4.47525, 0.648855, 4.47525, -3.3587787
0.5272941, -0.018967, 4.482, -0.0678101, 4.482, -0.9606323, 4.482, -0.3815918, 4.482, 1.7022901, 4.482, 0.6335878, 4.482, -3.3435113
0.5280882, -0.0182956, 4.48875, -0.0682983, 4.48875, -0.9597778, 4.48875, -0.3824463, 4.48875, 1.648855, 4.48875, 0.6793893, 4.48875, -3.4656489
0.5288824, -0.0130922, 4.4955, -0.0704346, 4.4955, -0.9592285, 4.4955, -0.3828735, 4.4955, 1.6946565, 4.4955, 0.7938932, 4.4955, -3.4351146
0.5296765, -0.0162814, 4.50225, -0.0701904, 4.50225, -0.9575806, 4.50225, -0.3908081, 4.50225, 1.7022901, 4.50225, 0.7557252, 4.50225, -3.1755726
0.5304706, -0.0256809, 4.509, -0.0769653, 4.509, -0.9562378, 4.509, -0.3856812, 4.509, 1.5267175, 4.509, 1.129771, 4.509, -3.0458016
0.5312647, -0.0310521, 4.51575, -0.0789795, 4.51575, -0.9590454, 4.51575, -0.3797607, 4.51575, 1.3206106, 4.51575, 1.4351145, 4.51575, -3.2290077
0.5320588, -0.0243381, 4.5225, -0.0776978, 4.5225, -0.963623, 4.5225, -0.383667, 4.5225, 1.2442749, 4.5225, 0.961832, 4.5225, -3.259542
0.5328529, -0.0182956, 4.52925, -0.0789185, 4.52925, -0.9598389, 4.52925, -0.3835449, 4.52925, 1.4580153, 4.52925, 0.8625954, 4.52925, -3.1145039
0.5336471, -0.017792, 4.536, -0.0748291, 4.536, -0.9573364, 4.536, -0.387085, 4.536, 1.4885496, 4.536, 0.908397, 4.536, -3.1221373
0.5344412, -0.0209812, 4.54275, -0.0767822, 4.54275, -0.961792, 4.54275, -0.3828125, 4.54275, 1.610687, 4.54275, 1.0839695, 4.54275, -3.351145
0.5352353, -0.018967, 4.5495, -0.0827637, 4.5495, -0.9613037, 4.5495, -0.3840332, 4.5495, 1.4885496, 4.5495, 0.8473282, 4.5495, -3.3969467
0.5360294, -0.014435, 4.55625, -0.0835571, 4.55625, -0.9594116, 4.55625, -0.3873901, 4.55625, 1.4045801, 4.55625, 0.7862595, 4.55625, -3.4503818
0.5368235, -0.0078889, 4.563, -0.0805054, 4.563, -0.9611816, 4.563, -0.3883667, 4.563, 1.1374046, 4.563, 0.8854962, 4.563, -3.2824428
0.5376176, -0.0045319, 4.56975, -0.0776978, 4.56975, -0.9646606, 4.56975, -0.3860474, 4.56975, 0.9923664, 4.56975, 0.7557252, 4.56975, -3.4122138
0.5384118, -0.0115816, 4.5765, -0.072937, 4.5765, -0.9660034, 4.5765, -0.3845825, 4.5765, 1.4274809, 4.5765, 0.648855, 4.5765, -3.3969467
0.5392059, -0.0112459, 4.58325, -0.0700073, 4.58325, -0.9624023, 4.58325, -0.3865967, 4.58325, 1.2366412, 4.58325, 0.5343512, 4.58325, -3.259542
0.54, -0.0082246, 4.59, -0.0700684, 4.59, -0.9622803, 4.59, -0.3828735, 4.59, 1.4198474, 4.59, 0.519084, 4.59, -3.5038168
0.5407941, -0.0149386, 4.59675, -0.0720825, 4.59675, -0.9585571, 4.59675, -0.37854, 4.59675, 1.1832061, 4.59675, 0.5267175, 4.59675, -3.259542
0.5415882, -0.0109102, 4.6035, -0.0722046, 4.6035, -0.9609375, 4.6035, -0.3810425, 4.6035, 1.3206106, 4.6035, 1.2442749, 4.6035, -3.1145039
0.5423824, -0.0045319, 4.61025, -0.0782471, 4.61025, -0.9607544, 4.61025, -0.3814087, 4.61025, 1.4656489, 4.61025, 1.7480916, 4.61025, -3.0152671
0.5431765, -0.0085603, 4.617, -0.079834, 4.617, -0.9613647, 4.617, -0.3781738, 4.617, 1.3206106, 4.617, 1.4580153, 4.617, -2.8549619
0.5439706, -0.0052033, 4.62375, -0.078125, 4.62375, -0.9627075, 4.62375, -0.3807373, 4.62375, 1.2671756, 4.62375, 1.2671756, 4.62375, -3.0305343
0.5447647, -0.0062104, 4.6305, -0.0745239, 4.6305, -0.9631348, 4.6305, -0.3778687, 4.6305, 1.2977099, 4.6305, 1.0458015, 4.6305, -3.0687022
0.5455588, -0.0135958, 4.63725, -0.0761719, 4.63725, -0.9637451, 4.63725, -0.3743896, 4.63725, 1.2366412, 4.63725, 0.610687, 4.63725, -3.2977099
0.5463529, -0.0176242, 4.644, -0.0758667, 4.644, -0.9613037, 4.644, -0.3776245, 4.644, 1.2137405, 4.644, 0.4351145, 4.644, -3.1603053
0.5471471, -0.0157778, 4.65075, -0.0736084, 4.65075, -0.9599609, 4.65075, -0.3800659, 4.65075, 1.1984733, 4.65075, 0.3358779, 4.65075, -3.0610688
0.5479412, -0.0139315, 4.6575, -0.0700073, 4.6575, -0.9620972, 4.6575, -0.380127, 4.6575, 0.961832, 4.6575, 0.5801527, 4.6575, -3.091603
0.5487353, -0.0132601, 4.66425, -0.0727539, 4.66425, -0.9586792, 4.66425, -0.380249, 4.66425, 1.0839695, 4.66425, 1.0076336, 4.66425, -2.961832
0.5495294, -0.0162814, 4.671, -0.074646, 4.671, -0.9585571, 4.671, -0.3820801, 4.671, 1.3206106, 4.671, 0.7557252, 4.671, -3.0152671
0.5503235, -0.0129244, 4.67775, -0.072876, 4.67775, -0.9614258, 4.67775, -0.3842773, 4.67775, 1.1832061, 4.67775, 0.5572519, 4.67775, -2.9694657
0.5511176, -0.0132601, 4.6845, -0.0784912, 4.6845, -0.958313, 4.6845, -0.3851318, 4.6845, 1.1068702, 4.6845, 0.2061069, 4.6845, -3.2519083
0.5519118, -0.01561, 4.69125, -0.0793457, 4.69125, -0.9606934, 4.69125, -0.3797607, 4.69125, 0.8625954, 4.69125, -0.1832061, 4.69125, -3.2442749
0.5527059, -0.0172885, 4.698, -0.079895, 4.698, -0.9633789, 4.698, -0.3786621, 4.698, 1.2442749, 4.698, -0.1984733, 4.698, -3.1908398
0.5535, -0.0162814, 4.70475, -0.0778198, 4.70475, -0.9603271, 4.70475, -0.3850708, 4.70475, 1.3358779, 4.70475, 0.0534351, 4.70475, -2.9236641
0.5542941, -0.0135958, 4.7115, -0.0733643, 4.7115, -0.961792, 4.7115, -0.3887939, 4.7115, 1.4122137, 4.7115, 0.1374046, 4.7115, -2.961832
0.5550882, -0.0135958, 4.71825, -0.0723267, 4.71825, -0.9606934, 4.71825, -0.3859863, 4.71825, 1.5801526, 4.71825, 0.389313, 4.71825, -3.0534351
0.5558824, -0.0095674, 4.725, -0.074585, 4.725, -0.9614868, 4.725, -0.3829346, 4.725, 1.961832, 4.725, 0.4351145, 4.725, -3.1679389
0.5566765, -0.0139315, 4.73175, -0.0801392, 4.73175, -0.9642944, 4.73175, -0.3847046, 4.73175, 1.8854961, 4.73175, 0.1679389, 4.73175, -3.1832061
0.5574706, -0.0135958, 4.7385, -0.0785522, 4.7385, -0.9626465, 4.7385, -0.3861084, 4.7385, 1.8091604, 4.7385, 0.3816794, 4.7385, -3.0076337
0.5582647, -0.0125887, 4.74525, -0.0710449, 4.74525, -0.9603882, 4.74525, -0.3859863, 4.74525, 1.9160305, 4.74525, 0.4961832, 4.74525, -2.9694657
0.5590588, -0.0162814, 4.752, -0.0725708, 4.752, -0.9611206, 4.752, -0.3826904, 4.752, 1.4961832, 4.752, 0.480916, 4.752, -2.9770992
0.5598529, -0.0169528, 4.75875, -0.0742798, 4.75875, -0.9607544, 4.75875, -0.381897, 4.75875, 1.5954199, 4.75875, 0.6946565, 4.75875, -3
0.5606471, -0.0171206, 4.7655, -0.0802002, 4.7655, -0.9614258, 4.7655, -0.383606, 4.7655, 1.4274809, 4.7655, 1.1068702, 4.7655, -2.778626
0.5614412, -0.0152743, 4.77225, -0.0787354, 4.77225, -0.9595947, 4.77225, -0.3827515, 4.77225, 1.2366412, 4.77225, 0.9541985, 4.77225, -2.9160306
0.5622353, -0.0149386, 4.779, -0.0792847, 4.779, -0.9599609, 4.779, -0.3826294, 4.779, 1.2900764, 4.779, 0.6259542, 4.779, -3.091603
0.5630294, -0.0186313, 4.78575, -0.0734863, 4.78575, -0.9644775, 4.78575, -0.380188, 4.78575, 1.351145, 4.78575, 0.5496183, 4.78575, -3.129771
0.5638235, -0.0216526, 4.7925, -0.0741577, 4.7925, -0.9634399, 4.7925, -0.3788452, 4.7925, 1.4732825, 4.7925, 0.3969466, 4.7925, -3.0687022
0.5646176, -0.0199741, 4.79925, -0.074585, 4.79925, -0.9622803, 4.79925, -0.3779907, 4.79925, 1.3816794, 4.79925, 0.4122137, 4.79925, -3.0229008
0.5654118, -0.0172885, 4.806, -0.0739746, 4.806, -0.9615479, 4.806, -0.3778687, 4.806, 1.4885496, 4.806, 0.4885496, 4.806, -3.0534351
0.5662059, -0.0142672, 4.81275, -0.0748291, 4.81275, -0.9603882, 4.81275, -0.3783569, 4.81275, 1.4503816, 4.81275, 0.6259542, 4.81275, -2.8320611
0.567, -0.0117494, 4.8195, -0.0770264, 4.8195, -0.963623, 4.8195, -0.3831787, 4.8195, 1.1908396, 4.8195, 0.7175573, 4.8195, -2.961832
0.5677941, -0.0112459, 4.82625, -0.0770874, 4.82625, -0.9638672, 4.82625, -0.3851929, 4.82625, 1.4961832, 4.82625, 0.3206107, 4.82625, -2.9847329
0.5685882, -0.0142672, 4.833, -0.0766602, 4.833, -0.9608765, 4.833, -0.3832397, 4.833, 1.5267175, 4.833, 0.1679389, 4.833, -2.9770992
0.5693824, -0.0142672, 4.83975, -0.0759888, 4.83975, -0.9592896, 4.83975, -0.3804321, 4.83975, 1.351145, 4.83975, 0.0381679, 4.83975, -2.9312978
0.5701765, -0.0142672, 4.8465, -0.0723267, 4.8465, -0.9595947, 4.8465, -0.3807983, 4.8465, 1.3969465, 4.8465, 0.0458015, 4.8465, -3.1221373
0.5709706, -0.0139315, 4.85325, -0.0772705, 4.85325, -0.9622803, 4.85325, -0.3852539, 4.85325, 1.4351145, 4.85325, 0.1450382, 4.85325, -3.0458016
0.5717647, -0.0171206, 4.86, -0.0726929, 4.86, -0.9606323, 4.86, -0.3847656, 4.86, 1.4885496, 4.86, 0.6412213, 4.86, -3
0.5725588, -0.0162814, 4.86675, -0.0710449, 4.86675, -0.9602051, 4.86675, -0.3851318, 4.86675, 1.4045801, 4.86675, 0.4580153, 4.86675, -3.0152671
0.5733529, -0.0186313, 4.8735, -0.0690918, 4.8735, -0.9606323, 4.8735, -0.3861084, 4.8735, 1.389313, 4.8735, 0.3129771, 4.8735, -3
0.5741471, -0.0149386, 4.88025, -0.0742188, 4.88025, -0.9606934, 4.88025, -0.3846436, 4.88025, 1.6564885, 4.88025, 0.4732825, 4.88025, -2.870229
0.5749412, -0.0135958, 4.887, -0.0750732, 4.887, -0.9619141, 4.887, -0.3878784, 4.887, 1.8473282, 4.887, 0.3969466, 4.887, -2.8625953
0.5757353, -0.01561, 4.89375, -0.0731812, 4.89375, -0.9627075, 4.89375, -0.387085, 4.89375, 1.9312977, 4.89375, 0.5419847, 4.89375, -3.0305343
0.5765294, -0.0166171, 4.9005, -0.0767822, 4.9005, -0.9605103, 4.9005, -0.383728, 4.9005, 1.8931298, 4.9005, 0.3664122, 4.9005, -2.9312978
0.5773235, -0.0132601, 4.90725, -0.0794678, 4.90725, -0.9593506, 4.90725, -0.3845215, 4.90725, 1.9312977, 4.90725, 0.0916031, 4.90725, -2.9389312
0.5781176, -0.0146029, 4.914, -0.0805054, 4.914, -0.9611206, 4.914, -0.3831787, 4.914, 2.1450381, 4.914, 0.0229008, 4.914, -2.9541984
0.5789118, -0.018967, 4.92075, -0.0805664, 4.92075, -0.9611816, 4.92075, -0.3828125, 4.92075, 2.1908398, 4.92075, 0.1221374, 4.92075, -3.0839694
0.5797059, -0.0182956, 4.9275, -0.0774536, 4.9275, -0.9603271, 4.9275, -0.3807373, 4.9275, 1.9847329, 4.9275, 0.5801527, 4.9275, -2.908397
0.5805, -0.0125887, 4.93425, -0.0742798, 4.93425, -0.9592896, 4.93425, -0.3797607, 4.93425, 1.7022901, 4.93425, 0.4961832, 4.93425, -3.1679389
0.5812941, -0.008896, 4.941, -0.072998, 4.941, -0.9602051, 4.941, -0.3798218, 4.941, 2.0305343, 4.941, 0.4274809, 4.941, -3.091603
0.5820882, -0.0182956, 4.94775, -0.0723267, 4.94775, -0.9624634, 4.94775, -0.3772583, 4.94775, 2.0687022, 4.94775, 0.3969466, 4.94775, -3.0152671
0.5828824, -0.0213169, 4.9545, -0.0751953, 4.9545, -0.9620972, 4.9545, -0.376709, 4.9545, 1.9694656, 4.9545, 0.4656489, 4.9545, -3.038168
0.5836765, -0.0169528, 4.96125, -0.0756226, 4.96125, -0.9596558, 4.96125, -0.37854, 4.96125, 1.5801526, 4.96125, 0.7557252, 4.96125, -2.870229
0.5844706, -0.0146029, 4.968, -0.0710449, 4.968, -0.9602051, 4.968, -0.3816528, 4.968, 1.7175573, 4.968, 1.1603054, 4.968, -2.8778627
0.5852647, -0.0169528, 4.97475, -0.0769653, 4.97475, -0.9641724, 4.97475, -0.3823242, 4.97475, 1.908397, 4.97475, 0.9312977, 4.97475, -2.8549619
0.5860588, -0.0196384, 4.9815, -0.0784302, 4.9815, -0.9606323, 4.9815, -0.3773804, 4.9815, 2.0305343, 4.9815, 0.3587786, 4.9815, -3.0992367
0.5868529, -0.0169528, 4.98825, -0.0751953, 4.98825, -0.9633789, 4.98825, -0.3778076, 4.98825, 2.2824428, 4.98825, 0.8244275, 4.98825, -2.870229
0.5876471, -0.0129244, 4.995, -0.0766602, 4.995, -0.9619141, 4.995, -0.3809814, 4.995, 2.0992367, 4.995, 0.8320611, 4.995, -2.8931298
0.5884412, -0.0085603, 5.00175, -0.0750122, 5.00175, -0.9595337, 5.00175, -0.3789673, 5.00175, 2.0687022, 5.00175, 0.9389313, 5.00175, -2.9312978
0.5892353, -0.0068818, 5.0085, -0.0761108, 5.0085, -0.9602051, 5.0085, -0.3761597, 5.0085, 2.221374, 5.0085, 0.9541985, 5.0085, -2.908397
0.5900294, -0.0083925, 5.01525, -0.0806274, 5.01525, -0.960083, 5.01525, -0.3792114, 5.01525, 1.9465649, 5.01525, 1.259542, 5.01525, -2.9389312
0.5908235, -0.0062104, 5.022, -0.076416, 5.022, -0.9603882, 5.022, -0.3782349, 5.022, 2.0229008, 5.022, 1.1374046, 5.022, -2.9160306
0.5916176, -0.0052033, 5.02875, -0.0784302, 5.02875, -0.9619141, 5.02875, -0.3765869, 5.02875, 2.0305343, 5.02875, 1.0992366, 5.02875, -2.9312978
0.5924118, -0.0062104, 5.0355, -0.0774536, 5.0355, -0.9606934, 5.0355, -0.3792114, 5.0355, 1.8778626, 5.0355, 1.1374046, 5.0355, -2.9847329
0.5932059, -0.0065461, 5.04225, -0.0750732, 5.04225, -0.960083, 5.04225, -0.3791504, 5.04225, 1.6030535, 5.04225, 0.8549618, 5.04225, -3.0305343
0.594, -0.0104067, 5.049, -0.074646, 5.049, -0.9619141, 5.049, -0.3791504, 5.049, 1.9923664, 5.049, 0.9160305, 5.049, -3.0458016
0.5947941, -0.0149386, 5.05575, -0.0771484, 5.05575, -0.9593506, 5.05575, -0.3759766, 5.05575, 1.8091604, 5.05575, 1.1603054, 5.05575, -2.7633588
0.5955882, -0.0196384, 5.0625, -0.0786743, 5.0625, -0.9611206, 5.0625, -0.3753052, 5.0625, 1.7328244, 5.0625, 1.0305344, 5.0625, -3.0305343
0.5963824, -0.0209812, 5.06925, -0.0758057, 5.06925, -0.9611816, 5.06925, -0.376709, 5.06925, 1.5038168, 5.06925, 0.8091603, 5.06925, -3.0458016
0.5971765, -0.0159457, 5.076, -0.0740356, 5.076, -0.9637451, 5.076, -0.381897, 5.076, 1.6259542, 5.076, 0.8625954, 5.076, -2.9847329
0.5979706, -0.0164492, 5.08275, -0.0737305, 5.08275, -0.961853, 5.08275, -0.3823242, 5.08275, 1.6717557, 5.08275, 0.7480916, 5.08275, -2.9312978
0.5987647, -0.0162814, 5.0895, -0.0749512, 5.0895, -0.963623, 5.0895, -0.3809204, 5.0895, 1.7557251, 5.0895, 0.6946565, 5.0895, -2.9312978
0.5995588, -0.0149386, 5.09625, -0.0772095, 5.09625, -0.9622192, 5.09625, -0.3758545, 5.09625, 1.7099236, 5.09625, 0.8625954, 5.09625, -3.0839694
0.6003529, -0.0102388, 5.103, -0.0801392, 5.103, -0.9616699, 5.103, -0.3753662, 5.103, 1.6564885, 5.103, 0.8091603, 5.103, -2.9770992
0.6011471, -0.008896, 5.10975, -0.0844727, 5.10975, -0.9603882, 5.10975, -0.3752441, 5.10975, 1.6335878, 5.10975, 0.6870229, 5.10975, -2.9694657
0.6019412, -0.0146029, 5.1165, -0.0826416, 5.1165, -0.9642944, 5.1165, -0.3774414, 5.1165, 1.8473282, 5.1165, 0.3740458, 5.1165, -3.0534351
0.6027353, -0.0162814, 5.12325, -0.081665, 5.12325, -0.9627686, 5.12325, -0.3793945, 5.12325, 1.9923664, 5.12325, 0.4122137, 5.12325, -3.0076337
0.6035294, -0.014435, 5.13, -0.0797119, 5.13, -0.961731, 5.13, -0.3771973, 5.13, 1.8549619, 5.13, 0.351145, 5.13, -3.3129771
0.6043235, -0.0119173, 5.13675, -0.0823364, 5.13675, -0.9620361, 5.13675, -0.3753052, 5.13675, 1.7251909, 5.13675, 0.4656489, 5.13675, -3.0458016
0.6051176, -0.0135958, 5.1435, -0.0794067, 5.1435, -0.9628906, 5.1435, -0.3745728, 5.1435, 1.6717557, 5.1435, 0.8091603, 5.1435, -3.0458016
0.6059118, -0.0149386, 5.15025, -0.0773926, 5.15025, -0.9625244, 5.15025, -0.3768311, 5.15025, 1.6335878, 5.15025, 1.0992366, 5.15025, -2.9465649
0.6067059, -0.0176242, 5.157, -0.0803223, 5.157, -0.9606323, 5.157, -0.3770752, 5.157, 1.648855, 5.157, 1.221374, 5.157, -3.0458016
0.6075, -0.0226596, 5.16375, -0.078186, 5.16375, -0.9606323, 5.16375, -0.3754272, 5.16375, 1.5954199, 5.16375, 1.3206106, 5.16375, -2.9465649
0.6082941, -0.0184634, 5.1705, -0.0753174, 5.1705, -0.9590454, 5.1705, -0.37677, 5.1705, 1.6259542, 5.1705, 1.0534351, 5.1705, -2.9007633
0.6090882, -0.0142672, 5.17725, -0.0794678, 5.17725, -0.9648438, 5.17725, -0.3765869, 5.17725, 1.5572519, 5.17725, 0.9236641, 5.17725, -3.0229008
0.6098824, -0.0149386, 5.184, -0.078064, 5.184, -0.9614868, 5.184, -0.3765259, 5.184, 1.6717557, 5.184, 0.9312977, 5.184, -3.0305343
0.6106765, -0.0151064, 5.19075, -0.0791626, 5.19075, -0.9592285, 5.19075, -0.3708496, 5.19075, 1.610687, 5.19075, 0.8931298, 5.19075, -3.1221373
0.6114706, -0.0159457, 5.1975, -0.0764771, 5.1975, -0.9592285, 5.1975, -0.3804321, 5.1975, 1.8244275, 5.1975, 0.7709923, 5.1975, -3.129771
0.6122647, -0.0159457, 5.20425, -0.0735474, 5.20425, -0.9604492, 5.20425, -0.37854, 5.20425, 1.4122137, 5.20425, 0.8854962, 5.20425, -2.9847329
0.6130588, -0.0152743, 5.211, -0.0718384, 5.211, -0.9644165, 5.211, -0.378479, 5.211, 1.5114504, 5.211, 1.0305344, 5.211, -2.9694657
0.6138529, -0.0149386, 5.21775, -0.0785522, 5.21775, -0.9616699, 5.21775, -0.3746338, 5.21775, 1.2977099, 5.21775, 1.4351145, 5.21775, -3.0687022
0.6146471, -0.0234989, 5.2245, -0.0814209, 5.2245, -0.958374, 5.2245, -0.3782959, 5.2245, 1.3664122, 5.2245, 1.1679389, 5.2245, -3.0534351
0.6154412, -0.0196384, 5.23125, -0.076416, 5.23125, -0.9621582, 5.23125, -0.3822021, 5.23125, 1.1450381, 5.23125, 1.0992366, 5.23125, -3.0839694
0.6162353, -0.0166171, 5.238, -0.0796509, 5.238, -0.9650879, 5.238, -0.3817139, 5.238, 1.4122137, 5.238, 1.0839695, 5.238, -3.1221373
0.6170294, -0.0162814, 5.24475, -0.0839233, 5.24475, -0.9640503, 5.24475, -0.3770752, 5.24475, 1.4122137, 5.24475, 0.9007633, 5.24475, -3.038168
0.6178235, -0.0166171, 5.2515, -0.079834, 5.2515, -0.9625244, 5.2515, -0.3747559, 5.2515, 1.5877863, 5.2515, 1, 5.2515, -3.1221373
0.6186176, -0.0159457, 5.25825, -0.0766602, 5.25825, -0.9606323, 5.25825, -0.3763428, 5.25825, 1.4045801, 5.25825, 0.519084, 5.25825, -3.2137403
0.6194118, -0.012253, 5.265, -0.0775146, 5.265, -0.9623413, 5.265, -0.3764648, 5.265, 1.4503816, 5.265, 0.4122137, 5.265, -3.1068702
0.6202059, -0.012253, 5.27175, -0.0772095, 5.27175, -0.9636841, 5.27175, -0.3771973, 5.27175, 1.6946565, 5.27175, 0.4198473, 5.27175, -3.2748091
0.621, -0.0129244, 5.2785, -0.0740967, 5.2785, -0.9642944, 5.2785, -0.381897, 5.2785, 1.4427481, 5.2785, 0.3587786, 5.2785, -3.389313
0.6217941, -0.0102388, 5.28525, -0.0725708, 5.28525, -0.9606323, 5.28525, -0.3778076, 5.28525, 1.6641221, 5.28525, 0.259542, 5.28525, -3.3358779
0.6225882, -0.0095674, 5.292, -0.0748291, 5.292, -0.9621582, 5.292, -0.3790894, 5.292, 1.9236641, 5.292, 0.5114504, 5.292, -3.2900763
0.6233824, -0.0115816, 5.29875, -0.0792236, 5.29875, -0.963501, 5.29875, -0.3830566, 5.29875, 1.4885496, 5.29875, 0.6870229, 5.29875, -3.1068702
0.6241765, -0.0191348, 5.3055, -0.0749512, 5.3055, -0.9597168, 5.3055, -0.3825073, 5.3055, 1.778626, 5.3055, 0.6183206, 5.3055, -3.3435113
0.6249706, -0.0253452, 5.31225, -0.0777588, 5.31225, -0.9611816, 5.31225, -0.381897, 5.31225, 1.6870229, 5.31225, 0.9694657, 5.31225, -3.2977099
0.6257647, -0.0276951, 5.319, -0.0800781, 5.319, -0.9620972, 5.319, -0.3793945, 5.319, 1.7328244, 5.319, 1.1450381, 5.319, -3.2977099
0.6265588, -0.0193027, 5.32575, -0.0800781, 5.32575, -0.960083, 5.32575, -0.3771973, 5.32575, 2.1755726, 5.32575, 1.519084, 5.32575, -3.1526718
0.6273529, -0.0095674, 5.3325, -0.0764771, 5.3325, -0.9598999, 5.3325, -0.3772583, 5.3325, 2.0610688, 5.3325, 1.519084, 5.3325, -3.2748091
0.6281471, -0.0015106, 5.33925, -0.079895, 5.33925, -0.9630737, 5.33925, -0.3740234, 5.33925, 1.961832, 5.33925, 1.3206106, 5.33925, -3.2824428
0.6289412, 0.0023499, 5.346, -0.0799561, 5.346, -0.963501, 5.346, -0.375, 5.346, 1.9236641, 5.346, 1.2824427, 5.346, -3.3053436
0.6297353, 0.0011749, 5.35275, -0.0802612, 5.35275, -0.9591675, 5.35275, -0.3769531, 5.35275, 1.6946565, 5.35275, 0.9007633, 5.35275, -3.4274809
0.6305294, -0.0045319, 5.3595, -0.0760498, 5.3595, -0.960144, 5.3595, -0.375061, 5.3595, 1.6793894, 5.3595, 0.7099237, 5.3595, -3.5572519
0.6313235, -0.0105745, 5.36625, -0.0727539, 5.36625, -0.9594727, 5.36625, -0.3764648, 5.36625, 1.610687, 5.36625, 0.8854962, 5.36625, -3.3053436
0.6321176, -0.0142672, 5.373, -0.0714722, 5.373, -0.9610596, 5.373, -0.3770752, 5.373, 1.2442749, 5.373, 0.9847328, 5.373, -3.4274809
0.6329118, -0.0176242, 5.37975, -0.0727539, 5.37975, -0.9592896, 5.37975, -0.3760376, 5.37975, 1.0687023, 5.37975, 1.221374, 5.37975, -3.2748091
0.6337059, -0.0146029, 5.3865, -0.0735474, 5.3865, -0.9607544, 5.3865, -0.3756104, 5.3865, 1.2366412, 5.3865, 1.3969465, 5.3865, -3.2748091
0.6345, -0.0149386, 5.39325, -0.0728149, 5.39325, -0.961792, 5.39325, -0.3731079, 5.39325, 1.2900764, 5.39325, 1.4351145, 5.39325, -3.3358779
0.6352941, -0.0172885, 5.4, -0.079834, 5.4, -0.9654541, 5.4, -0.3735352, 5.4, 1.3206106, 5.4, 1.5419847, 5.4, -3.1832061
0.6360882, -0.0176242, 5.40675, -0.0803833, 5.40675, -0.9622803, 5.40675, -0.3756104, 5.40675, 1.2290076, 5.40675, 1.3664122, 5.40675, -3.1603053
0.6368824, -0.0172885, 5.4135, -0.0819092, 5.4135, -0.9606323, 5.4135, -0.3747559, 5.4135, 1.1755725, 5.4135, 1.5343511, 5.4135, -3.1450381
0.6376765, -0.0179599, 5.42025, -0.0822144, 5.42025, -0.960083, 5.42025, -0.3751831, 5.42025, 1.2824427, 5.42025, 1.610687, 5.42025, -3.1755726
0.6384706, -0.0146029, 5.427, -0.0776978, 5.427, -0.9642944, 5.427, -0.3770142, 5.427, 1.0839695, 5.427, 1.0839695, 5.427, -3.3053436
0.6392647, -0.0154421, 5.43375, -0.0807495, 5.43375, -0.9664917, 5.43375, -0.3748169, 5.43375, 1.0229008, 5.43375, 0.9389313, 5.43375, -3.3969467
0.6400588, -0.0130922, 5.4405, -0.0772095, 5.4405, -0.9624634, 5.4405, -0.3730469, 5.4405, 0.8854962, 5.4405, 0.6030535, 5.4405, -3.4122138
0.6408529, -0.0139315, 5.44725, -0.0786133, 5.44725, -0.961731, 5.44725, -0.3728027, 5.44725, 0.8244275, 5.44725, 0.4656489, 5.44725, -3.4045801
0.6416471, -0.0159457, 5.454, -0.0828247, 5.454, -0.9602661, 5.454, -0.3745728, 5.454, 0.8854962, 5.454, 0.5725191, 5.454, -3.4198472
0.6424412, -0.0157778, 5.46075, -0.0755615, 5.46075, -0.9645996, 5.46075, -0.3757935, 5.46075, 0.8320611, 5.46075, 0.5267175, 5.46075, -3.4961832
0.6432353, -0.0169528, 5.4675, -0.0751953, 5.4675, -0.9641113, 5.4675, -0.3777466, 5.4675, 0.9694657, 5.4675, 0.3969466, 5.4675, -3.5038168
0.6440294, -0.0169528, 5.47425, -0.0744019, 5.47425, -0.9637451, 5.47425, -0.3775635, 5.47425, 1.0305344, 5.47425, 0.2137405, 5.47425, -3.4427481
0.6448235, -0.0129244, 5.481, -0.0733032, 5.481, -0.9656372, 5.481, -0.3769531, 5.481, 0.9694657, 5.481, 0.3664122, 5.481, -3.351145
0.6456176, -0.012253, 5.48775, -0.0759888, 5.48775, -0.9620972, 5.48775, -0.3794556, 5.48775, 0.908397, 5.48775, 0.5038168, 5.48775, -3.3358779
0.6464118, -0.014435, 5.4945, -0.0748901, 5.4945, -0.9619751, 5.4945, -0.3805542, 5.4945, 1.0839695, 5.4945, 0.7022901, 5.4945, -3.2900763
0.6472059, -0.014435, 5.50125, -0.0708618, 5.50125, -0.9595947, 5.50125, -0.3810425, 5.50125, 1.2824427, 5.50125, 0.6564885, 5.50125, -3.1526718
0.648, -0.018967, 5.508, -0.0767822, 5.508, -0.9613037, 5.508, -0.3788452, 5.508, 1.5877863, 5.508, 1.0610687, 5.508, -2.9923663
0.6487941, -0.0179599, 5.51475, -0.0772705, 5.51475, -0.9637451, 5.51475, -0.378479, 5.51475, 1.6412214, 5.51475, 1.1221374, 5.51475, -3.2366412
0.6495882, -0.0169528, 5.5215, -0.0802612, 5.5215, -0.961792, 5.5215, -0.3776245, 5.5215, 1.7480916, 5.5215, 1, 5.5215, -3.1755726
0.6503824, -0.0135958, 5.52825, -0.0804443, 5.52825, -0.9609985, 5.52825, -0.3775635, 5.52825, 1.8320611, 5.52825, 1.0534351, 5.52825, -3.038168
0.6511765, -0.0117494, 5.535, -0.0785522, 5.535, -0.9594116, 5.535, -0.3793335, 5.535, 1.7709924, 5.535, 0.9389313, 5.535, -3.3664122
0.6519706, -0.0169528, 5.54175, -0.0787354, 5.54175, -0.9615479, 5.54175, -0.383728, 5.54175, 1.8091604, 5.54175, 0.8396947, 5.54175, -3.3664122
0.6527647, -0.0224918, 5.5485, -0.0765381, 5.5485, -0.9606323, 5.5485, -0.3825073, 5.5485, 1.4885496, 5.5485, 0.6564885, 5.5485, -3.5725191
0.6535588, -0.0250095, 5.55525, -0.0796509, 5.55525, -0.9602661, 5.55525, -0.3783569, 5.55525, 1.7557251, 5.55525, 1.3740458, 5.55525, -3.2900763
0.6543529, -0.01561, 5.562, -0.0761719, 5.562, -0.9594727, 5.562, -0.382019, 5.562, 1.7480916, 5.562, 1.4732825, 5.562, -3.2366412
0.6551471, -0.0099031, 5.56875, -0.0751953, 5.56875, -0.9615479, 5.56875, -0.3814087, 5.56875, 1.5572519, 5.56875, 1.1984733, 5.56875, -3.3740458
0.6559412, -0.0139315, 5.5755, -0.0762329, 5.5755, -0.960144, 5.5755, -0.3806763, 5.5755, 1.778626, 5.5755, 1.0458015, 5.5755, -3.2366412
0.6567353, -0.0166171, 5.58225, -0.0769043, 5.58225, -0.9634399, 5.58225, -0.3765259, 5.58225, 1.6717557, 5.58225, 1.129771, 5.58225, -3.2824428
0.6575294, -0.0102388, 5.589, -0.0749512, 5.589, -0.9650269, 5.589, -0.3723145, 5.589, 1.7938931, 5.589, 1.0076336, 5.589, -3.2977099
0.6583235, -0.0075532, 5.59575, -0.0757446, 5.59575, -0.9625854, 5.59575, -0.3721313, 5.59575, 1.7633588, 5.59575, 0.7251908, 5.59575, -3.3740458
0.6591176, -0.0112459, 5.6025, -0.076355, 5.6025, -0.9590454, 5.6025, -0.3756714, 5.6025, 1.6946565, 5.6025, 0.4732825, 5.6025, -3.3740458
0.6599118, -0.012253, 5.60925, -0.0795288, 5.60925, -0.9581299, 5.60925, -0.3778687, 5.60925, 1.5877863, 5.60925, 0.3587786, 5.60925, -3.5496182
0.6607059, -0.0117494, 5.616, -0.0762329, 5.616, -0.960144, 5.616, -0.3803101, 5.616, 1.5648855, 5.616, 0.3740458, 5.616, -3.4274809
0.6615, -0.0109102, 5.62275, -0.0738525, 5.62275, -0.9619751, 5.62275, -0.3758545, 5.62275, 1.5496184, 5.62275, 0.6259542, 5.62275, -3.259542
0.6622941, -0.018967, 5.6295, -0.0762329, 5.6295, -0.9602661, 5.6295, -0.3747559, 5.6295, 1.3358779, 5.6295, 0.8625954, 5.6295, -3.1679389
0.6630882, -0.0236667, 5.63625, -0.0758057, 5.63625, -0.9632568, 5.63625, -0.3757324, 5.63625, 1.2824427, 5.63625, 0.5267175, 5.63625, -3.2977099
0.6638824, -0.023331, 5.643, -0.078125, 5.643, -0.9602051, 5.643, -0.3748779, 5.643, 1.2290076, 5.643, 0.480916, 5.643, -3.3740458
0.6646765, -0.0157778, 5.64975, -0.0787354, 5.64975, -0.960144, 5.64975, -0.3728027, 5.64975, 1.3816794, 5.64975, 0.6335878, 5.64975, -3.3816793
0.6654706, -0.0162814, 5.6565, -0.0806274, 5.6565, -0.9614868, 5.6565, -0.3713379, 5.6565, 1.4351145, 5.6565, 0.351145, 5.6565, -3.4885497
0.6662647, -0.0182956, 5.66325, -0.0756836, 5.66325, -0.9620972, 5.66325, -0.3740845, 5.66325, 1.6412214, 5.66325, 0.2137405, 5.66325, -3.4503818
0.6670588, -0.0194705, 5.67, -0.0770874, 5.67, -0.9620361, 5.67, -0.3745117, 5.67, 1.4351145, 5.67, 0.1145038, 5.67, -3.1832061
0.6678529, -0.0182956, 5.67675, -0.0748901, 5.67675, -0.9608154, 5.67675, -0.3741455, 5.67675, 1.740458, 5.67675, 0.1450382, 5.67675, -3.2137403
0.6686471, -0.01561, 5.6835, -0.0761719, 5.6835, -0.9627686, 5.6835, -0.3736572, 5.6835, 1.6259542, 5.6835, 0.0076336, 5.6835, -3.2442749
0.6694412, -0.012253, 5.69025, -0.0784302, 5.69025, -0.9603271, 5.69025, -0.371521, 5.69025, 1.3129771, 5.69025, 0.2366412, 5.69025, -3.4198472
0.6702353, -0.0082246, 5.697, -0.0755005, 5.697, -0.9602661, 5.697, -0.3758545, 5.697, 1.4045801, 5.697, 0.2748092, 5.697, -3.3129771
0.6710294, -0.0095674, 5.70375, -0.0807495, 5.70375, -0.9650269, 5.70375, -0.3751831, 5.70375, 1.5801526, 5.70375, 0.5419847, 5.70375, -3.351145
0.6718235, -0.0082246, 5.7105, -0.0803223, 5.7105, -0.9646606, 5.7105, -0.3730469, 5.7105, 1.6717557, 5.7105, 0.8931298, 5.7105, -3.221374
0.6726176, -0.0117494, 5.71725, -0.0733643, 5.71725, -0.9640503, 5.71725, -0.3753052, 5.71725, 1.6183206, 5.71725, 1.0763359, 5.71725, -3.2290077
0.6734118, -0.0149386, 5.724, -0.0716553, 5.724, -0.9645996, 5.724, -0.3717651, 5.724, 1.4198474, 5.724, 1.1374046, 5.724, -2.9465649
0.6742059, -0.0097353, 5.73075, -0.0706177, 5.73075, -0.9633789, 5.73075, -0.3746338, 5.73075, 1.3435115, 5.73075, 1.2442749, 5.73075, -3.0687022
