Application:, Trigno Discover (1.7.0)
Date/Time:, 2026/9/9 下午 03:26:37
Collection Length (seconds):, 115.587
Avanti Sensor 11 (69574)
sensor mode: 50
EMG 1 Time Series (s), EMG 1 (mV), ACC X Time Series (s), ACC X (G), ACC Y Time Series (s), ACC Y (G), ACC Z Time Series (s), ACC Z (G), GYRO X Time Series (s), GYRO X (deg/s), GYRO Y Time Series (s), GYRO Y (deg/s), GYRO Z Time Series (s), GYRO Z (deg/s)
, 1259.2593 Hz, , 148.1481 Hz, , 148.1481 Hz, , 148.1481 Hz, , 148.1481 Hz, , 148.1481 Hz, , 148.1481 Hz
0, -0.0083925, 0, 0.0212402, 0, -1.0359497, 0, -0.1207886, 0, 1.1068702, 0, 8.839695, 0, 13.679389
0.0007941, -0.0082246, 0.00675, -0.0038452, 0.00675, -1.0405273, 0.00675, -0.1179199, 0.00675, 1.3969465, 0.00675, 9.2366409, 0.00675, 13.8244276
0.0015882, -0.0072175, 0.0135, -0.0180054, 0.0135, -1.0457153, 0.0135, -0.1222534, 0.0135, 1.5725191, 0.0135, 9.4503813, 0.0135, 13.8931293
0.0023824, -0.0075532, 0.02025, -0.03302, 0.02025, -1.0512085, 0.02025, -0.1226807, 0.02025, 1.9847329, 0.02025, 9.9083967, 0.02025, 13.9541988
0.0031765, -0.0092317, 0.027, -0.0356445, 0.027, -1.0512085, 0.027, -0.1254883, 0.027, 1.9236641, 0.027, 9.5648851, 0.027, 13.9847326
0.0039706, -0.0125887, 0.03375, -0.0404663, 0.03375, -1.050415, 0.03375, -0.1188965, 0.03375, 1.9541985, 0.03375, 9.4503813, 0.03375, 13.6641226
0.0047647, -0.0149386, 0.0405, -0.0337524, 0.0405, -1.0487061, 0.0405, -0.1257935, 0.0405, 2.4122138, 0.0405, 9.4885492, 0.0405, 13.7022905
0.0055588, -0.0146029, 0.04725, -0.0302124, 0.04725, -1.0437012, 0.04725, -0.1322632, 0.04725, 2.5343511, 0.04725, 9.5419846, 0.04725, 13.320611
0.0063529, -0.0157778, 0.054, -0.02948, 0.054, -1.0359497, 0.054, -0.1466675, 0.054, 2.6641221, 0.054, 9.2595415, 0.054, 12.7557249
0.0071471, -0.0149386, 0.06075, -0.0339966, 0.06075, -1.0299683, 0.06075, -0.1594238, 0.06075, 2.8167939, 0.06075, 9.2900763, 0.06075, 12.2213745
0.0079412, -0.0152743, 0.0675, -0.0618896, 0.0675, -1.0210571, 0.0675, -0.163147, 0.0675, 2.4503818, 0.0675, 10.2366409, 0.0675, 11.6641226
0.0087353, -0.0139315, 0.07425, -0.0929565, 0.07425, -1.0150757, 0.07425, -0.1460571, 0.07425, 1.7862595, 0.07425, 10.7709923, 0.07425, 11.0152674
0.0095294, -0.0139315, 0.081, -0.1104736, 0.081, -1.0247192, 0.081, -0.1307983, 0.081, 1.4961832, 0.081, 11.1145039, 0.081, 10.4656487
0.0103235, -0.0176242, 0.08775, -0.1392212, 0.08775, -1.045105, 0.08775, -0.0961304, 0.08775, 1.519084, 0.08775, 9.5038166, 0.08775, 9.8931293
0.0111176, -0.0209812, 0.0945, -0.1625977, 0.0945, -1.0405884, 0.0945, -0.0752563, 0.0945, 1.5496184, 0.0945, 5.9083967, 0.0945, 8.3893127
0.0119118, -0.0243381, 0.10125, -0.1749268, 0.10125, -1.0302734, 0.10125, -0.0605469, 0.10125, 1.4656489, 0.10125, 1.5801526, 0.10125, 7.0687022
0.0127059, -0.0238346, 0.108, -0.168457, 0.108, -1.0308228, 0.108, -0.0489502, 0.108, 1.1908396, 0.108, -2.480916, 0.108, 5.8854961
0.0135, -0.0229953, 0.11475, -0.1501465, 0.11475, -1.0245361, 0.11475, -0.0321655, 0.11475, 0.8625954, 0.11475, -6.221374, 0.11475, 4.9389315
0.0142941, -0.0240024, 0.1215, -0.1230469, 0.1215, -1.0130615, 0.1215, -0.0177612, 0.1215, 0.5877863, 0.1215, -7.7175574, 0.1215, 4.4732823
0.0150882, -0.018967, 0.12825, -0.0853882, 0.12825, -0.9985352, 0.12825, -0.0083618, 0.12825, -0.0076336, 0.12825, -10.5114508, 0.12825, 3.7709923
0.0158824, -0.018967, 0.135, -0.0484619, 0.135, -0.9939575, 0.135, 0.0026855, 0.135, -0.8167939, 0.135, -12.1374044, 0.135, 3.4732823
0.0166765, -0.0209812, 0.14175, -0.015686, 0.14175, -0.9960938, 0.14175, 0.0094604, 0.14175, -1.5572519, 0.14175, -11.480916, 0.14175, 3.351145
0.0174706, -0.0209812, 0.1485, 0.0149536, 0.1485, -0.9953003, 0.1485, 0.008606, 0.1485, -2.1450381, 0.1485, -9.3664122, 0.1485, 3.2824428
0.0182647, -0.0196384, 0.15525, 0.0390625, 0.15525, -0.9952393, 0.15525, -0.0064087, 0.15525, -2.6412213, 0.15525, -6.3740458, 0.15525, 3.5954199
0.0190588, -0.0186313, 0.162, 0.0487671, 0.162, -0.9926758, 0.162, -0.0175781, 0.162, -2.8625953, 0.162, -2.519084, 0.162, 3.7480917
0.0198529, -0.0162814, 0.16875, 0.0541992, 0.16875, -0.9934082, 0.16875, -0.0546875, 0.16875, -3.1679389, 0.16875, 1.2671756, 0.16875, 3.9160306
0.0206471, -0.0142672, 0.1755, 0.0491943, 0.1755, -0.9795532, 0.1755, -0.0977783, 0.1755, -3.8396947, 0.1755, 4.519084, 0.1755, 4.0839696
0.0214412, -0.0142672, 0.18225, 0.048645, 0.18225, -0.9692383, 0.18225, -0.1296387, 0.18225, -5.1221375, 0.18225, 9.1297712, 0.18225, 4.5419846
0.0222353, -0.0167849, 0.189, 0.0663452, 0.189, -0.977417, 0.189, -0.1309204, 0.189, -6.3435116, 0.189, 16.160305, 0.189, 4.6030536
0.0230294, -0.0162814, 0.19575, 0.0706787, 0.19575, -0.9770508, 0.19575, -0.1331787, 0.19575, -7.1450381, 0.19575, 22.5954189, 0.19575, 4.2900763
0.0238235, -0.0164492, 0.2025, 0.0697632, 0.2025, -0.9699097, 0.2025, -0.1558838, 0.2025, -7.2290077, 0.2025, 25.160305, 0.2025, 4.1603055
0.0246176, -0.0194705, 0.20925, 0.079895, 0.20925, -0.9699707, 0.20925, -0.1705322, 0.20925, -7.961832, 0.20925, 31.3511448, 0.20925, 3.7938931
0.0254118, -0.0203098, 0.216, 0.1017456, 0.216, -0.9771118, 0.216, -0.1498413, 0.216, -8.0610685, 0.216, 39.0763359, 0.216, 2.2748091
0.0262059, -0.0196384, 0.22275, 0.1334229, 0.22275, -0.9810791, 0.22275, -0.1153564, 0.22275, -8.2671757, 0.22275, 47.122139, 0.22275, -1
0.027, -0.0218204, 0.2295, 0.1272583, 0.2295, -0.9942627, 0.2295, -0.0991821, 0.2295, -8.2671757, 0.2295, 53.5725174, 0.2295, -5.8473282
0.0277941, -0.0213169, 0.23625, 0.1056519, 0.23625, -0.9976196, 0.23625, -0.0950928, 0.23625, -6.778626, 0.23625, 55.5114517, 0.23625, -9.8778629
0.0285882, -0.0184634, 0.243, 0.0314941, 0.243, -0.9819336, 0.243, -0.0877075, 0.243, -3.5267177, 0.243, 52.8320618, 0.243, -12.3893127
0.0293824, -0.0182956, 0.24975, -0.0545044, 0.24975, -0.9625854, 0.24975, -0.083313, 0.24975, 0.1984733, 0.24975, 46.9236641, 0.24975, -13.519084
0.0301765, -0.0199741, 0.2565, -0.1381226, 0.2565, -0.963562, 0.2565, -0.0805054, 0.2565, 3.2824428, 0.2565, 38.4351158, 0.2565, -14.3053436
0.0309706, -0.0203098, 0.26325, -0.2069092, 0.26325, -0.972168, 0.26325, -0.0526123, 0.26325, 6.1679387, 0.26325, 28.6946564, 0.26325, -15.1755724
0.0317647, -0.0166171, 0.27, -0.2630005, 0.27, -0.9614868, 0.27, -0.0172119, 0.27, 9.5343513, 0.27, 18.6106873, 0.27, -16.6183205
0.0325588, -0.0149386, 0.27675, -0.2811279, 0.27675, -0.9467773, 0.27675, 0.0019531, 0.27675, 10.8854961, 0.27675, 13.2213745, 0.27675, -17.641222
0.0333529, -0.0172885, 0.2835, -0.2850342, 0.2835, -0.9315186, 0.2835, -0.0003662, 0.2835, 13.320611, 0.2835, 2.8473282, 0.2835, -19.5419846
0.0341471, -0.0169528, 0.29025, -0.2671509, 0.29025, -0.9168091, 0.29025, -0.0296631, 0.29025, 15.038168, 0.29025, -7.1221375, 0.29025, -20.396946
0.0349412, -0.0146029, 0.297, -0.2356567, 0.297, -0.9033203, 0.297, -0.0761108, 0.297, 14.7328243, 0.297, -13.9160309, 0.297, -19.5877857
0.0357353, -0.0112459, 0.30375, -0.1972046, 0.30375, -0.8859253, 0.30375, -0.1193237, 0.30375, 12.8167934, 0.30375, -15.198473, 0.30375, -18.0305347
0.0365294, -0.0102388, 0.3105, -0.1682129, 0.3105, -0.8809814, 0.3105, -0.170166, 0.3105, 9.641221, 0.3105, -11.8854961, 0.3105, -15.4122133
0.0373235, -0.0065461, 0.31725, -0.1698608, 0.31725, -0.8769531, 0.31725, -0.1900635, 0.31725, 4.8473282, 0.31725, -6.8854961, 0.31725, -11.3893127
0.0381176, -0.0092317, 0.324, -0.1821899, 0.324, -0.878418, 0.324, -0.1966553, 0.324, -0.2824427, 0.324, 1.0458015, 0.324, -6.9236641
0.0389118, -0.0095674, 0.33075, -0.2259521, 0.33075, -0.8779297, 0.33075, -0.182251, 0.33075, -4.3282442, 0.33075, 12.4656487, 0.33075, -2.480916
0.0397059, -0.0095674, 0.3375, -0.2823486, 0.3375, -0.9026489, 0.3375, -0.1784058, 0.3375, -9.4885492, 0.3375, 22.1526718, 0.3375, 2
0.0405, -0.0070497, 0.34425, -0.3267212, 0.34425, -0.9545288, 0.34425, -0.1646118, 0.34425, -15.3435116, 0.34425, 29.3893127, 0.34425, 5.7099237
0.0412941, -0.0085603, 0.351, -0.3504028, 0.351, -1.0292358, 0.351, -0.1026001, 0.351, -15.7480917, 0.351, 34.1068687, 0.351, 6.6946564
0.0420882, -0.0115816, 0.35775, -0.3713989, 0.35775, -1.0699463, 0.35775, -0.0233765, 0.35775, -13.9312973, 0.35775, 34.7938919, 0.35775, 6.3816795
0.0428824, -0.0124208, 0.3645, -0.3873291, 0.3645, -1.0928955, 0.3645, 0.0008545, 0.3645, -8.2519083, 0.3645, 30.0916023, 0.3645, 3.3206108
0.0436765, -0.0109102, 0.37125, -0.3724976, 0.37125, -1.0992432, 0.37125, -0.0549316, 0.37125, -3.1145039, 0.37125, 15.679389, 0.37125, -0.3282443
0.0444706, -0.0139315, 0.378, -0.3358154, 0.378, -1.0881958, 0.378, -0.1178589, 0.378, -0.6335878, 0.378, -2.2519083, 0.378, -3.5114503
0.0452647, -0.017792, 0.38475, -0.2808228, 0.38475, -1.0640259, 0.38475, -0.1599121, 0.38475, 2.0534351, 0.38475, -17.1145039, 0.38475, -5.1374044
0.0460588, -0.0149386, 0.3915, -0.2401733, 0.3915, -1.0456543, 0.3915, -0.1777344, 0.3915, 3.9770992, 0.3915, -27.9847336, 0.3915, -5.6641221
0.0468529, -0.0132601, 0.39825, -0.1416016, 0.39825, -1.0214233, 0.39825, -0.2139282, 0.39825, 4.2671757, 0.39825, -33.2366409, 0.39825, -6.6259542
0.0476471, -0.0154421, 0.405, -0.0324707, 0.405, -1.0100098, 0.405, -0.258606, 0.405, 3.908397, 0.405, -32.6564903, 0.405, -8.1068707
0.0484412, -0.0115816, 0.41175, 0.0614624, 0.41175, -1.0065308, 0.41175, -0.2984009, 0.41175, 2.4045801, 0.41175, -27.7480907, 0.41175, -9.4961834
0.0492353, -0.0083925, 0.4185, 0.1253662, 0.4185, -1.0020142, 0.4185, -0.3206787, 0.4185, 0.6259542, 0.4185, -19.7557259, 0.4185, -10.198473
0.0500294, -0.0058747, 0.42525, 0.1532593, 0.42525, -1.0039062, 0.42525, -0.324646, 0.42525, -0.3740458, 0.42525, -9.6335878, 0.42525, -10.6641226
0.0508235, -0.0031891, 0.432, 0.1392822, 0.432, -1.0075073, 0.432, -0.2994995, 0.432, -0.6564885, 0.432, -4.6870227, 0.432, -10.5877867
0.0516176, -0.0045319, 0.43875, 0.0892334, 0.43875, -1.0175781, 0.43875, -0.2538452, 0.43875, -0.8091603, 0.43875, 4.6488547, 0.43875, -10.8778629
0.0524118, -0.0073854, 0.4455, 0.0219727, 0.4455, -1.0227661, 0.4455, -0.2153931, 0.4455, -0.1603053, 0.4455, 11.3664122, 0.4455, -11.1679392
0.0532059, -0.0097353, 0.45225, -0.0541382, 0.45225, -1.0188599, 0.45225, -0.1854248, 0.45225, 0.8167939, 0.45225, 15.4045801, 0.45225, -11.8091602
0.054, -0.0102388, 0.459, -0.1342163, 0.459, -1.0125122, 0.459, -0.1622314, 0.459, 1.8549619, 0.459, 16.3053436, 0.459, -12.519084
0.0547941, -0.0115816, 0.46575, -0.2000732, 0.46575, -1.0149536, 0.46575, -0.1268921, 0.46575, 2.1374047, 0.46575, 14.5572519, 0.46575, -13.2061071
0.0555882, -0.014435, 0.4725, -0.2254639, 0.4725, -1.0169067, 0.4725, -0.104126, 0.4725, 2.7480917, 0.4725, 11.0839691, 0.4725, -14.1145039
0.0563824, -0.0169528, 0.47925, -0.2611084, 0.47925, -1.0246582, 0.47925, -0.0664673, 0.47925, 4.0763359, 0.47925, 5.3129773, 0.47925, -15.1832066
0.0571765, -0.0176242, 0.486, -0.2686157, 0.486, -1.0339355, 0.486, -0.0426636, 0.486, 5.9007635, 0.486, -1.9770992, 0.486, -16.396946
0.0579706, -0.0193027, 0.49275, -0.2480469, 0.49275, -1.0324707, 0.49275, -0.0299072, 0.49275, 7.8320613, 0.49275, -9.5725193, 0.49275, -17.480917
0.0587647, -0.0186313, 0.4995, -0.2130737, 0.4995, -1.0241089, 0.4995, -0.0301514, 0.4995, 9.7862597, 0.4995, -15.8473282, 0.4995, -18.5801525
0.0595588, -0.0179599, 0.50625, -0.170166, 0.50625, -1.0108643, 0.50625, -0.0371704, 0.50625, 10.6183205, 0.50625, -20.3816795, 0.50625, -19.3053436
0.0603529, -0.0162814, 0.513, -0.131958, 0.513, -0.9987183, 0.513, -0.053772, 0.513, 10.7709923, 0.513, -21.7633591, 0.513, -19.5877857
0.0611471, -0.0130922, 0.51975, -0.0964355, 0.51975, -0.9885254, 0.51975, -0.0769653, 0.51975, 10.1832066, 0.51975, -23.7709923, 0.51975, -20.2290077
0.0619412, -0.01561, 0.5265, -0.0708618, 0.5265, -0.9841919, 0.5265, -0.0842896, 0.5265, 8.6641226, 0.5265, -24.8549614, 0.5265, -20.801527
0.0627353, -0.0203098, 0.53325, -0.0512695, 0.53325, -0.979187, 0.53325, -0.0949097, 0.53325, 7.9389315, 0.53325, -25.9007626, 0.53325, -21.2137413
0.0635294, -0.0209812, 0.54, -0.0223389, 0.54, -0.9794312, 0.54, -0.112854, 0.54, 6.7709923, 0.54, -27.1221371, 0.54, -21.5343513
0.0643235, -0.0199741, 0.54675, -0.0146484, 0.54675, -0.9827881, 0.54675, -0.1131592, 0.54675, 5.2748094, 0.54675, -26.5954189, 0.54675, -21.7404575
0.0651176, -0.0179599, 0.5535, 0.005249, 0.5535, -0.987854, 0.5535, -0.1098022, 0.5535, 4.1221375, 0.5535, -24.4580154, 0.5535, -21.9923668
0.0659118, -0.0199741, 0.56025, 0.0250244, 0.56025, -0.9794922, 0.56025, -0.1165771, 0.56025, 1.8778626, 0.56025, -22.3282452, 0.56025, -22.3893127
0.0667059, -0.0243381, 0.567, 0.0418701, 0.567, -0.9816284, 0.567, -0.1282349, 0.567, 0.7557252, 0.567, -22.1832066, 0.567, -22.0305347
0.0675, -0.0240024, 0.57375, 0.0551147, 0.57375, -0.9891968, 0.57375, -0.1360474, 0.57375, -0.351145, 0.57375, -21.3282452, 0.57375, -21.8549614
0.0682941, -0.0243381, 0.5805, 0.0534058, 0.5805, -0.9921875, 0.5805, -0.1276855, 0.5805, -1.5496184, 0.5805, -18.839695, 0.5805, -21.8854961
0.0690882, -0.0246738, 0.58725, 0.0478516, 0.58725, -0.9857178, 0.58725, -0.1325073, 0.58725, -2.2061069, 0.58725, -17.9847336, 0.58725, -21.8702297
0.0698824, -0.0240024, 0.594, 0.0401001, 0.594, -0.9846191, 0.594, -0.1262817, 0.594, -3.1755726, 0.594, -17.5725193, 0.594, -21.3129768
0.0706765, -0.0236667, 0.60075, 0.0323486, 0.60075, -0.9940796, 0.60075, -0.1036377, 0.60075, -2.8549619, 0.60075, -15.641221, 0.60075, -20.7938938
0.0714706, -0.0236667, 0.6075, 0.0150146, 0.6075, -0.999939, 0.6075, -0.0754395, 0.6075, -2.2748091, 0.6075, -12.9465647, 0.6075, -20.5114498
0.0722647, -0.0216526, 0.61425, 0.0018921, 0.61425, -1.00177, 0.61425, -0.0620728, 0.61425, -1.7099236, 0.61425, -13.0458012, 0.61425, -19.9923668
0.0730588, -0.0182956, 0.621, -0.0133667, 0.621, -1.0125122, 0.621, -0.0524292, 0.621, -1.0839695, 0.621, -13.6641226, 0.621, -20.0305347
0.0738529, -0.0159457, 0.62775, -0.0178223, 0.62775, -1.0145874, 0.62775, -0.053894, 0.62775, 0.3129771, 0.62775, -13.8473282, 0.62775, -19.8167934
0.0746471, -0.0162814, 0.6345, -0.0158081, 0.6345, -1.0220947, 0.6345, -0.0667114, 0.6345, 1.7862595, 0.6345, -13.7709923, 0.6345, -19.6488552
0.0754412, -0.0135958, 0.64125, -0.0152588, 0.64125, -1.0201416, 0.64125, -0.0996094, 0.64125, 1.3664122, 0.64125, -15.4580154, 0.64125, -20.198473
0.0762353, -0.0135958, 0.648, -0.0045166, 0.648, -1.0160522, 0.648, -0.1365356, 0.648, -0.0916031, 0.648, -17.2290077, 0.648, -20.5954189
0.0770294, -0.0135958, 0.65475, 0.0133667, 0.65475, -1.0129395, 0.65475, -0.1591797, 0.65475, -0.9389313, 0.65475, -18.9389305, 0.65475, -20.3435116
0.0778235, -0.0117494, 0.6615, 0.0454712, 0.6615, -1.0158081, 0.6615, -0.1651611, 0.6615, -0.7022901, 0.6615, -18.442749, 0.6615, -19.5801525
0.0786176, -0.0105745, 0.66825, 0.0792236, 0.66825, -1.0165405, 0.66825, -0.1582642, 0.66825, -0.8396947, 0.66825, -17.6717548, 0.66825, -19.2977104
0.0794118, -0.0130922, 0.675, 0.1124268, 0.675, -1.0214844, 0.675, -0.1414185, 0.675, -1.5877863, 0.675, -16.1374054, 0.675, -18.519083
0.0802059, -0.0151064, 0.68175, 0.1382446, 0.68175, -1.0188599, 0.68175, -0.1233521, 0.68175, -1.9694656, 0.68175, -12.3282442, 0.68175, -18.0458012
0.081, -0.012253, 0.6885, 0.1446533, 0.6885, -1.0196533, 0.6885, -0.107605, 0.6885, -1.6183206, 0.6885, -8.5038166, 0.6885, -17.3358784
0.0817941, -0.0109102, 0.69525, 0.1183472, 0.69525, -1.013916, 0.69525, -0.0914307, 0.69525, -1.2366412, 0.69525, -5.5801525, 0.69525, -16.2595425
0.0825882, -0.0109102, 0.702, 0.1046753, 0.702, -1.008667, 0.702, -0.0853271, 0.702, -1.6641221, 0.702, -3.5419848, 0.702, -15.4503813
0.0833824, -0.005539, 0.70875, 0.0692749, 0.70875, -1.0049438, 0.70875, -0.0891724, 0.70875, -2.4961832, 0.70875, -2.2290077, 0.70875, -15.0076332
0.0841765, -0.0095674, 0.7155, 0.0389404, 0.7155, -1.0162964, 0.7155, -0.0965576, 0.7155, -3.389313, 0.7155, -1.7633588, 0.7155, -14.8931293
0.0849706, -0.012253, 0.72225, 0.0150146, 0.72225, -1.0235596, 0.72225, -0.0838623, 0.72225, -3.7175572, 0.72225, -1.8854961, 0.72225, -14.839695
0.0857647, -0.0132601, 0.729, 0.003418, 0.729, -1.0279541, 0.729, -0.0809937, 0.729, -4.0610685, 0.729, -4.519084, 0.729, -14.6183205
0.0865588, -0.0102388, 0.73575, 0.0049438, 0.73575, -1.0294189, 0.73575, -0.0905151, 0.73575, -3.7557251, 0.73575, -7.3129773, 0.73575, -14.2977095
0.0873529, -0.0092317, 0.7425, 0.019165, 0.7425, -1.0263062, 0.7425, -0.0942383, 0.7425, -3.7175572, 0.7425, -8.5343513, 0.7425, -13.7862597
0.0881471, -0.011078, 0.74925, 0.0513916, 0.74925, -1.0211182, 0.74925, -0.1082764, 0.74925, -3.2900763, 0.74925, -9.7709923, 0.74925, -13.3816795
0.0889412, -0.0142672, 0.756, 0.0826416, 0.756, -1.0179443, 0.756, -0.1254272, 0.756, -3.0152671, 0.756, -9.4503813, 0.756, -12.8854961
0.0897353, -0.0117494, 0.76275, 0.1112061, 0.76275, -1.0059814, 0.76275, -0.1400757, 0.76275, -3.1068702, 0.76275, -7.5496182, 0.76275, -12.480916
0.0905294, -0.0149386, 0.7695, 0.1333008, 0.7695, -1.0065308, 0.7695, -0.1546631, 0.7695, -3.221374, 0.7695, -4.2748094, 0.7695, -12
0.0913235, -0.0125887, 0.77625, 0.1396484, 0.77625, -1.0137329, 0.77625, -0.1715088, 0.77625, -3.1374047, 0.77625, -1.351145, 0.77625, -11.0992365
0.0921176, -0.0115816, 0.783, 0.1369629, 0.783, -1.0137329, 0.783, -0.1826172, 0.783, -2.4274809, 0.783, 1.0305344, 0.783, -10.2213745
0.0929118, -0.012253, 0.78975, 0.1334839, 0.78975, -1.0119019, 0.78975, -0.2122803, 0.78975, -2.908397, 0.78975, 3.1832061, 0.78975, -9.1526718
0.0937059, -0.0135958, 0.7965, 0.125061, 0.7965, -1.0232544, 0.7965, -0.2095337, 0.7965, -3.3282442, 0.7965, 6.2137403, 0.7965, -8.641221
0.0945, -0.0139315, 0.80325, 0.1062622, 0.80325, -1.0337524, 0.80325, -0.2094116, 0.80325, -3.1374047, 0.80325, 7.3893127, 0.80325, -7.8244276
0.0952941, -0.0166171, 0.81, 0.0878906, 0.81, -1.0450439, 0.81, -0.2072754, 0.81, -2.8931298, 0.81, 7.6259542, 0.81, -7.0839696
0.0960882, -0.0182956, 0.81675, 0.0775146, 0.81675, -1.0553589, 0.81675, -0.1940918, 0.81675, -2.389313, 0.81675, 8.4732828, 0.81675, -6.6335878
0.0968824, -0.0157778, 0.8235, 0.0792236, 0.8235, -1.0674438, 0.8235, -0.175293, 0.8235, -2.0534351, 0.8235, 8.8854961, 0.8235, -6.2366414
0.0976765, -0.0169528, 0.83025, 0.0770264, 0.83025, -1.0770264, 0.83025, -0.1608276, 0.83025, -1.3969465, 0.83025, 9.2061071, 0.83025, -5.2519083
0.0984706, -0.0169528, 0.837, 0.0780029, 0.837, -1.0615845, 0.837, -0.1610718, 0.837, -0.1145038, 0.837, 8.961832, 0.837, -4.1832061
0.0992647, -0.0142672, 0.84375, 0.0791016, 0.84375, -1.0460815, 0.84375, -0.1594849, 0.84375, 0.8396947, 0.84375, 9.0916033, 0.84375, -3.5496182
0.1000588, -0.0172885, 0.8505, 0.0716553, 0.8505, -1.0357056, 0.8505, -0.1582642, 0.8505, 1.2366412, 0.8505, 9.961832, 0.8505, -2.9847329
0.1008529, -0.0203098, 0.85725, 0.0706787, 0.85725, -1.0285645, 0.85725, -0.1540527, 0.85725, 1.5725191, 0.85725, 10.8778629, 0.85725, -2.6183207
0.1016471, -0.0219883, 0.864, 0.0612793, 0.864, -1.0124512, 0.864, -0.1443481, 0.864, 2.6030533, 0.864, 11.4274807, 0.864, -2.2748091
0.1024412, -0.0209812, 0.87075, 0.0543213, 0.87075, -1.0006714, 0.87075, -0.1465454, 0.87075, 3.1984732, 0.87075, 11.7786255, 0.87075, -1.6259542
0.1032353, -0.0176242, 0.8775, 0.0460205, 0.8775, -1.0065308, 0.8775, -0.1491089, 0.8775, 3.6641221, 0.8775, 12.0992365, 0.8775, -1.4045801
0.1040294, -0.0152743, 0.88425, 0.0252686, 0.88425, -1.0045166, 0.88425, -0.1558838, 0.88425, 4.4351144, 0.88425, 12.3435116, 0.88425, -1.3282443
0.1048235, -0.0149386, 0.891, -0.0002441, 0.891, -1.007019, 0.891, -0.1549683, 0.891, 4.778626, 0.891, 11.3511448, 0.891, -1.480916
0.1056176, -0.0132601, 0.89775, -0.0244751, 0.89775, -1.0100708, 0.89775, -0.1469116, 0.89775, 4.8244276, 0.89775, 10.4351149, 0.89775, -1.8473282
0.1064118, -0.014435, 0.9045, -0.0426025, 0.9045, -1.0180664, 0.9045, -0.1447754, 0.9045, 4.9541984, 0.9045, 8.1145039, 0.9045, -2.4274809
0.1072059, -0.0135958, 0.91125, -0.0485229, 0.91125, -1.0267334, 0.91125, -0.1362915, 0.91125, 5.7328243, 0.91125, 5.6030536, 0.91125, -2.7175572
0.108, -0.0139315, 0.918, -0.0358276, 0.918, -1.0291138, 0.918, -0.1303101, 0.918, 6.3816795, 0.918, 3.5496182, 0.918, -3.2137403
0.1087941, -0.0135958, 0.92475, -0.0236206, 0.92475, -1.0256348, 0.92475, -0.1239624, 0.92475, 6.8167939, 0.92475, 2.2671757, 0.92475, -3.4122138
0.1095882, -0.0115816, 0.9315, -0.0008545, 0.9315, -1.0150757, 0.9315, -0.1157227, 0.9315, 7.1984735, 0.9315, 1.4045801, 0.9315, -3.5801528
0.1103824, -0.0142672, 0.93825, 0.012146, 0.93825, -1.0073853, 0.93825, -0.1115112, 0.93825, 7.3282442, 0.93825, 1.2442749, 0.93825, -3.5572519
0.1111765, -0.0154421, 0.945, 0.0357056, 0.945, -1.0024414, 0.945, -0.1080322, 0.945, 7.1984735, 0.945, 2.1526718, 0.945, -3.6717558
0.1119706, -0.0162814, 0.95175, 0.0452271, 0.95175, -0.9962769, 0.95175, -0.1053467, 0.95175, 7.0610685, 0.95175, 3.2061069, 0.95175, -3.389313
0.1127647, -0.0216526, 0.9585, 0.0511475, 0.9585, -0.9987793, 0.9585, -0.1000366, 0.9585, 7.1832061, 0.9585, 3.5877862, 0.9585, -3.1068702
0.1135588, -0.0226596, 0.96525, 0.0570068, 0.96525, -0.9957275, 0.96525, -0.0982056, 0.96525, 7.3969464, 0.96525, 3.6335878, 0.96525, -2.6717558
0.1143529, -0.0223239, 0.972, 0.0606689, 0.972, -0.993042, 0.972, -0.0969238, 0.972, 6.8931298, 0.972, 3.3282442, 0.972, -2.4351146
0.1151471, -0.0216526, 0.97875, 0.0665283, 0.97875, -0.994812, 0.97875, -0.0913696, 0.97875, 6.7633586, 0.97875, 3.2900763, 0.97875, -1.9923664
0.1159412, -0.0203098, 0.9855, 0.0778809, 0.9855, -0.9979858, 0.9855, -0.09729, 0.9855, 6.5496182, 0.9855, 3.0152671, 0.9855, -1.5267175
0.1167353, -0.0199741, 0.99225, 0.0907593, 0.99225, -0.9968262, 0.99225, -0.0952148, 0.99225, 6.4045801, 0.99225, 3.129771, 0.99225, -0.6793893
0.1175294, -0.0172885, 0.999, 0.1005249, 0.999, -0.9938965, 0.999, -0.098877, 0.999, 6.0916033, 0.999, 3.1068702, 0.999, -0.0152672
0.1183235, -0.0162814, 1.00575, 0.1092529, 1.00575, -0.9924927, 1.00575, -0.1008911, 1.00575, 5.6106873, 1.00575, 3.5725191, 1.00575, 0.5114504
0.1191176, -0.0162814, 1.0125, 0.1090088, 1.0125, -0.9934082, 1.0125, -0.0987549, 1.0125, 5.4732823, 1.0125, 5.1908398, 1.0125, 1.5419847
0.1199118, -0.0166171, 1.01925, 0.1044922, 1.01925, -0.9951172, 1.01925, -0.1029663, 1.01925, 4.8015265, 1.01925, 6, 1.01925, 2.2061069
0.1207059, -0.0142672, 1.026, 0.0979004, 1.026, -0.9987793, 1.026, -0.1071167, 1.026, 4.1221375, 1.026, 6.5877862, 1.026, 2.6946564
0.1215, -0.0149386, 1.03275, 0.0802612, 1.03275, -0.9978027, 1.03275, -0.1029053, 1.03275, 3.5572519, 1.03275, 7.8167939, 1.03275, 3.0305343
0.1222941, -0.0149386, 1.0395, 0.0619507, 1.0395, -1.0010376, 1.0395, -0.0985107, 1.0395, 2.7557251, 1.0395, 8.1526718, 1.0395, 3.6717558
0.1230882, -0.0152743, 1.04625, 0.0383301, 1.04625, -1.0002441, 1.04625, -0.0831299, 1.04625, 2.3969467, 1.04625, 7.9389315, 1.04625, 4.1755724
0.1238824, -0.012253, 1.053, 0.0266724, 1.053, -0.9996948, 1.053, -0.0858765, 1.053, 2.4427481, 1.053, 7.8167939, 1.053, 4.3206105
0.1246765, -0.0092317, 1.05975, 0.017395, 1.05975, -0.9959106, 1.05975, -0.0857544, 1.05975, 1.8625954, 1.05975, 7.4274807, 1.05975, 4.5419846
0.1254706, -0.0117494, 1.0665, 0.0142212, 1.0665, -0.9985962, 1.0665, -0.078064, 1.0665, 1.0610687, 1.0665, 7.0458016, 1.0665, 4.6870227
0.1262647, -0.0114137, 1.07325, 0.0093994, 1.07325, -0.9954834, 1.07325, -0.0769653, 1.07325, 0.6564885, 1.07325, 6.5343513, 1.07325, 4.7633586
0.1270588, -0.0149386, 1.08, 0.006897, 1.08, -0.9907837, 1.08, -0.0770264, 1.08, 0.610687, 1.08, 5.7633586, 1.08, 4.6717558
0.1278529, -0.0169528, 1.08675, 0.0054321, 1.08675, -0.9893799, 1.08675, -0.076355, 1.08675, 0.4122137, 1.08675, 5.4198475, 1.08675, 4.8244276
0.1286471, -0.0154421, 1.0935, 0.0067139, 1.0935, -0.9849854, 1.0935, -0.0806274, 1.0935, -0.221374, 1.0935, 4.6488547, 1.0935, 4.6946564
0.1294412, -0.018967, 1.10025, 0.0110474, 1.10025, -0.9823608, 1.10025, -0.0802612, 1.10025, -0.519084, 1.10025, 4.0763359, 1.10025, 4.9923663
0.1302353, -0.0203098, 1.107, 0.0194702, 1.107, -0.9822998, 1.107, -0.0870972, 1.107, -0.8015267, 1.107, 3.9007633, 1.107, 5.0458016
0.1310294, -0.0209812, 1.11375, 0.0268555, 1.11375, -0.982666, 1.11375, -0.0892334, 1.11375, -0.9923664, 1.11375, 4.1221375, 1.11375, 5.519084
0.1318235, -0.023331, 1.1205, 0.0334473, 1.1205, -0.984314, 1.1205, -0.1015015, 1.1205, -1.3129771, 1.1205, 4.259542, 1.1205, 5.8167939
0.1326176, -0.0248417, 1.12725, 0.0316772, 1.12725, -0.9829102, 1.12725, -0.1047974, 1.12725, -1.5114504, 1.12725, 4.3053436, 1.12725, 6.0916033
0.1334118, -0.0229953, 1.134, 0.0299683, 1.134, -0.9811401, 1.134, -0.1148071, 1.134, -1.4427481, 1.134, 4.1679387, 1.134, 6.2366414
0.1342059, -0.023331, 1.14075, 0.0285645, 1.14075, -0.9874268, 1.14075, -0.1268311, 1.14075, -1.6717557, 1.14075, 3.8931298, 1.14075, 6.3893127
0.135, -0.0209812, 1.1475, 0.0223389, 1.1475, -0.9938965, 1.1475, -0.1286621, 1.1475, -2.0687022, 1.1475, 3.8778627, 1.1475, 6.1679387
0.1357941, -0.0162814, 1.15425, 0.0120239, 1.15425, -1.0015869, 1.15425, -0.1256714, 1.15425, -2.0534351, 1.15425, 4.2748094, 1.15425, 5.9694657
0.1365882, -0.01561, 1.161, 0.0040894, 1.161, -1.0058594, 1.161, -0.1317749, 1.161, -1.7862595, 1.161, 3.9694657, 1.161, 5.9770994
0.1373824, -0.0139315, 1.16775, -0.0001221, 1.16775, -1.0073242, 1.16775, -0.1322021, 1.16775, -1.740458, 1.16775, 3.4885497, 1.16775, 5.8167939
0.1381765, -0.0152743, 1.1745, -0.0133057, 1.1745, -1.0125732, 1.1745, -0.1315918, 1.1745, -1.3206106, 1.1745, 2.8320611, 1.1745, 5.5267177
0.1389706, -0.0182956, 1.18125, -0.0239258, 1.18125, -1.0170898, 1.18125, -0.1275635, 1.18125, -0.9923664, 1.18125, 2.4198472, 1.18125, 5.0458016
0.1397647, -0.0176242, 1.188, -0.0324707, 1.188, -1.0163574, 1.188, -0.1305542, 1.188, -0.8015267, 1.188, 1.7175573, 1.188, 4.6106873
0.1405588, -0.0179599, 1.19475, -0.0435791, 1.19475, -1.0185547, 1.19475, -0.1346436, 1.19475, -0.5343512, 1.19475, 1.3969465, 1.19475, 4.1832061
0.1413529, -0.0179599, 1.2015, -0.0488281, 1.2015, -1.0214844, 1.2015, -0.1384277, 1.2015, 0.1145038, 1.2015, 1.4274809, 1.2015, 3.8167939
0.1421471, -0.0162814, 1.20825, -0.0540161, 1.20825, -1.0189819, 1.20825, -0.1387939, 1.20825, 0.3206107, 1.20825, 1.2366412, 1.20825, 3.610687
0.1429412, -0.0129244, 1.215, -0.0529785, 1.215, -1.0206909, 1.215, -0.1421509, 1.215, 0.4045801, 1.215, 0.480916, 1.215, 3.0687022
0.1437353, -0.0082246, 1.22175, -0.0444336, 1.22175, -1.0202637, 1.22175, -0.1426392, 1.22175, 0.480916, 1.22175, -0.6641222, 1.22175, 2.519084
0.1445294, -0.0130922, 1.2285, -0.0291748, 1.2285, -1.0192261, 1.2285, -0.1442871, 1.2285, 0.7862595, 1.2285, -1.5648855, 1.2285, 2.2137403
0.1453235, -0.0125887, 1.23525, -0.0101929, 1.23525, -1.0090332, 1.23525, -0.1395264, 1.23525, 0.9389313, 1.23525, -1.9923664, 1.23525, 1.8396946
0.1461176, -0.008896, 1.242, 0.0038452, 1.242, -1.0057983, 1.242, -0.1365967, 1.242, 1.0534351, 1.242, -1.9923664, 1.242, 1.5725191
0.1469118, -0.0057069, 1.24875, 0.0031738, 1.24875, -1.0057983, 1.24875, -0.1376953, 1.24875, 1.5801526, 1.24875, -1.480916, 1.24875, 1.7022901
0.1477059, -0.005539, 1.2555, 0.0097656, 1.2555, -0.9996948, 1.2555, -0.1513062, 1.2555, 1.2366412, 1.2555, -0.9770992, 1.2555, 1.5343511
0.1485, -0.0035248, 1.26225, 0.0067139, 1.26225, -0.9970703, 1.26225, -0.1373901, 1.26225, 1.0152671, 1.26225, 0.1374046, 1.26225, 1.351145
0.1492941, -0.003357, 1.269, 0.0071411, 1.269, -0.9974976, 1.269, -0.118103, 1.269, 1.6793894, 1.269, 1.2290076, 1.269, 1.2137405
0.1500882, -0.0038605, 1.27575, 0.0018311, 1.27575, -0.9921875, 1.27575, -0.1213989, 1.27575, 1.9236641, 1.27575, 1.8320611, 1.27575, 1.1450381
0.1508824, -0.002182, 1.2825, -0.006958, 1.2825, -1.0007324, 1.2825, -0.119751, 1.2825, 2.1603053, 1.2825, 2.1755726, 1.2825, 0.7022901
0.1516765, -0.0041962, 1.28925, -0.0205688, 1.28925, -1.0064697, 1.28925, -0.1062622, 1.28925, 2.1374047, 1.28925, 2, 1.28925, 0.7175573
0.1524706, -0.0072175, 1.296, -0.0324707, 1.296, -1.0151367, 1.296, -0.1009521, 1.296, 2.3969467, 1.296, 1.961832, 1.296, 0.5877863
0.1532647, -0.0092317, 1.30275, -0.0385132, 1.30275, -1.0130615, 1.30275, -0.1033325, 1.30275, 3.0992367, 1.30275, 1.0458015, 1.30275, 0
0.1540588, -0.0115816, 1.3095, -0.0415039, 1.3095, -1.0109863, 1.3095, -0.109375, 1.3095, 2.8473282, 1.3095, 0.3816794, 1.3095, -0.1450382
0.1548529, -0.0095674, 1.31625, -0.0343018, 1.31625, -1.015564, 1.31625, -0.1085205, 1.31625, 2.5038168, 1.31625, 0.1603053, 1.31625, -0.3816794
0.1556471, -0.0075532, 1.323, -0.0289917, 1.323, -1.0162964, 1.323, -0.1055298, 1.323, 2.6259542, 1.323, -0.1755725, 1.323, -0.5725191
0.1564412, -0.0085603, 1.32975, -0.02771, 1.32975, -1.0172119, 1.32975, -0.1047363, 1.32975, 2.9160306, 1.32975, -0.8320611, 1.32975, -0.7099237
0.1572353, -0.0082246, 1.3365, -0.0237427, 1.3365, -1.0112305, 1.3365, -0.1008911, 1.3365, 3.1755726, 1.3365, -1.1145039, 1.3365, -0.7099237
0.1580294, -0.0097353, 1.34325, -0.0154419, 1.34325, -1.0064697, 1.34325, -0.1053467, 1.34325, 3.3969467, 1.34325, -1.3206106, 1.34325, -1.1374046
0.1588235, -0.0102388, 1.35, -0.0071411, 1.35, -1.0093384, 1.35, -0.1090698, 1.35, 3.0229008, 1.35, -1.4274809, 1.35, -1.2824427
0.1596176, -0.0087282, 1.35675, -0.0007324, 1.35675, -1.0090942, 1.35675, -0.1126709, 1.35675, 2.8015268, 1.35675, -1.4656489, 1.35675, -1.5114504
0.1604118, -0.0129244, 1.3635, 0.0021973, 1.3635, -1.0027466, 1.3635, -0.109375, 1.3635, 2.7557251, 1.3635, -1.1832061, 1.3635, -1.7022901
0.1612059, -0.0149386, 1.37025, 0.0037231, 1.37025, -0.9986572, 1.37025, -0.1052246, 1.37025, 2.5038168, 1.37025, -0.8473282, 1.37025, -1.519084
0.162, -0.0132601, 1.377, 0.0027466, 1.377, -0.99646, 1.377, -0.1029663, 1.377, 2.2900763, 1.377, -0.2824427, 1.377, -1.480916
0.1627941, -0.0130922, 1.38375, -0.0007324, 1.38375, -1.0031128, 1.38375, -0.1000366, 1.38375, 2, 1.38375, 0.1221374, 1.38375, -1.7862595
0.1635882, -0.0124208, 1.3905, -0.0053711, 1.3905, -0.9990845, 1.3905, -0.0949097, 1.3905, 1.6641221, 1.3905, 0.221374, 1.3905, -1.7633588
0.1643824, -0.0132601, 1.39725, -0.010437, 1.39725, -0.9952393, 1.39725, -0.0985107, 1.39725, 0.8778626, 1.39725, 0.3206107, 1.39725, -2.0152671
0.1651765, -0.0186313, 1.404, -0.0150146, 1.404, -0.994751, 1.404, -0.0978394, 1.404, 0.4656489, 1.404, 0.4427481, 1.404, -1.908397
0.1659706, -0.0191348, 1.41075, -0.0179443, 1.41075, -1.0004272, 1.41075, -0.0917969, 1.41075, 0.4885496, 1.41075, 0.5877863, 1.41075, -1.8015267
0.1667647, -0.0193027, 1.4175, -0.0223389, 1.4175, -1.0014038, 1.4175, -0.0894775, 1.4175, 0.3206107, 1.4175, 0.389313, 1.4175, -2.0763359
0.1675588, -0.018967, 1.42425, -0.0172119, 1.42425, -1.0024414, 1.42425, -0.0921631, 1.42425, -0.1374046, 1.42425, 0.0076336, 1.42425, -2.2824428
0.1683529, -0.0186313, 1.431, -0.0175781, 1.431, -1.0006104, 1.431, -0.0914307, 1.431, -0.3969466, 1.431, -0.4732825, 1.431, -2.3358779
0.1691471, -0.018967, 1.43775, -0.0133667, 1.43775, -1.000061, 1.43775, -0.0979614, 1.43775, -0.4122137, 1.43775, -0.8625954, 1.43775, -2.3358779
0.1699412, -0.018967, 1.4445, -0.006897, 1.4445, -1.0014038, 1.4445, -0.1036987, 1.4445, -0.3969466, 1.4445, -0.9007633, 1.4445, -2.2900763
0.1707353, -0.0149386, 1.45125, -0.0023193, 1.45125, -1.00354, 1.45125, -0.1102905, 1.45125, -0.7557252, 1.45125, -0.8854962, 1.45125, -2.2061069
0.1715294, -0.0149386, 1.458, 0.0040894, 1.458, -1.0057983, 1.458, -0.1051025, 1.458, -0.9847328, 1.458, 0.1679389, 1.458, -2.2900763
0.1723235, -0.0172885, 1.46475, 0.0072632, 1.46475, -1.0062866, 1.46475, -0.104187, 1.46475, -0.8625954, 1.46475, 1.2671756, 1.46475, -2.3129771
0.1731176, -0.0191348, 1.4715, 0.0057373, 1.4715, -1.0062256, 1.4715, -0.1044312, 1.4715, -0.5496183, 1.4715, 1.9847329, 1.4715, -2.129771
0.1739118, -0.0203098, 1.47825, 0.0057983, 1.47825, -1.0057983, 1.47825, -0.1055908, 1.47825, -0.1755725, 1.47825, 2.4351146, 1.47825, -2.1450381
0.1747059, -0.021149, 1.485, 0.0002441, 1.485, -1.0013428, 1.485, -0.1142578, 1.485, 0.1908397, 1.485, 3.091603, 1.485, -2.2061069
0.1755, -0.023331, 1.49175, -0.0054932, 1.49175, -1.0001831, 1.49175, -0.1174316, 1.49175, -0.2748092, 1.49175, 3.6641221, 1.49175, -2.2900763
0.1762941, -0.0270237, 1.4985, -0.0076904, 1.4985, -1.0083008, 1.4985, -0.1149292, 1.4985, -0.3816794, 1.4985, 3.9465649, 1.4985, -2.4274809
0.1770882, -0.0273594, 1.50525, -0.0166016, 1.50525, -1.0109863, 1.50525, -0.1131592, 1.50525, -0.0076336, 1.50525, 3.9847329, 1.50525, -2.6335878
0.1778824, -0.0292058, 1.512, -0.0194702, 1.512, -1.0123291, 1.512, -0.1126099, 1.512, 0.0534351, 1.512, 3.7328243, 1.512, -2.870229
0.1786765, -0.0276951, 1.51875, -0.0175781, 1.51875, -1.005188, 1.51875, -0.116394, 1.51875, 0.3282443, 1.51875, 3.6030533, 1.51875, -2.8396947
0.1794706, -0.0256809, 1.5255, -0.0169067, 1.5255, -1.0080566, 1.5255, -0.1141357, 1.5255, 0.3129771, 1.5255, 3.1526718, 1.5255, -2.7709923
0.1802647, -0.0203098, 1.53225, -0.0184937, 1.53225, -1.0073853, 1.53225, -0.1141968, 1.53225, -0.0458015, 1.53225, 2.6870229, 1.53225, -2.5954199
0.1810588, -0.0193027, 1.539, -0.0256958, 1.539, -1.0078735, 1.539, -0.1132202, 1.539, 0.1221374, 1.539, 2.4351146, 1.539, -2.9541984
0.1818529, -0.0209812, 1.54575, -0.0296631, 1.54575, -1.0089722, 1.54575, -0.1159668, 1.54575, -0.1221374, 1.54575, 1.908397, 1.54575, -3.2061069
0.1826471, -0.018967, 1.5525, -0.026062, 1.5525, -1.0097046, 1.5525, -0.1173096, 1.5525, -0.0381679, 1.5525, 1.4122137, 1.5525, -3.3282442
0.1834412, -0.0166171, 1.55925, -0.0222778, 1.55925, -1.0111694, 1.55925, -0.1209106, 1.55925, -0.1679389, 1.55925, 1.3740458, 1.55925, -3.5877862
0.1842353, -0.0196384, 1.566, -0.0139771, 1.566, -1.0077515, 1.566, -0.1149902, 1.566, -0.1145038, 1.566, 1.5267175, 1.566, -3.6641221
0.1850294, -0.0162814, 1.57275, -0.0111694, 1.57275, -1.0050659, 1.57275, -0.1151733, 1.57275, -0.4656489, 1.57275, 1.5725191, 1.57275, -3.5725191
0.1858235, -0.0137636, 1.5795, -0.0042114, 1.5795, -1.0032959, 1.5795, -0.1192627, 1.5795, -1.2824427, 1.5795, 2.1526718, 1.5795, -3.7175572
0.1866176, -0.0119173, 1.58625, -0.0028687, 1.58625, -1.0029297, 1.58625, -0.1195679, 1.58625, -1.5343511, 1.58625, 3.1679389, 1.58625, -3.6335878
0.1874118, -0.0146029, 1.593, -0.0041504, 1.593, -1.0095825, 1.593, -0.1184692, 1.593, -1.7251909, 1.593, 3.6335878, 1.593, -3.7251909
0.1882059, -0.01561, 1.59975, -0.0115356, 1.59975, -1.006897, 1.59975, -0.1141968, 1.59975, -1.4885496, 1.59975, 3.7175572, 1.59975, -3.5801528
0.189, -0.0149386, 1.6065, -0.0165405, 1.6065, -1.0059814, 1.6065, -0.1149902, 1.6065, -1.3587786, 1.6065, 3.8396947, 1.6065, -3.8625953
0.1897941, -0.0159457, 1.61325, -0.020752, 1.61325, -1.0067139, 1.61325, -0.1239014, 1.61325, -1.0305344, 1.61325, 3.4045801, 1.61325, -3.6946564
0.1905882, -0.01561, 1.62, -0.0181885, 1.62, -1.0002441, 1.62, -0.1218872, 1.62, -1.2977099, 1.62, 3.0458016, 1.62, -3.7480917
0.1913824, -0.0129244, 1.62675, -0.0141602, 1.62675, -1.0066528, 1.62675, -0.1177979, 1.62675, -1.4274809, 1.62675, 2.9236641, 1.62675, -3.7862597
0.1921765, -0.010071, 1.6335, -0.0134888, 1.6335, -1.0075684, 1.6335, -0.1192627, 1.6335, -1.519084, 1.6335, 2.8167939, 1.6335, -3.9694657
0.1929706, -0.0099031, 1.64025, -0.0123901, 1.64025, -1.0054932, 1.64025, -0.1190796, 1.64025, -1.3053435, 1.64025, 2.778626, 1.64025, -4.0839696
0.1937647, -0.0109102, 1.647, -0.0064087, 1.647, -1.010498, 1.647, -0.1113892, 1.647, -1.4580153, 1.647, 3.3740458, 1.647, -4.0687022
0.1945588, -0.0157778, 1.65375, 0.0018921, 1.65375, -1.0126953, 1.65375, -0.1055908, 1.65375, -1.0229008, 1.65375, 4.1755724, 1.65375, -4.2061067
0.1953529, -0.0176242, 1.6605, 0.0100098, 1.6605, -1.0137939, 1.6605, -0.1073608, 1.6605, -0.4885496, 1.6605, 4.5267177, 1.6605, -3.8015268
0.1961471, -0.0152743, 1.66725, 0.0084229, 1.66725, -1.0064087, 1.66725, -0.1161499, 1.66725, 0.0076336, 1.66725, 4.1832061, 1.66725, -3.6259542
0.1969412, -0.0142672, 1.674, 0.0020752, 1.674, -1.0083618, 1.674, -0.1224365, 1.674, -0.0763359, 1.674, 4.0916033, 1.674, -3.5114503
0.1977353, -0.0129244, 1.68075, -0.005127, 1.68075, -1.0060425, 1.68075, -0.1235352, 1.68075, -0.1145038, 1.68075, 4.3435116, 1.68075, -3.6870229
0.1985294, -0.0125887, 1.6875, -0.0131226, 1.6875, -1.005188, 1.6875, -0.1286011, 1.6875, -0.0305344, 1.6875, 4.5801525, 1.6875, -3.6793892
0.1993235, -0.0129244, 1.69425, -0.0114746, 1.69425, -1.0045166, 1.69425, -0.1341553, 1.69425, 0.0687023, 1.69425, 3.6946564, 1.69425, -3.8473282
0.2001176, -0.01561, 1.701, -0.0182495, 1.701, -1.003479, 1.701, -0.1311035, 1.701, 0.0152672, 1.701, 2.9312978, 1.701, -3.778626
0.2009118, -0.01561, 1.70775, -0.0162964, 1.70775, -1.0063477, 1.70775, -0.135376, 1.70775, -0.0916031, 1.70775, 2.2290077, 1.70775, -3.8473282
0.2017059, -0.0152743, 1.7145, -0.019043, 1.7145, -1.0078735, 1.7145, -0.1404419, 1.7145, -0.1603053, 1.7145, 2.2900763, 1.7145, -4.1374044
0.2025, -0.0130922, 1.72125, -0.0172119, 1.72125, -1.0098877, 1.72125, -0.1376343, 1.72125, -0.2900763, 1.72125, 1.7557251, 1.72125, -4.1526718
0.2032941, -0.0135958, 1.728, -0.0146484, 1.728, -1.0101318, 1.728, -0.1288452, 1.728, -0.1068702, 1.728, 1.6259542, 1.728, -4.1526718
0.2040882, -0.0146029, 1.73475, -0.013855, 1.73475, -1.0120239, 1.73475, -0.1290283, 1.73475, 0.0152672, 1.73475, 1.1068702, 1.73475, -4.1145039
0.2048824, -0.0157778, 1.7415, -0.0167236, 1.7415, -1.0062866, 1.7415, -0.1286621, 1.7415, 0.0763359, 1.7415, 1.0763359, 1.7415, -4.1984735
0.2056765, -0.0152743, 1.74825, -0.0219727, 1.74825, -1.0082397, 1.74825, -0.1277466, 1.74825, 0.3740458, 1.74825, 0.7022901, 1.74825, -4.2442746
0.2064706, -0.0166171, 1.755, -0.0202637, 1.755, -1.0081177, 1.755, -0.1304932, 1.755, 0.3664122, 1.755, 0.4274809, 1.755, -4.3664122
0.2072647, -0.0208133, 1.76175, -0.0148315, 1.76175, -1.0096436, 1.76175, -0.1348877, 1.76175, 0.6335878, 1.76175, 0.4503817, 1.76175, -4.5648856
0.2080588, -0.023331, 1.7685, -0.0092163, 1.7685, -1.0062256, 1.7685, -0.133667, 1.7685, 0.389313, 1.7685, 0.1984733, 1.7685, -4.5496182
0.2088529, -0.0203098, 1.77525, -0.0090942, 1.77525, -1.0056763, 1.77525, -0.1292114, 1.77525, 0.0534351, 1.77525, 0, 1.77525, -4.4580154
0.2096471, -0.0182956, 1.782, -0.0062866, 1.782, -1.0073853, 1.782, -0.1339722, 1.782, 0.7328244, 1.782, -0.5572519, 1.782, -4.3893127
0.2104412, -0.0152743, 1.78875, -0.006897, 1.78875, -1.0093384, 1.78875, -0.1347656, 1.78875, 0.7328244, 1.78875, -0.7633588, 1.78875, -4.6259542
0.2112353, -0.0149386, 1.7955, -0.0018311, 1.7955, -1.0112305, 1.7955, -0.1318359, 1.7955, 0.5954198, 1.7955, -0.6564885, 1.7955, -4.6259542
0.2120294, -0.0135958, 1.80225, 0.0006714, 1.80225, -1.0089111, 1.80225, -0.12854, 1.80225, 0.6641222, 1.80225, -0.6641222, 1.80225, -4.7480917
0.2128235, -0.011078, 1.809, -0.0007935, 1.809, -1.0065308, 1.809, -0.1303101, 1.809, 1.1068702, 1.809, -0.7099237, 1.809, -4.6717558
0.2136176, -0.008896, 1.81575, -0.0004272, 1.81575, -1.0007935, 1.81575, -0.1347656, 1.81575, 1.0534351, 1.81575, -0.3129771, 1.81575, -4.5114503
0.2144118, -0.0082246, 1.8225, 0.0043945, 1.8225, -1.0091553, 1.8225, -0.1273804, 1.8225, 1.1908396, 1.8225, 0.2977099, 1.8225, -4.6870227
0.2152059, -0.0082246, 1.82925, 0.0043945, 1.82925, -1.012085, 1.82925, -0.1218262, 1.82925, 1.1679389, 1.82925, 0.5648855, 1.82925, -4.6106873
0.216, -0.0043641, 1.836, 0.0028687, 1.836, -1.0119629, 1.836, -0.1185913, 1.836, 1.351145, 1.836, 0.8778626, 1.836, -4.5648856
0.2167941, -0.0045319, 1.84275, -0.0012207, 1.84275, -1.0079956, 1.84275, -0.1231689, 1.84275, 1.7633588, 1.84275, 0.7480916, 1.84275, -4.3511453
0.2175882, -0.0035248, 1.8495, -0.0028076, 1.8495, -1.0060425, 1.8495, -0.1246948, 1.8495, 1.7557251, 1.8495, 0.4274809, 1.8495, -4.1068702
0.2183824, -0.0031891, 1.85625, 0.0014038, 1.85625, -1.0048828, 1.85625, -0.1280518, 1.85625, 1.648855, 1.85625, 0.5877863, 1.85625, -4.1374044
0.2191765, -0.0035248, 1.863, -0.0003052, 1.863, -1.0089111, 1.863, -0.1262817, 1.863, 1.6259542, 1.863, 0.8091603, 1.863, -4.4198475
0.2199706, -0.0041962, 1.86975, -0.0014038, 1.86975, -1.0050049, 1.86975, -0.1255493, 1.86975, 1.3206106, 1.86975, 0.5877863, 1.86975, -4.4045801
0.2207647, -0.0099031, 1.8765, -0.010498, 1.8765, -1.0048218, 1.8765, -0.1260986, 1.8765, 1.4732825, 1.8765, 0.0916031, 1.8765, -4.3969464
0.2215588, -0.0115816, 1.88325, -0.0120239, 1.88325, -1.0082397, 1.88325, -0.1192017, 1.88325, 1.4656489, 1.88325, -0.1908397, 1.88325, -4.3282442
0.2223529, -0.008896, 1.89, -0.0050659, 1.89, -1.013855, 1.89, -0.1217651, 1.89, 1.2900764, 1.89, -0.0839695, 1.89, -4.2824426
0.2231471, -0.008896, 1.89675, 0.0050049, 1.89675, -1.0114136, 1.89675, -0.1181641, 1.89675, 1.0305344, 1.89675, 0.3053435, 1.89675, -4.4198475
0.2239412, -0.008896, 1.9035, 0.005249, 1.9035, -1.0055542, 1.9035, -0.116272, 1.9035, 1.221374, 1.9035, 0.3740458, 1.9035, -4.3664122
0.2247353, -0.0078889, 1.91025, 0.0004272, 1.91025, -1.0042114, 1.91025, -0.1184692, 1.91025, 0.9694657, 1.91025, 0.389313, 1.91025, -3.9847329
0.2255294, -0.0119173, 1.917, -0.0011597, 1.917, -1.0062866, 1.917, -0.1221924, 1.917, 1.0458015, 1.917, 0.4503817, 1.917, -4.1068702
0.2263235, -0.01561, 1.92375, 0.0025635, 1.92375, -1.0089722, 1.92375, -0.1223145, 1.92375, 1.1221374, 1.92375, 0.2824427, 1.92375, -4.0458016
0.2271176, -0.0169528, 1.9305, 0.0040283, 1.9305, -1.0097656, 1.9305, -0.1216431, 1.9305, 1.0687023, 1.9305, 0.5343512, 1.9305, -4.0763359
0.2279118, -0.0149386, 1.93725, 0.0032349, 1.93725, -1.0053711, 1.93725, -0.119812, 1.93725, 1.1374046, 1.93725, 0.8015267, 1.93725, -4.1374044
0.2287059, -0.0186313, 1.944, 0.0020752, 1.944, -1.0064697, 1.944, -0.1213379, 1.944, 1.2824427, 1.944, 0.4732825, 1.944, -4.0916033
0.2295, -0.0196384, 1.95075, 0.0004883, 1.95075, -1.0020752, 1.95075, -0.1213379, 1.95075, 1.2824427, 1.95075, 0.3816794, 1.95075, -3.9389312
0.2302941, -0.0213169, 1.9575, -0.0044556, 1.9575, -0.9986572, 1.9575, -0.1244507, 1.9575, 1.1832061, 1.9575, 0.7557252, 1.9575, -3.9847329
0.2310882, -0.023331, 1.96425, 0.0007935, 1.96425, -1.0029907, 1.96425, -0.1229248, 1.96425, 1.1984733, 1.96425, 1.1755725, 1.96425, -4.0763359
0.2318824, -0.0253452, 1.971, 0.0018921, 1.971, -1.0072021, 1.971, -0.1235352, 1.971, 0.9160305, 1.971, 1.2748091, 1.971, -3.9847329
0.2326765, -0.0253452, 1.97775, 0.0002441, 1.97775, -1.0076294, 1.97775, -0.1178589, 1.97775, 1.0687023, 1.97775, 1.221374, 1.97775, -3.8854961
0.2334706, -0.0229953, 1.9845, -0.0097046, 1.9845, -1.0012207, 1.9845, -0.1174927, 1.9845, 1.038168, 1.9845, 1.2442749, 1.9845, -3.648855
0.2342647, -0.0216526, 1.99125, -0.0092773, 1.99125, -1.0061646, 1.99125, -0.1241455, 1.99125, 1.2671756, 1.99125, 0.9465649, 1.99125, -3.778626
0.2350588, -0.0229953, 1.998, -0.0124512, 1.998, -1.008728, 1.998, -0.1221313, 1.998, 0.9847328, 1.998, 0.6793893, 1.998, -3.8396947
0.2358529, -0.0206455, 2.00475, -0.0096436, 2.00475, -1.0084839, 2.00475, -0.1165771, 2.00475, 1, 2.00475, 0.8854962, 2.00475, -3.9847329
0.2366471, -0.0206455, 2.0115, -0.0018921, 2.0115, -1.0081787, 2.0115, -0.1185913, 2.0115, 1.1984733, 2.0115, 0.6030535, 2.0115, -4.1908398
0.2374412, -0.0229953, 2.01825, -0.0014038, 2.01825, -1.0083618, 2.01825, -0.1182251, 2.01825, 0.9770992, 2.01825, 0.1755725, 2.01825, -4.0229006
0.2382353, -0.0229953, 2.025, 0.0019531, 2.025, -1.0078735, 2.025, -0.1199951, 2.025, 1.0534351, 2.025, -0.0305344, 2.025, -3.961832
0.2390294, -0.023331, 2.03175, 0.0053101, 2.03175, -1.0084229, 2.03175, -0.1253052, 2.03175, 0.6259542, 2.03175, -0.0229008, 2.03175, -3.9389312
0.2398235, -0.0231632, 2.0385, 0.0102539, 2.0385, -1.0077515, 2.0385, -0.1264038, 2.0385, 0.3740458, 2.0385, 0.3816794, 2.0385, -3.9847329
0.2406176, -0.0203098, 2.04525, 0.0157471, 2.04525, -1.0115356, 2.04525, -0.1260986, 2.04525, 0.2137405, 2.04525, 1.3435115, 2.04525, -4.0839696
0.2414118, -0.017792, 2.052, 0.0131226, 2.052, -1.0062866, 2.052, -0.1240845, 2.052, 0.1221374, 2.052, 1.610687, 2.052, -3.9694657
0.2422059, -0.0179599, 2.05875, 0.0076904, 2.05875, -1.0037231, 2.05875, -0.1229248, 2.05875, 0.0305344, 2.05875, 1.6793894, 2.05875, -3.7862597
0.243, -0.0149386, 2.0655, 0.0012207, 2.0655, -1.0078735, 2.0655, -0.1210327, 2.0655, -0.0687023, 2.0655, 1.7175573, 2.0655, -3.8015268
0.2437941, -0.0137636, 2.07225, -0.0019531, 2.07225, -1.0117798, 2.07225, -0.1196899, 2.07225, 0.1908397, 2.07225, 1.5801526, 2.07225, -3.6946564
0.2445882, -0.0132601, 2.079, 0.0025635, 2.079, -1.0089722, 2.079, -0.1192627, 2.079, 0.3587786, 2.079, 1.5114504, 2.079, -3.8015268
0.2453824, -0.0114137, 2.08575, 0.0037231, 2.08575, -1.0054932, 2.08575, -0.1203003, 2.08575, 0.5572519, 2.08575, 1.610687, 2.08575, -3.648855
0.2461765, -0.0104067, 2.0925, 0.0014038, 2.0925, -1.0023193, 2.0925, -0.1195679, 2.0925, 0.3129771, 2.0925, 1.5725191, 2.0925, -3.6412213
0.2469706, -0.0072175, 2.09925, 0.0019531, 2.09925, -1.0029907, 2.09925, -0.1218262, 2.09925, 0.5877863, 2.09925, 1.3435115, 2.09925, -3.6870229
0.2477647, -0.0078889, 2.106, -0.0032349, 2.106, -1.0082397, 2.106, -0.1240234, 2.106, 0.8091603, 2.106, 1.3129771, 2.106, -3.6641221
0.2485588, -0.0070497, 2.11275, -0.0039062, 2.11275, -1.0039673, 2.11275, -0.1229858, 2.11275, 0.908397, 2.11275, 1.129771, 2.11275, -3.7022901
0.2493529, -0.0085603, 2.1195, -0.0019531, 2.1195, -1.0079346, 2.1195, -0.12854, 2.1195, 0.961832, 2.1195, 0.8778626, 2.1195, -3.7099237
0.2501471, -0.0082246, 2.12625, -0.0056152, 2.12625, -1.0059814, 2.12625, -0.1259766, 2.12625, 0.778626, 2.12625, 0.8244275, 2.12625, -3.6717558
0.2509412, -0.010071, 2.133, 0.0004272, 2.133, -1.0058594, 2.133, -0.1251221, 2.133, 0.9312977, 2.133, 0.6946565, 2.133, -3.5725191
0.2517353, -0.0130922, 2.13975, 0.0014648, 2.13975, -1.0078125, 2.13975, -0.1246338, 2.13975, 1.0839695, 2.13975, 0.778626, 2.13975, -3.8320611
0.2525294, -0.0142672, 2.1465, -0.0057373, 2.1465, -1.0062256, 2.1465, -0.1258545, 2.1465, 1.038168, 2.1465, 0.9694657, 2.1465, -3.908397
0.2533235, -0.0152743, 2.15325, -0.0089111, 2.15325, -1.0067139, 2.15325, -0.1242065, 2.15325, 0.8473282, 2.15325, 1.0534351, 2.15325, -3.8854961
0.2541176, -0.0206455, 2.16, -0.0126343, 2.16, -1.008667, 2.16, -0.1243896, 2.16, 0.9541985, 2.16, 0.6717557, 2.16, -3.6412213
0.2549118, -0.0251774, 2.16675, -0.008667, 2.16675, -1.0112915, 2.16675, -0.1260986, 2.16675, 1.038168, 2.16675, -0.0229008, 2.16675, -3.9694657
0.2557059, -0.0206455, 2.1735, -0.0050049, 2.1735, -1.0071411, 2.1735, -0.1265869, 2.1735, 1.2061069, 2.1735, 0, 2.1735, -4.259542
0.2565, -0.0216526, 2.18025, -0.0039673, 2.18025, -1.0106812, 2.18025, -0.1231079, 2.18025, 1.3282443, 2.18025, -0.1145038, 2.18025, -4
0.2572941, -0.021149, 2.187, -0.0047607, 2.187, -1.0108643, 2.187, -0.1288452, 2.187, 1.4961832, 2.187, -0.4198473, 2.187, -3.8091602
0.2580882, -0.0216526, 2.19375, -0.0014648, 2.19375, -1.0083618, 2.19375, -0.1339722, 2.19375, 1.389313, 2.19375, -1.0839695, 2.19375, -3.8396947
0.2588824, -0.0203098, 2.2005, 0.0031128, 2.2005, -1.0107422, 2.2005, -0.1328125, 2.2005, 1.0992366, 2.2005, -0.9465649, 2.2005, -3.7328243
0.2596765, -0.0203098, 2.20725, 0.0067139, 2.20725, -1.0070801, 2.20725, -0.131958, 2.20725, 1.2671756, 2.20725, -0.610687, 2.20725, -3.8320611
0.2604706, -0.0182956, 2.214, 0.0033569, 2.214, -1.0057983, 2.214, -0.1322632, 2.214, 1.0534351, 2.214, -0.5343512, 2.214, -3.9007633
0.2612647, -0.0159457, 2.22075, 0.0065308, 2.22075, -1.010376, 2.22075, -0.1233521, 2.22075, 1.1908396, 2.22075, -0.5038168, 2.22075, -3.9312978
0.2620588, -0.0135958, 2.2275, 0.0073853, 2.2275, -1.0102539, 2.2275, -0.1235352, 2.2275, 1.259542, 2.2275, -0.3664122, 2.2275, -3.6030533
0.2628529, -0.0107424, 2.23425, 0.0073853, 2.23425, -1.0081787, 2.23425, -0.1230469, 2.23425, 1.4198474, 2.23425, -0.1603053, 2.23425, -3.7251909
0.2636471, -0.0137636, 2.241, 0.0100708, 2.241, -1.0088501, 2.241, -0.1201172, 2.241, 1.5267175, 2.241, 0.1679389, 2.241, -3.6335878
0.2644412, -0.0115816, 2.24775, 0.0070801, 2.24775, -1.0092163, 2.24775, -0.1201172, 2.24775, 1.5343511, 2.24775, 0.2366412, 2.24775, -3.5648854
0.2652353, -0.012253, 2.2545, 0.0012817, 2.2545, -1.0073242, 2.2545, -0.1234741, 2.2545, 1.8396946, 2.2545, 0.2061069, 2.2545, -3.648855
0.2660294, -0.0142672, 2.26125, -0.0028076, 2.26125, -1.0061646, 2.26125, -0.1218872, 2.26125, 1.6793894, 2.26125, 0.1068702, 2.26125, -3.4274809
0.2668235, -0.0095674, 2.268, -0.0012817, 2.268, -1.0036011, 2.268, -0.1235352, 2.268, 1.7251909, 2.268, 0.2290076, 2.268, -3.4961832
0.2676176, -0.0068818, 2.27475, 0.0001221, 2.27475, -1.0056152, 2.27475, -0.12323, 2.27475, 1.4198474, 2.27475, -0.1145038, 2.27475, -3.648855
0.2684118, -0.0072175, 2.2815, 0.0026245, 2.2815, -1.0028076, 2.2815, -0.1199341, 2.2815, 1.4656489, 2.2815, -0.351145, 2.2815, -3.5267177
0.2692059, -0.0062104, 2.28825, 0.0038452, 2.28825, -1.0059204, 2.28825, -0.1209717, 2.28825, 1.6641221, 2.28825, -0.2748092, 2.28825, -3.5801528
0.27, -0.0099031, 2.295, 0.007019, 2.295, -1.0062256, 2.295, -0.1194458, 2.295, 1.7557251, 2.295, -0.3358779, 2.295, -3.5877862
0.2707941, -0.010071, 2.30175, 0.0089111, 2.30175, -1.0067139, 2.30175, -0.1190186, 2.30175, 1.7557251, 2.30175, -0.5877863, 2.30175, -3.4885497
0.2715882, -0.0075532, 2.3085, 0.0140381, 2.3085, -1.0063477, 2.3085, -0.1234741, 2.3085, 1.7862595, 2.3085, -0.1068702, 2.3085, -3.5114503
0.2723824, -0.0112459, 2.31525, 0.0132446, 2.31525, -1.0032959, 2.31525, -0.1255493, 2.31525, 1.740458, 2.31525, 0.5343512, 2.31525, -3.4656489
0.2731765, -0.0132601, 2.322, 0.0084229, 2.322, -1.0049438, 2.322, -0.1265869, 2.322, 1.7099236, 2.322, 0.6717557, 2.322, -3.4122138
0.2739706, -0.0125887, 2.32875, 0.0039062, 2.32875, -1.0081787, 2.32875, -0.1329956, 2.32875, 1.648855, 2.32875, 0.9160305, 2.32875, -3.4122138
0.2747647, -0.0115816, 2.3355, 0.0009155, 2.3355, -1.0058594, 2.3355, -0.1328125, 2.3355, 1.5572519, 2.3355, 0.961832, 2.3355, -3.4274809
0.2755588, -0.01561, 2.34225, -0.0061035, 2.34225, -1.013855, 2.34225, -0.1256104, 2.34225, 1.7557251, 2.34225, 1.0610687, 2.34225, -3.5419848
0.2763529, -0.0182956, 2.349, -0.0074463, 2.349, -1.0118408, 2.349, -0.1260986, 2.349, 1.740458, 2.349, 0.5954198, 2.349, -3.6259542
0.2771471, -0.0196384, 2.35575, -0.0074463, 2.35575, -1.0098267, 2.35575, -0.1283569, 2.35575, 1.8244275, 2.35575, -0.0381679, 2.35575, -3.4427481
0.2779412, -0.0223239, 2.3625, -0.0099487, 2.3625, -1.0116577, 2.3625, -0.1300659, 2.3625, 1.7328244, 2.3625, -0.5267175, 2.3625, -3.5877862
0.2787353, -0.0206455, 2.36925, -0.008728, 2.36925, -1.012207, 2.36925, -0.1282349, 2.36925, 2.0229008, 2.36925, -0.5572519, 2.36925, -3.7022901
0.2795294, -0.0193027, 2.376, -0.0026245, 2.376, -1.0092773, 2.376, -0.1229248, 2.376, 1.9770992, 2.376, -0.6946565, 2.376, -3.7709923
0.2803235, -0.0209812, 2.38275, 0.0040283, 2.38275, -1.0087891, 2.38275, -0.1254883, 2.38275, 1.9923664, 2.38275, -0.6564885, 2.38275, -3.778626
0.2811176, -0.0203098, 2.3895, 0.0078735, 2.3895, -1.0058594, 2.3895, -0.1282349, 2.3895, 2.0534351, 2.3895, -0.610687, 2.3895, -3.8167939
0.2819118, -0.0162814, 2.39625, 0.0084229, 2.39625, -1.0039062, 2.39625, -0.1253662, 2.39625, 1.8778626, 2.39625, -0.5572519, 2.39625, -3.6259542
0.2827059, -0.0172885, 2.403, 0.008667, 2.403, -1.0068359, 2.403, -0.128479, 2.403, 2.0534351, 2.403, -0.5343512, 2.403, -3.5572519
0.2835, -0.0162814, 2.40975, 0.0084839, 2.40975, -1.007019, 2.40975, -0.1279907, 2.40975, 1.8549619, 2.40975, -0.1450382, 2.40975, -3.4656489
0.2842941, -0.0142672, 2.4165, 0.0081177, 2.4165, -1.0090942, 2.4165, -0.1228027, 2.4165, 1.7099236, 2.4165, 0.2824427, 2.4165, -3.6335878
0.2850882, -0.0119173, 2.42325, 0.0079956, 2.42325, -1.0055542, 2.42325, -0.1223755, 2.42325, 1.7938931, 2.42325, 0.4351145, 2.42325, -3.648855
0.2858824, -0.0114137, 2.43, 0.0046387, 2.43, -1.0067139, 2.43, -0.1237183, 2.43, 1.7328244, 2.43, 0.2824427, 2.43, -3.5343511
0.2866765, -0.0107424, 2.43675, 0.0022583, 2.43675, -1.0075073, 2.43675, -0.1260986, 2.43675, 1.6641221, 2.43675, 0.3129771, 2.43675, -3.4427481
0.2874706, -0.012253, 2.4435, -0.0015259, 2.4435, -1.0065308, 2.4435, -0.1244507, 2.4435, 1.3816794, 2.4435, 0.6870229, 2.4435, -3.7175572
0.2882647, -0.0142672, 2.45025, -0.0003052, 2.45025, -1.0082397, 2.45025, -0.1187744, 2.45025, 1.3740458, 2.45025, 0.9541985, 2.45025, -3.4503818
0.2890588, -0.0115816, 2.457, -0.0005493, 2.457, -1.010376, 2.457, -0.1149902, 2.457, 1.3282443, 2.457, 0.8854962, 2.457, -3.5954199
0.2898529, -0.012253, 2.46375, -0.0013428, 2.46375, -1.0053101, 2.46375, -0.1190186, 2.46375, 1.4885496, 2.46375, 0.6412213, 2.46375, -3.5725191
0.2906471, -0.0099031, 2.4705, -0.0015869, 2.4705, -1.0046997, 2.4705, -0.1192627, 2.4705, 1.7099236, 2.4705, 0.4351145, 2.4705, -3.7709923
0.2914412, -0.0102388, 2.47725, -0.0024414, 2.47725, -1.003418, 2.47725, -0.1226196, 2.47725, 1.5877863, 2.47725, 0.3740458, 2.47725, -3.5572519
0.2922353, -0.0077211, 2.484, -0.0001221, 2.484, -1.0088501, 2.484, -0.1213379, 2.484, 1.351145, 2.484, 0.1068702, 2.484, -3.648855
0.2930294, -0.012253, 2.49075, 0.0018921, 2.49075, -1.0092773, 2.49075, -0.1195679, 2.49075, 1.2977099, 2.49075, 0.2137405, 2.49075, -3.4656489
0.2938235, -0.0119173, 2.4975, 0.0050659, 2.4975, -1.0053101, 2.4975, -0.1156616, 2.4975, 1.4580153, 2.4975, 0.0763359, 2.4975, -3.4045801
0.2946176, -0.0115816, 2.50425, 0.0082397, 2.50425, -1.0067749, 2.50425, -0.116394, 2.50425, 1.5648855, 2.50425, -0.1450382, 2.50425, -3.3664122
0.2954118, -0.0132601, 2.511, 0.0089722, 2.511, -1.0061035, 2.511, -0.1179199, 2.511, 1.3816794, 2.511, 0.2977099, 2.511, -3.2748091
0.2962059, -0.0125887, 2.51775, 0.0134277, 2.51775, -1.0081177, 2.51775, -0.1173706, 2.51775, 1.351145, 2.51775, 0.6946565, 2.51775, -3.091603
0.297, -0.0132601, 2.5245, 0.0147095, 2.5245, -1.0087891, 2.5245, -0.1159058, 2.5245, 1.3969465, 2.5245, 1.0534351, 2.5245, -2.9694657
0.2977941, -0.0151064, 2.53125, 0.0102539, 2.53125, -1.0040894, 2.53125, -0.1153564, 2.53125, 1.5267175, 2.53125, 1.0839695, 2.53125, -3.0992367
0.2985882, -0.017792, 2.538, 0.0061035, 2.538, -1.0064087, 2.538, -0.1185303, 2.538, 1.4198474, 2.538, 0.9541985, 2.538, -3.0839694
0.2993824, -0.0166171, 2.54475, 0.0057983, 2.54475, -1.0073242, 2.54475, -0.1233521, 2.54475, 1.3053435, 2.54475, 1.0763359, 2.54475, -3.1068702
0.3001765, -0.0172885, 2.5515, 0.0050049, 2.5515, -1.0088501, 2.5515, -0.1204224, 2.5515, 1.1603054, 2.5515, 1.1679389, 2.5515, -3.0763359
0.3009706, -0.0182956, 2.55825, 0.0014038, 2.55825, -1.0075684, 2.55825, -0.1194458, 2.55825, 1.0534351, 2.55825, 0.7175573, 2.55825, -3.3435113
0.3017647, -0.01561, 2.565, 0.0024414, 2.565, -1.0078125, 2.565, -0.119751, 2.565, 0.7251908, 2.565, 0.5496183, 2.565, -3.0458016
0.3025588, -0.012253, 2.57175, 0.0015259, 2.57175, -1.0076904, 2.57175, -0.1201172, 2.57175, 0.4503817, 2.57175, 0.3435115, 2.57175, -3.1908398
0.3033529, -0.0162814, 2.5785, 0.0018921, 2.5785, -1.0058594, 2.5785, -0.1186523, 2.5785, 0.4427481, 2.5785, 0.3664122, 2.5785, -3.0687022
0.3041471, -0.0142672, 2.58525, 0.0067139, 2.58525, -1.0076904, 2.58525, -0.1243896, 2.58525, 0.3435115, 2.58525, 0.4198473, 2.58525, -2.908397
0.3049412, -0.0125887, 2.592, 0.0107422, 2.592, -1.0077515, 2.592, -0.1193848, 2.592, 0.1755725, 2.592, 0.610687, 2.592, -2.8320611
0.3057353, -0.0105745, 2.59875, 0.008606, 2.59875, -1.0044556, 2.59875, -0.1192627, 2.59875, 0.1145038, 2.59875, 0.480916, 2.59875, -2.9236641
0.3065294, -0.0105745, 2.6055, 0.0022583, 2.6055, -1.0072632, 2.6055, -0.1199951, 2.6055, 0.2366412, 2.6055, 0.6717557, 2.6055, -2.9465649
0.3073235, -0.0139315, 2.61225, -0.0014648, 2.61225, -1.0048828, 2.61225, -0.1226807, 2.61225, 0.3587786, 2.61225, 0.7099237, 2.61225, -2.9465649
0.3081176, -0.0191348, 2.619, -0.0039062, 2.619, -1.0092163, 2.619, -0.1173096, 2.619, -0.2977099, 2.619, 0.5725191, 2.619, -2.8549619
0.3089118, -0.0196384, 2.62575, -0.0021362, 2.62575, -1.0042725, 2.62575, -0.1201782, 2.62575, -0.2061069, 2.62575, 0.4580153, 2.62575, -2.908397
0.3097059, -0.0159457, 2.6325, 0.0013428, 2.6325, -1.0060425, 2.6325, -0.12146, 2.6325, -0.3816794, 2.6325, 0.4274809, 2.6325, -3.0076337
0.3105, -0.0172885, 2.63925, 0.0026245, 2.63925, -1.0071411, 2.63925, -0.1193237, 2.63925, -0.4427481, 2.63925, 0.2137405, 2.63925, -2.8931298
0.3112941, -0.0152743, 2.646, 0.0045166, 2.646, -1.0073853, 2.646, -0.1199341, 2.646, -0.2519084, 2.646, 0.4656489, 2.646, -2.8396947
0.3120882, -0.0166171, 2.65275, 0.0075684, 2.65275, -1.0084839, 2.65275, -0.119751, 2.65275, 0.1526718, 2.65275, 0.7022901, 2.65275, -2.9160306
0.3128824, -0.0139315, 2.6595, 0.0089111, 2.6595, -1.0059814, 2.6595, -0.1220093, 2.6595, 0.2137405, 2.6595, 0.740458, 2.6595, -2.7251909
0.3136765, -0.0162814, 2.66625, 0.0047607, 2.66625, -1.0077515, 2.66625, -0.1213379, 2.66625, 0.1832061, 2.66625, 0.648855, 2.66625, -2.6717558
0.3144706, -0.018967, 2.673, 0.0026855, 2.673, -1.0064087, 2.673, -0.1252441, 2.673, 0.3358779, 2.673, 0.9312977, 2.673, -2.9465649
0.3152647, -0.0169528, 2.67975, 0.0047607, 2.67975, -1.008606, 2.67975, -0.1290894, 2.67975, 0.2137405, 2.67975, 1.0534351, 2.67975, -2.8854961
0.3160588, -0.0149386, 2.6865, -0.0004883, 2.6865, -1.008728, 2.6865, -0.1220703, 2.6865, 0.3435115, 2.6865, 1.0839695, 2.6865, -2.9770992
0.3168529, -0.01561, 2.69325, -0.0008545, 2.69325, -1.0079956, 2.69325, -0.1203613, 2.69325, 0.3435115, 2.69325, 1.1068702, 2.69325, -3.0229008
0.3176471, -0.0151064, 2.7, -0.0003662, 2.7, -1.0050049, 2.7, -0.1225586, 2.7, 0.5038168, 2.7, 0.8244275, 2.7, -3.1068702
0.3184412, -0.0176242, 2.70675, -0.005249, 2.70675, -1.010437, 2.70675, -0.1231079, 2.70675, 0.5648855, 2.70675, 0.8549618, 2.70675, -2.9007633
0.3192353, -0.0203098, 2.7135, -0.0032959, 2.7135, -1.0095215, 2.7135, -0.1253052, 2.7135, 0.5267175, 2.7135, 0.5801527, 2.7135, -3.0458016
0.3200294, -0.0194705, 2.72025, -0.0020142, 2.72025, -1.0098877, 2.72025, -0.1220093, 2.72025, 0.8244275, 2.72025, 0.5114504, 2.72025, -3.259542
0.3208235, -0.0182956, 2.727, -0.0003052, 2.727, -1.0095215, 2.727, -0.123291, 2.727, 0.8625954, 2.727, 0.3358779, 2.727, -3.1755726
0.3216176, -0.0186313, 2.73375, 0.0029907, 2.73375, -1.006897, 2.73375, -0.1240234, 2.73375, 1.0687023, 2.73375, 0.4198473, 2.73375, -3.221374
0.3224118, -0.018967, 2.7405, 0.0084839, 2.7405, -1.0061646, 2.7405, -0.1271973, 2.7405, 1.038168, 2.7405, 0.3587786, 2.7405, -3.3053436
0.3232059, -0.0229953, 2.74725, 0.0117798, 2.74725, -1.0056152, 2.74725, -0.1323242, 2.74725, 1.1221374, 2.74725, 0.5954198, 2.74725, -3.351145
0.324, -0.023331, 2.754, 0.0120239, 2.754, -1.0040283, 2.754, -0.1323853, 2.754, 1.0534351, 2.754, 0.6030535, 2.754, -3.3435113
0.3247941, -0.0253452, 2.76075, 0.0117798, 2.76075, -1.0038452, 2.76075, -0.1272583, 2.76075, 1.038168, 2.76075, 1.3129771, 2.76075, -3.0839694
0.3255882, -0.0256809, 2.7675, 0.0101929, 2.7675, -1.0067749, 2.7675, -0.125, 2.7675, 1.1145039, 2.7675, 1.5725191, 2.7675, -3.1221373
0.3263824, -0.023331, 2.77425, 0.0064087, 2.77425, -1.007019, 2.77425, -0.1255493, 2.77425, 1.3206106, 2.77425, 2.0152671, 2.77425, -3.0992367
0.3271765, -0.0199741, 2.781, 0.0050659, 2.781, -1.00177, 2.781, -0.1276245, 2.781, 1.3435115, 2.781, 2.1832061, 2.781, -3.1908398
0.3279706, -0.0115816, 2.78775, 0.0026855, 2.78775, -1.0068359, 2.78775, -0.1242065, 2.78775, 1.6183206, 2.78775, 2.3664122, 2.78775, -3.2061069
0.3287647, -0.0151064, 2.7945, -0.0002441, 2.7945, -1.0075073, 2.7945, -0.1212769, 2.7945, 1.5648855, 2.7945, 2.2748091, 2.7945, -2.9465649
0.3295588, -0.0159457, 2.80125, -0.0010376, 2.80125, -1.0079346, 2.80125, -0.1246338, 2.80125, 1.5572519, 2.80125, 2.0610688, 2.80125, -3.0152671
0.3303529, -0.0157778, 2.808, -0.0031128, 2.808, -1.0080566, 2.808, -0.1228027, 2.808, 1.610687, 2.808, 1.9312977, 2.808, -3.2671757
0.3311471, -0.0213169, 2.81475, -0.0050049, 2.81475, -1.0067749, 2.81475, -0.1243286, 2.81475, 1.5877863, 2.81475, 1.5038168, 2.81475, -3.4045801
0.3319412, -0.0186313, 2.8215, -0.0073853, 2.8215, -1.0092163, 2.8215, -0.1203613, 2.8215, 1.7099236, 2.8215, 1.0687023, 2.8215, -3.1374047
0.3327353, -0.0182956, 2.82825, -0.0094604, 2.82825, -1.0072021, 2.82825, -0.1237793, 2.82825, 1.9236641, 2.82825, 0.9007633, 2.82825, -3.2671757
0.3335294, -0.0166171, 2.835, -0.0059814, 2.835, -1.0062256, 2.835, -0.1260986, 2.835, 1.5572519, 2.835, 0.9541985, 2.835, -3.1374047
0.3343235, -0.0151064, 2.84175, 0.0016479, 2.84175, -1.0090332, 2.84175, -0.1270142, 2.84175, 1.4198474, 2.84175, 0.7709923, 2.84175, -3.3206108
0.3351176, -0.012253, 2.8485, 0.0029907, 2.8485, -1.008606, 2.8485, -0.1193237, 2.8485, 1.2290076, 2.8485, 0.4961832, 2.8485, -3.389313
0.3359118, -0.012253, 2.85525, 0.0095825, 2.85525, -1.0059204, 2.85525, -0.1239014, 2.85525, 1.4580153, 2.85525, 0.3282443, 2.85525, -3.2900763
0.3367059, -0.0137636, 2.862, 0.0112305, 2.862, -1.0062866, 2.862, -0.1256104, 2.862, 1.4198474, 2.862, 0.3435115, 2.862, -2.9694657
0.3375, -0.0142672, 2.86875, 0.0135498, 2.86875, -1.0023804, 2.86875, -0.1254272, 2.86875, 1.2137405, 2.86875, 1.1145039, 2.86875, -3.0687022
0.3382941, -0.0193027, 2.8755, 0.0117188, 2.8755, -1.003418, 2.8755, -0.1207275, 2.8755, 0.8625954, 2.8755, 1.6641221, 2.8755, -3
0.3390882, -0.0231632, 2.88225, 0.012207, 2.88225, -1.003479, 2.88225, -0.1195679, 2.88225, 0.9847328, 2.88225, 1.9236641, 2.88225, -2.7175572
0.3398824, -0.0209812, 2.889, 0.0038452, 2.889, -1.0003662, 2.889, -0.1242676, 2.889, 0.7328244, 2.889, 1.5114504, 2.889, -2.6717558
0.3406765, -0.0184634, 2.89575, 0.0021973, 2.89575, -1.0036011, 2.89575, -0.1176147, 2.89575, 0.5954198, 2.89575, 1.6717557, 2.89575, -2.7938931
0.3414706, -0.0186313, 2.9025, -0.0006714, 2.9025, -1.0059204, 2.9025, -0.1160278, 2.9025, 0.5572519, 2.9025, 1.4732825, 2.9025, -2.7251909
0.3422647, -0.0198062, 2.90925, -0.0013428, 2.90925, -1.0078125, 2.90925, -0.1182251, 2.90925, 0.5419847, 2.90925, 1.1145039, 2.90925, -2.8778627
0.3430588, -0.018967, 2.916, -0.0028687, 2.916, -1.0047607, 2.916, -0.117981, 2.916, 0.9694657, 2.916, 0.9312977, 2.916, -2.8549619
0.3438529, -0.0176242, 2.92275, -0.0011597, 2.92275, -1.0032959, 2.92275, -0.1193848, 2.92275, 0.908397, 2.92275, 0.6946565, 2.92275, -2.9312978
0.3446471, -0.0196384, 2.9295, 0.0015259, 2.9295, -1.0043945, 2.9295, -0.1204834, 2.9295, 0.648855, 2.9295, 0.6793893, 2.9295, -2.8473282
0.3454412, -0.017792, 2.93625, 0.0036621, 2.93625, -1.003479, 2.93625, -0.1200562, 2.93625, 0.5572519, 2.93625, 0.648855, 2.93625, -3.091603
0.3462353, -0.0149386, 2.943, 0.0020752, 2.943, -1.0070801, 2.943, -0.1224976, 2.943, 0.4045801, 2.943, 0.9312977, 2.943, -2.8549619
0.3470294, -0.0149386, 2.94975, 0.0022583, 2.94975, -1.0092163, 2.94975, -0.1246338, 2.94975, 0.519084, 2.94975, 1.1679389, 2.94975, -3.0534351
0.3478235, -0.0149386, 2.9565, 0.0006104, 2.9565, -1.0075684, 2.9565, -0.1233521, 2.9565, 0.5038168, 2.9565, 1.1068702, 2.9565, -2.9160306
0.3486176, -0.0149386, 2.96325, -0.0016479, 2.96325, -1.0061035, 2.96325, -0.1247559, 2.96325, 0.5725191, 2.96325, 1.0458015, 2.96325, -3.0763359
0.3494118, -0.0129244, 2.97, -0.0026245, 2.97, -1.0065308, 2.97, -0.1206665, 2.97, 0.5496183, 2.97, 1.0839695, 2.97, -3.1526718
0.3502059, -0.0129244, 2.97675, -0.0029297, 2.97675, -1.0053101, 2.97675, -0.1224365, 2.97675, 0.6030535, 2.97675, 1.0534351, 2.97675, -3.038168
0.351, -0.0132601, 2.9835, 0.0029907, 2.9835, -1.008606, 2.9835, -0.121521, 2.9835, 0.5343512, 2.9835, 1.221374, 2.9835, -3
0.3517941, -0.0166171, 2.99025, 0.0061035, 2.99025, -1.0065308, 2.99025, -0.12146, 2.99025, 0.4885496, 2.99025, 1.5725191, 2.99025, -3.1755726
0.3525882, -0.0193027, 2.997, 0.0047607, 2.997, -1.0065918, 2.997, -0.1170654, 2.997, 0.4732825, 2.997, 1.5648855, 2.997, -3.129771
0.3533824, -0.0172885, 3.00375, 0.0055542, 3.00375, -1.0064087, 3.00375, -0.1158447, 3.00375, 0.5343512, 3.00375, 1.3740458, 3.00375, -3.1832061
0.3541765, -0.0129244, 3.0105, 0.0015259, 3.0105, -1.0048218, 3.0105, -0.1216431, 3.0105, 0.4580153, 3.0105, 1.2824427, 3.0105, -3.0458016
0.3549706, -0.0152743, 3.01725, 0.0018311, 3.01725, -1.0037842, 3.01725, -0.1219482, 3.01725, 0.5419847, 3.01725, 1.2977099, 3.01725, -3.038168
0.3557647, -0.0157778, 3.024, 0.0002441, 3.024, -1.0045166, 3.024, -0.1223145, 3.024, 0.351145, 3.024, 1.4122137, 3.024, -3.0992367
0.3565588, -0.0109102, 3.03075, 0.0018921, 3.03075, -1.0063477, 3.03075, -0.1201782, 3.03075, 0.4961832, 3.03075, 1.5343511, 3.03075, -3.1679389
0.3573529, -0.0129244, 3.0375, 0.0010376, 3.0375, -1.0059204, 3.0375, -0.1188354, 3.0375, 0.4961832, 3.0375, 1.3969465, 3.0375, -3.1221373
0.3581471, -0.0137636, 3.04425, 0.0015259, 3.04425, -1.0044556, 3.04425, -0.1217041, 3.04425, 0.5877863, 3.04425, 0.8854962, 3.04425, -3.2824428
0.3589412, -0.0115816, 3.051, -0.0033569, 3.051, -1.0031738, 3.051, -0.1210938, 3.051, 0.6030535, 3.051, 0.8091603, 3.051, -3.1374047
0.3597353, -0.012253, 3.05775, -0.0002441, 3.05775, -1.0028076, 3.05775, -0.1216431, 3.05775, 0.6030535, 3.05775, 0.9236641, 3.05775, -3.1984732
0.3605294, -0.0149386, 3.0645, 0.0006104, 3.0645, -1.0061646, 3.0645, -0.1245728, 3.0645, 0.3740458, 3.0645, 0.870229, 3.0645, -3.259542
0.3613235, -0.0109102, 3.07125, -0.0018921, 3.07125, -1.0082397, 3.07125, -0.1203613, 3.07125, 0.5419847, 3.07125, 0.9236641, 3.07125, -3.3435113
0.3621176, -0.008896, 3.078, -0.0053711, 3.078, -1.0057373, 3.078, -0.1153564, 3.078, 0.7022901, 3.078, 0.8320611, 3.078, -3.3282442
0.3629118, -0.0097353, 3.08475, -0.0023804, 3.08475, -1.0054932, 3.08475, -0.1174316, 3.08475, 0.7862595, 3.08475, 0.6412213, 3.08475, -3.1068702
0.3637059, -0.0125887, 3.0915, -0.0010376, 3.0915, -1.0072021, 3.0915, -0.1203003, 3.0915, 0.8167939, 3.0915, 0.2748092, 3.0915, -3.2442749
0.3645, -0.0135958, 3.09825, 0.0015259, 3.09825, -1.0089111, 3.09825, -0.1220703, 3.09825, 0.9236641, 3.09825, 0.2748092, 3.09825, -3.259542
0.3652941, -0.0102388, 3.105, 0.0061035, 3.105, -1.008606, 3.105, -0.1228638, 3.105, 1.0305344, 3.105, 0.3664122, 3.105, -3.0992367
0.3660882, -0.0112459, 3.11175, 0.0061035, 3.11175, -1.0077515, 3.11175, -0.1236572, 3.11175, 0.9160305, 3.11175, 0.2900763, 3.11175, -3.2061069
0.3668824, -0.012253, 3.1185, 0.0078735, 3.1185, -1.005249, 3.1185, -0.1253662, 3.1185, 1.0305344, 3.1185, 0.2671756, 3.1185, -3.2137403
0.3676765, -0.0139315, 3.12525, 0.0097656, 3.12525, -1.0018921, 3.12525, -0.1303101, 3.12525, 0.5038168, 3.12525, 0.4274809, 3.12525, -3.1221373
0.3684706, -0.0162814, 3.132, 0.0144043, 3.132, -1.0022583, 3.132, -0.1296387, 3.132, 0.1832061, 3.132, 0.4961832, 3.132, -2.8778627
0.3692647, -0.0135958, 3.13875, 0.0099487, 3.13875, -1.0030518, 3.13875, -0.1271362, 3.13875, 0.0076336, 3.13875, 1, 3.13875, -3.1221373
0.3700588, -0.0139315, 3.1455, 0.0061646, 3.1455, -1.005188, 3.1455, -0.1252441, 3.1455, 0.0152672, 3.1455, 1.1908396, 3.1455, -3.038168
0.3708529, -0.0139315, 3.15225, 0.0003662, 3.15225, -1.0064087, 3.15225, -0.12146, 3.15225, 0.1526718, 3.15225, 1.0687023, 3.15225, -2.9007633
0.3716471, -0.0146029, 3.159, -0.0018311, 3.159, -1.0093994, 3.159, -0.1227417, 3.159, 0.0305344, 3.159, 0.7328244, 3.159, -2.7175572
0.3724412, -0.0125887, 3.16575, 0.0045776, 3.16575, -1.008728, 3.16575, -0.1257935, 3.16575, 0.1450382, 3.16575, 0.5954198, 3.16575, -2.8244274
0.3732353, -0.0125887, 3.1725, 0.0027466, 3.1725, -1.007019, 3.1725, -0.1242065, 3.1725, 0.0839695, 3.1725, 0.5954198, 3.1725, -3.0763359
0.3740294, -0.012253, 3.17925, -0.0007935, 3.17925, -1.0056763, 3.17925, -0.1226196, 3.17925, 0.0763359, 3.17925, 0.519084, 3.17925, -2.961832
0.3748235, -0.0152743, 3.186, -0.0037842, 3.186, -1.0083008, 3.186, -0.1208496, 3.186, 0.129771, 3.186, 0.2442748, 3.186, -3.129771
0.3756176, -0.0157778, 3.19275, -0.0032349, 3.19275, -1.008667, 3.19275, -0.1243896, 3.19275, 0.2900763, 3.19275, 0.1603053, 3.19275, -2.8778627
0.3764118, -0.0149386, 3.1995, -0.0002441, 3.1995, -1.0076294, 3.1995, -0.1275024, 3.1995, 0.221374, 3.1995, -0.0305344, 3.1995, -2.8931298
0.3772059, -0.0166171, 3.20625, 0.0059814, 3.20625, -1.0060425, 3.20625, -0.1300049, 3.20625, 0.1832061, 3.20625, 0, 3.20625, -3.038168
0.378, -0.01561, 3.213, 0.005249, 3.213, -1.0075073, 3.213, -0.1317749, 3.213, 0.1374046, 3.213, 0.3740458, 3.213, -3.2137403
0.3787941, -0.0152743, 3.21975, 0.0002441, 3.21975, -1.0047607, 3.21975, -0.1309814, 3.21975, 0.1526718, 3.21975, 0.3206107, 3.21975, -3.1068702
0.3795882, -0.0159457, 3.2265, -0.0008545, 3.2265, -1.0066528, 3.2265, -0.1304932, 3.2265, 0.3129771, 3.2265, 0.3435115, 3.2265, -3.2290077
0.3803824, -0.0149386, 3.23325, -0.0008545, 3.23325, -1.0057373, 3.23325, -0.1327515, 3.23325, 0.3358779, 3.23325, 0.2290076, 3.23325, -2.961832
0.3811765, -0.012253, 3.24, 0.0020142, 3.24, -1.0059814, 3.24, -0.12677, 3.24, 0.1908397, 3.24, 0.129771, 3.24, -3.1221373
0.3819706, -0.0129244, 3.24675, -0.0007324, 3.24675, -1.0059814, 3.24675, -0.125, 3.24675, 0.3664122, 3.24675, 0.4351145, 3.24675, -3.0534351
0.3827647, -0.01561, 3.2535, -0.0001831, 3.2535, -1.0064087, 3.2535, -0.1255493, 3.2535, 0.3664122, 3.2535, 0.2824427, 3.2535, -3.0152671
0.3835588, -0.0169528, 3.26025, 0.0013428, 3.26025, -1.0085449, 3.26025, -0.1264038, 3.26025, 0.4351145, 3.26025, 0.0687023, 3.26025, -2.9847329
0.3843529, -0.0171206, 3.267, -0.0001221, 3.267, -1.0079346, 3.267, -0.1242676, 3.267, 0.480916, 3.267, -0.2900763, 3.267, -2.8778627
0.3851471, -0.012253, 3.27375, 0.0053711, 3.27375, -1.0063477, 3.27375, -0.1256714, 3.27375, 0.7633588, 3.27375, -0.0687023, 3.27375, -2.9007633
0.3859412, -0.0132601, 3.2805, 0.0053711, 3.2805, -1.0064697, 3.2805, -0.1282959, 3.2805, 0.5419847, 3.2805, -0.0152672, 3.2805, -2.7938931
0.3867353, -0.0152743, 3.28725, 0.0062866, 3.28725, -1.0024414, 3.28725, -0.1275024, 3.28725, 0.4045801, 3.28725, 0.2824427, 3.28725, -2.7328243
0.3875294, -0.0157778, 3.294, 0.0091553, 3.294, -1.0068359, 3.294, -0.1293945, 3.294, 0.7633588, 3.294, 0.3969466, 3.294, -2.6564887
0.3883235, -0.0169528, 3.30075, 0.0132446, 3.30075, -1.006897, 3.30075, -0.1337891, 3.30075, 0.6412213, 3.30075, 0.4961832, 3.30075, -2.5801528
0.3891176, -0.0162814, 3.3075, 0.0115967, 3.3075, -1.0094604, 3.3075, -0.1314697, 3.3075, 0.4732825, 3.3075, 0.3206107, 3.3075, -2.4885497
0.3899118, -0.0166171, 3.31425, 0.0064697, 3.31425, -1.0088501, 3.31425, -0.1289062, 3.31425, 0.2366412, 3.31425, 0.8549618, 3.31425, -2.6183207
0.3907059, -0.0194705, 3.321, 0.0044556, 3.321, -1.0040894, 3.321, -0.1339111, 3.321, 0.259542, 3.321, 1.091603, 3.321, -2.5954199
0.3915, -0.0196384, 3.32775, 0.0024414, 3.32775, -1.0092773, 3.32775, -0.1278687, 3.32775, 0.0992366, 3.32775, 0.9770992, 3.32775, -2.6946564
0.3922941, -0.0209812, 3.3345, 0.0027466, 3.3345, -1.0101318, 3.3345, -0.1297607, 3.3345, 0.1603053, 3.3345, 0.9160305, 3.3345, -2.5877862
0.3930882, -0.0198062, 3.34125, 0.0011597, 3.34125, -1.0095825, 3.34125, -0.1216431, 3.34125, 0.1984733, 3.34125, 0.8854962, 3.34125, -2.7862597
0.3938824, -0.0203098, 3.348, -0.0023193, 3.348, -1.008606, 3.348, -0.1213989, 3.348, 0.3740458, 3.348, 0.5343512, 3.348, -2.5877862
0.3946765, -0.0224918, 3.35475, -0.0031738, 3.35475, -1.006958, 3.35475, -0.1254272, 3.35475, 0.3206107, 3.35475, 0.4351145, 3.35475, -2.7251909
0.3954706, -0.0223239, 3.3615, -0.0008545, 3.3615, -1.0088501, 3.3615, -0.1286011, 3.3615, 0.3740458, 3.3615, 0.2137405, 3.3615, -2.7022901
0.3962647, -0.0216526, 3.36825, -0.0010986, 3.36825, -1.007019, 3.36825, -0.1312866, 3.36825, 0.0076336, 3.36825, 0.1679389, 3.36825, -2.4885497
0.3970588, -0.0208133, 3.375, -0.0014038, 3.375, -1.0056763, 3.375, -0.1248169, 3.375, 0.0763359, 3.375, 0.2824427, 3.375, -2.6183207
0.3978529, -0.0196384, 3.38175, -0.0016479, 3.38175, -1.0036621, 3.38175, -0.1309204, 3.38175, 0.2442748, 3.38175, 0.3358779, 3.38175, -2.6641221
0.3986471, -0.0172885, 3.3885, -0.0018921, 3.3885, -1.003418, 3.3885, -0.1303711, 3.3885, 0.1984733, 3.3885, 0.4351145, 3.3885, -2.6335878
0.3994412, -0.0164492, 3.39525, -0.0009155, 3.39525, -1.0071411, 3.39525, -0.1306763, 3.39525, 0.1908397, 3.39525, 0.4961832, 3.39525, -2.870229
0.4002353, -0.012253, 3.402, 0.0023193, 3.402, -1.0084229, 3.402, -0.128479, 3.402, 0.2900763, 3.402, 0.480916, 3.402, -2.6946564
0.4010294, -0.0095674, 3.40875, -0.0007324, 3.40875, -1.0108032, 3.40875, -0.1318359, 3.40875, 0.2671756, 3.40875, 0.610687, 3.40875, -2.8244274
0.4018235, -0.0117494, 3.4155, 0.0015259, 3.4155, -1.012085, 3.4155, -0.1338501, 3.4155, 0.3587786, 3.4155, 0.6641222, 3.4155, -2.8396947
0.4026176, -0.0149386, 3.42225, 0.0036011, 3.42225, -1.010437, 3.42225, -0.1339111, 3.42225, 0.3129771, 3.42225, 0.7938932, 3.42225, -2.9007633
0.4034118, -0.0130922, 3.429, 0.005127, 3.429, -1.008728, 3.429, -0.1333008, 3.429, 0.221374, 3.429, 1.0076336, 3.429, -2.9007633
0.4042059, -0.011078, 3.43575, 0.0029907, 3.43575, -1.008728, 3.43575, -0.1325073, 3.43575, 0.1603053, 3.43575, 0.9389313, 3.43575, -2.8167939
0.405, -0.0104067, 3.4425, -0.0003052, 3.4425, -1.0128174, 3.4425, -0.1225586, 3.4425, 0.3358779, 3.4425, 1.221374, 3.4425, -2.8778627
0.4057941, -0.0115816, 3.44925, 0.0030518, 3.44925, -1.0113525, 3.44925, -0.1231079, 3.44925, 0.480916, 3.44925, 1.3435115, 3.44925, -2.8015268
0.4065882, -0.012253, 3.456, 0.0004883, 3.456, -1.0073242, 3.456, -0.1271973, 3.456, 0.3664122, 3.456, 1.5419847, 3.456, -2.7480917
0.4073824, -0.0115816, 3.46275, 0.0043335, 3.46275, -1.0073853, 3.46275, -0.1271973, 3.46275, 0.3206107, 3.46275, 1.5954199, 3.46275, -2.8167939
0.4081765, -0.0082246, 3.4695, -0.0002441, 3.4695, -1.0061035, 3.4695, -0.128479, 3.4695, 0.2671756, 3.4695, 1.4656489, 3.4695, -2.7938931
0.4089706, -0.0109102, 3.47625, -0.0033569, 3.47625, -1.0058594, 3.47625, -0.1245728, 3.47625, 0.3587786, 3.47625, 1.2900764, 3.47625, -2.6870229
0.4097647, -0.0129244, 3.483, -0.005127, 3.483, -1.0037231, 3.483, -0.1286011, 3.483, 0.0763359, 3.483, 0.9465649, 3.483, -2.5725191
0.4105588, -0.0082246, 3.48975, -0.0026855, 3.48975, -1.005249, 3.48975, -0.130249, 3.48975, 0, 3.48975, 0.7175573, 3.48975, -2.6030533
0.4113529, -0.0105745, 3.4965, 6.1E-05, 3.4965, -1.0028687, 3.4965, -0.1314087, 3.4965, 0.0229008, 3.4965, 0.870229, 3.4965, -2.8167939
0.4121471, -0.0157778, 3.50325, -0.0003052, 3.50325, -1.0013428, 3.50325, -0.1300049, 3.50325, 0, 3.50325, 0.9770992, 3.50325, -2.740458
0.4129412, -0.0176242, 3.51, -0.0026245, 3.51, -1.0044556, 3.51, -0.1287842, 3.51, 0.1145038, 3.51, 0.8320611, 3.51, -2.870229
0.4137353, -0.0152743, 3.51675, -0.0038452, 3.51675, -1.00354, 3.51675, -0.1298218, 3.51675, 0.1068702, 3.51675, 0.5725191, 3.51675, -2.740458
0.4145294, -0.0152743, 3.5235, -0.0061646, 3.5235, -1.0028687, 3.5235, -0.1303101, 3.5235, 0.1679389, 3.5235, 0.778626, 3.5235, -2.6412213
0.4153235, -0.01561, 3.53025, -0.0028687, 3.53025, -1.0061646, 3.53025, -0.1309204, 3.53025, 0.129771, 3.53025, 0.8778626, 3.53025, -2.5572519
0.4161176, -0.0167849, 3.537, -0.0006714, 3.537, -1.0040283, 3.537, -0.1303711, 3.537, 0.2061069, 3.537, 0.778626, 3.537, -2.6183207
0.4169118, -0.0179599, 3.54375, -0.0036621, 3.54375, -1.0053711, 3.54375, -0.130127, 3.54375, 0.3435115, 3.54375, 0.4885496, 3.54375, -2.6641221
0.4177059, -0.0203098, 3.5505, -0.0016479, 3.5505, -1.0094604, 3.5505, -0.1306763, 3.5505, 0.2366412, 3.5505, 0.4961832, 3.5505, -2.6183207
0.4185, -0.0196384, 3.55725, 0.0001831, 3.55725, -1.0078125, 3.55725, -0.1298218, 3.55725, 0.1145038, 3.55725, 0.2442748, 3.55725, -2.5572519
0.4192941, -0.0182956, 3.564, 0.0003052, 3.564, -1.0089722, 3.564, -0.1338501, 3.564, 0.0763359, 3.564, 0.3435115, 3.564, -2.8778627
0.4200882, -0.0179599, 3.57075, 0.0007935, 3.57075, -1.0076294, 3.57075, -0.1329346, 3.57075, -0.0152672, 3.57075, 0.5648855, 3.57075, -2.6564887
0.4208824, -0.0166171, 3.5775, 0.0014648, 3.5775, -1.0048218, 3.5775, -0.1309814, 3.5775, 0.0610687, 3.5775, 0.8778626, 3.5775, -2.7328243
0.4216765, -0.0176242, 3.58425, 0.0058594, 3.58425, -1.0065918, 3.58425, -0.12323, 3.58425, -0.0381679, 3.58425, 1.1755725, 3.58425, -2.778626
0.4224706, -0.0216526, 3.591, 0.0053711, 3.591, -1.0073242, 3.591, -0.1310425, 3.591, -0.1832061, 3.591, 1.3053435, 3.591, -2.5419848
0.4232647, -0.018967, 3.59775, 0.0029907, 3.59775, -1.003418, 3.59775, -0.1287231, 3.59775, -0.3969466, 3.59775, 1.4122137, 3.59775, -2.480916
0.4240588, -0.0159457, 3.6045, -0.0020142, 3.6045, -1.0078125, 3.6045, -0.1304321, 3.6045, -0.2824427, 3.6045, 1.5496184, 3.6045, -2.5343511
0.4248529, -0.0157778, 3.61125, -0.0053101, 3.61125, -1.0057373, 3.61125, -0.1340332, 3.61125, -0.3129771, 3.61125, 1.3358779, 3.61125, -2.6259542
0.4256471, -0.0172885, 3.618, -0.0020752, 3.618, -1.0060425, 3.618, -0.1279907, 3.618, -0.4198473, 3.618, 1.3740458, 3.618, -2.5038168
0.4264412, -0.0193027, 3.62475, -0.0043335, 3.62475, -1.0059204, 3.62475, -0.1327515, 3.62475, -0.4045801, 3.62475, 1.0305344, 3.62475, -2.3358779
0.4272353, -0.018967, 3.6315, 0.0006714, 3.6315, -1.0062866, 3.6315, -0.1327515, 3.6315, -0.4503817, 3.6315, 0.7557252, 3.6315, -2.6564887
0.4280294, -0.0169528, 3.63825, 0.0023804, 3.63825, -1.0062256, 3.63825, -0.1370239, 3.63825, -0.3358779, 3.63825, 0.8015267, 3.63825, -2.648855
0.4288235, -0.0166171, 3.645, 0.0016479, 3.645, -1.0042114, 3.645, -0.1317139, 3.645, -0.6259542, 3.645, 0.778626, 3.645, -2.5419848
0.4296176, -0.0172885, 3.65175, 0.0039673, 3.65175, -1.0072021, 3.65175, -0.1315308, 3.65175, -0.5343512, 3.65175, 1.2977099, 3.65175, -2.3587787
0.4304118, -0.0196384, 3.6585, 0.0028687, 3.6585, -1.0083008, 3.6585, -0.1323242, 3.6585, -0.8396947, 3.6585, 1.6717557, 3.6585, -2.648855
0.4312059, -0.0159457, 3.66525, 0.0021973, 3.66525, -1.0074463, 3.66525, -0.1322632, 3.66525, -1.0458015, 3.66525, 1.4045801, 3.66525, -2.4732823
0.432, -0.01561, 3.672, -0.0019531, 3.672, -1.0087891, 3.672, -0.1325073, 3.672, -0.9007633, 3.672, 1.7557251, 3.672, -2.3435113
0.4327941, -0.0151064, 3.67875, -0.0042725, 3.67875, -1.0073853, 3.67875, -0.1338501, 3.67875, -0.4274809, 3.67875, 1.4274809, 3.67875, -2.259542
0.4335882, -0.012253, 3.6855, -0.0020142, 3.6855, -1.0075073, 3.6855, -0.1382446, 3.6855, -0.8549618, 3.6855, 1.0839695, 3.6855, -2.3816793
0.4343824, -0.010071, 3.69225, -0.0079346, 3.69225, -1.0117188, 3.69225, -0.132019, 3.69225, -0.6412213, 3.69225, 1.3587786, 3.69225, -2.4427481
0.4351765, -0.0077211, 3.699, -0.0102539, 3.699, -1.0084839, 3.699, -0.1326294, 3.699, -0.5648855, 3.699, 1.480916, 3.699, -2.5267177
0.4359706, -0.0062104, 3.70575, -0.0091553, 3.70575, -1.0083618, 3.70575, -0.1359863, 3.70575, -0.2824427, 3.70575, 1.0763359, 3.70575, -2.4274809
0.4367647, -0.0063783, 3.7125, -0.0116577, 3.7125, -1.0081177, 3.7125, -0.1404419, 3.7125, -0.1832061, 3.7125, 0.6946565, 3.7125, -2.4351146
0.4375588, -0.005539, 3.71925, -0.0100098, 3.71925, -1.0098267, 3.71925, -0.140625, 3.71925, -0.1374046, 3.71925, 0.5801527, 3.71925, -2.6412213
0.4383529, -0.0052033, 3.726, -0.0106201, 3.726, -1.0092773, 3.726, -0.1380005, 3.726, -0.0610687, 3.726, 0.5267175, 3.726, -2.5954199
0.4391471, -0.0057069, 3.73275, -0.0078125, 3.73275, -1.0093384, 3.73275, -0.1367188, 3.73275, 0.0763359, 3.73275, 0.5801527, 3.73275, -2.5801528
0.4399412, -0.0065461, 3.7395, -0.0014648, 3.7395, -1.006958, 3.7395, -0.1392212, 3.7395, 0.1984733, 3.7395, 0.6335878, 3.7395, -2.6564887
0.4407353, -0.0065461, 3.74625, -0.0026245, 3.74625, -1.006958, 3.74625, -0.1413574, 3.74625, 0.0687023, 3.74625, 0.7709923, 3.74625, -2.7328243
0.4415294, -0.008896, 3.753, -0.0054321, 3.753, -1.0095215, 3.753, -0.1416016, 3.753, 0.1832061, 3.753, 0.6946565, 3.753, -2.6793892
0.4423235, -0.011078, 3.75975, -0.0042114, 3.75975, -1.0095215, 3.75975, -0.145752, 3.75975, 0.221374, 3.75975, 0.8625954, 3.75975, -2.7328243
0.4431176, -0.0095674, 3.7665, -0.00354, 3.7665, -1.0070801, 3.7665, -0.1459961, 3.7665, 0.1450382, 3.7665, 1.2137405, 3.7665, -2.8396947
0.4439118, -0.0104067, 3.77325, -0.0004883, 3.77325, -1.0065308, 3.77325, -0.144043, 3.77325, -0.0534351, 3.77325, 1.1526718, 3.77325, -2.9770992
0.4447059, -0.0114137, 3.78, -0.0064087, 3.78, -1.0068359, 3.78, -0.1333618, 3.78, -0.129771, 3.78, 1.3435115, 3.78, -2.9007633
0.4455, -0.0115816, 3.78675, -0.0078125, 3.78675, -1.006958, 3.78675, -0.1356812, 3.78675, -0.1221374, 3.78675, 1.1755725, 3.78675, -3.129771
0.4462941, -0.0132601, 3.7935, -0.0113525, 3.7935, -1.005127, 3.7935, -0.1380005, 3.7935, 0.0152672, 3.7935, 0.8167939, 3.7935, -3.0305343
0.4470882, -0.012253, 3.80025, -0.0079346, 3.80025, -1.0066528, 3.80025, -0.1401978, 3.80025, 0.1603053, 3.80025, 0.3969466, 3.80025, -3.2290077
0.4478824, -0.012253, 3.807, -0.0058594, 3.807, -1.0090332, 3.807, -0.1409912, 3.807, 0.2442748, 3.807, 0.5648855, 3.807, -3.2671757
0.4486765, -0.0142672, 3.81375, -0.0045166, 3.81375, -1.0078125, 3.81375, -0.1392822, 3.81375, 0.3435115, 3.81375, 0.8244275, 3.81375, -3.3816793
0.4494706, -0.0166171, 3.8205, -0.0076904, 3.8205, -1.0057373, 3.8205, -0.1401367, 3.8205, 0.3740458, 3.8205, 0.1984733, 3.8205, -3.2900763
0.4502647, -0.0124208, 3.82725, -0.0084229, 3.82725, -1.0050659, 3.82725, -0.1386108, 3.82725, 0.5725191, 3.82725, -0.129771, 3.82725, -3.3358779
0.4510588, -0.0099031, 3.834, -0.0090332, 3.834, -1.008667, 3.834, -0.1398315, 3.834, 0.7022901, 3.834, 0.0152672, 3.834, -3.351145
0.4518529, -0.0135958, 3.84075, -0.0065308, 3.84075, -1.007019, 3.84075, -0.1433716, 3.84075, 0.7709923, 3.84075, 0.1450382, 3.84075, -3.4198472
0.4526471, -0.0162814, 3.8475, -0.0018921, 3.8475, -1.0072632, 3.8475, -0.1395874, 3.8475, 0.7557252, 3.8475, -0.0992366, 3.8475, -3.4885497
0.4534412, -0.0135958, 3.85425, -0.0016479, 3.85425, -1.0114746, 3.85425, -0.142334, 3.85425, 0.8320611, 3.85425, 0.0610687, 3.85425, -3.4732823
0.4542353, -0.01561, 3.861, -0.0012817, 3.861, -1.0092773, 3.861, -0.142334, 3.861, 1.0076336, 3.861, 0.259542, 3.861, -3.221374
0.4550294, -0.0166171, 3.86775, -0.0009155, 3.86775, -1.0081177, 3.86775, -0.1389771, 3.86775, 1.0229008, 3.86775, 0.1832061, 3.86775, -3.3740458
0.4558235, -0.0149386, 3.8745, 0.0018311, 3.8745, -1.0045776, 3.8745, -0.1434937, 3.8745, 1.1450381, 3.8745, 0.1450382, 3.8745, -3.5267177
0.4566176, -0.0167849, 3.88125, -0.0008545, 3.88125, -1.0066528, 3.88125, -0.1408691, 3.88125, 1.2061069, 3.88125, 0.5801527, 3.88125, -3.6641221
0.4574118, -0.0176242, 3.888, 0.0004272, 3.888, -1.0090942, 3.888, -0.1393433, 3.888, 1.1145039, 3.888, 0.9770992, 3.888, -3.5572519
0.4582059, -0.0209812, 3.89475, 0.0009155, 3.89475, -1.0057983, 3.89475, -0.138855, 3.89475, 0.9694657, 3.89475, 0.8244275, 3.89475, -3.4580152
0.459, -0.0253452, 3.9015, -6.1E-05, 3.9015, -1.0079956, 3.9015, -0.1375732, 3.9015, 1.0992366, 3.9015, 0.6870229, 3.9015, -3.3816793
0.4597941, -0.0219883, 3.90825, -0.0042725, 3.90825, -1.0073242, 3.90825, -0.1373291, 3.90825, 1.2671756, 3.90825, 0.5496183, 3.90825, -3.480916
0.4605882, -0.0203098, 3.915, -0.0045166, 3.915, -1.0074463, 3.915, -0.1359863, 3.915, 1.129771, 3.915, 0.3053435, 3.915, -3.3740458
0.4613824, -0.0176242, 3.92175, -0.0067139, 3.92175, -1.008606, 3.92175, -0.1373901, 3.92175, 0.7251908, 3.92175, -0.0076336, 3.92175, -3.4427481
0.4621765, -0.0149386, 3.9285, -0.0020752, 3.9285, -1.007019, 3.9285, -0.1411133, 3.9285, 0.9389313, 3.9285, 0.0458015, 3.9285, -3.4961832
0.4629706, -0.0154421, 3.93525, -0.0005493, 3.93525, -1.0062866, 3.93525, -0.1400757, 3.93525, 0.8320611, 3.93525, 0.1526718, 3.93525, -3.5648854
0.4637647, -0.0159457, 3.942, 0.0007324, 3.942, -1.006897, 3.942, -0.1361694, 3.942, 0.5419847, 3.942, 0.2366412, 3.942, -3.4427481
0.4645588, -0.0171206, 3.94875, -0.003418, 3.94875, -1.0081787, 3.94875, -0.1391602, 3.94875, 0.4656489, 3.94875, 0.4351145, 3.94875, -3.5419848
0.4653529, -0.0139315, 3.9555, -0.0049438, 3.9555, -1.007019, 3.9555, -0.1391602, 3.9555, 0.6641222, 3.9555, 0.2748092, 3.9555, -3.5343511
0.4661471, -0.0167849, 3.96225, -0.0032959, 3.96225, -1.0074463, 3.96225, -0.137146, 3.96225, 0.5419847, 3.96225, 0.2977099, 3.96225, -3.5343511
0.4669412, -0.0186313, 3.969, -0.0046387, 3.969, -1.0058594, 3.969, -0.1360474, 3.969, 0.7328244, 3.969, 0.4732825, 3.969, -3.6183207
0.4677353, -0.0169528, 3.97575, -0.0008545, 3.97575, -1.0096436, 3.97575, -0.1381226, 3.97575, 0.8396947, 3.97575, 0.5801527, 3.97575, -3.4961832
0.4685294, -0.0176242, 3.9825, 0.0013428, 3.9825, -1.0080566, 3.9825, -0.1350708, 3.9825, 0.8473282, 3.9825, 0.5572519, 3.9825, -3.4656489
0.4693235, -0.0179599, 3.98925, 0.0008545, 3.98925, -1.0073853, 3.98925, -0.135498, 3.98925, 0.9160305, 3.98925, 0.3587786, 3.98925, -3.4351146
0.4701176, -0.0162814, 3.996, 0.0010986, 3.996, -1.0045776, 3.996, -0.1403809, 3.996, 0.9694657, 3.996, 0.5572519, 3.996, -3.480916
0.4709118, -0.014435, 4.00275, 0.0021362, 4.00275, -1.0072021, 4.00275, -0.1339722, 4.00275, 0.9694657, 4.00275, 1.0534351, 4.00275, -3.2671757
0.4717059, -0.0166171, 4.0095, -0.0003662, 4.0095, -1.0062866, 4.0095, -0.1306152, 4.0095, 1.1526718, 4.0095, 1.1374046, 4.0095, -3.2824428
0.4725, -0.0166171, 4.01625, -0.0023804, 4.01625, -1.005249, 4.01625, -0.1316528, 4.01625, 1.2061069, 4.01625, 1.0992366, 4.01625, -3.4351146
0.4732941, -0.0146029, 4.023, -0.0062866, 4.023, -1.001709, 4.023, -0.1353149, 4.023, 1.2900764, 4.023, 0.9694657, 4.023, -3.4351146
0.4740882, -0.0152743, 4.02975, -0.001709, 4.02975, -1.0015869, 4.02975, -0.1386719, 4.02975, 1.1450381, 4.02975, 1.0534351, 4.02975, -3.2671757
0.4748824, -0.017792, 4.0365, -0.0018921, 4.0365, -1.0067749, 4.0365, -0.1350098, 4.0365, 1.0152671, 4.0365, 1.0305344, 4.0365, -3.3740458
0.4756765, -0.018967, 4.04325, -0.0026245, 4.04325, -1.0065918, 4.04325, -0.1342163, 4.04325, 1.091603, 4.04325, 0.8778626, 4.04325, -3.4045801
0.4764706, -0.0179599, 4.05, -0.0021973, 4.05, -1.0047607, 4.05, -0.1361694, 4.05, 1.091603, 4.05, 0.7480916, 4.05, -3.5343511
0.4772647, -0.0191348, 4.05675, -0.0049438, 4.05675, -1.0067139, 4.05675, -0.137207, 4.05675, 1.0839695, 4.05675, 0.5038168, 4.05675, -3.5572519
0.4780588, -0.01561, 4.0635, -0.001709, 4.0635, -1.0048218, 4.0635, -0.1436157, 4.0635, 1.038168, 4.0635, 0.5801527, 4.0635, -3.2671757
0.4788529, -0.0169528, 4.07025, 0.0018311, 4.07025, -1.0065308, 4.07025, -0.1383057, 4.07025, 1.0763359, 4.07025, 0.5648855, 4.07025, -3.4885497
0.4796471, -0.0172885, 4.077, 0.0053101, 4.077, -1.0090942, 4.077, -0.1420288, 4.077, 0.9770992, 4.077, 0.6717557, 4.077, -3.5954199
0.4804412, -0.0191348, 4.08375, 0.0050659, 4.08375, -1.0065308, 4.08375, -0.1420288, 4.08375, 1.0152671, 4.08375, 0.7175573, 4.08375, -3.4503818
0.4812353, -0.0182956, 4.0905, 0.0018921, 4.0905, -1.0019531, 4.0905, -0.1397705, 4.0905, 1.0839695, 4.0905, 0.7938932, 4.0905, -3.221374
0.4820294, -0.0179599, 4.09725, 0.0016479, 4.09725, -1.0043335, 4.09725, -0.1400146, 4.09725, 1.0839695, 4.09725, 1.0610687, 4.09725, -3.2824428
0.4828235, -0.0199741, 4.104, -0.0001221, 4.104, -1.0046387, 4.104, -0.1419678, 4.104, 1.1755725, 4.104, 0.9694657, 4.104, -3.4045801
0.4836176, -0.0216526, 4.11075, -0.0045166, 4.11075, -1.0061646, 4.11075, -0.1418457, 4.11075, 1.0305344, 4.11075, 1.1068702, 4.11075, -3.1908398
0.4844118, -0.0204776, 4.1175, -0.0046387, 4.1175, -1.0068359, 4.1175, -0.1361694, 4.1175, 0.9312977, 4.1175, 1.0229008, 4.1175, -3.2137403
0.4852059, -0.018967, 4.12425, -0.0062256, 4.12425, -1.0067749, 4.12425, -0.1332397, 4.12425, 1.0152671, 4.12425, 0.7709923, 4.12425, -3.3740458
0.486, -0.0196384, 4.131, -0.0088501, 4.131, -1.0062866, 4.131, -0.1390381, 4.131, 1.1755725, 4.131, 0.5114504, 4.131, -3.3282442
0.4867941, -0.0196384, 4.13775, -0.0054932, 4.13775, -1.0071411, 4.13775, -0.137146, 4.13775, 1.129771, 4.13775, 0.6335878, 4.13775, -3.221374
0.4875882, -0.0172885, 4.1445, -0.0041504, 4.1445, -1.0076294, 4.1445, -0.1364746, 4.1445, 1.1755725, 4.1445, 0.5954198, 4.1445, -3.2824428
0.4883824, -0.0166171, 4.15125, -0.0032349, 4.15125, -1.0089722, 4.15125, -0.1382446, 4.15125, 1.259542, 4.15125, 0.5267175, 4.15125, -3.2671757
0.4891765, -0.0164492, 4.158, 0.0027466, 4.158, -1.0057983, 4.158, -0.1376343, 4.158, 1.1603054, 4.158, 0.6030535, 4.158, -3.2824428
0.4899706, -0.0159457, 4.16475, 0.0050049, 4.16475, -1.0085449, 4.16475, -0.1367188, 4.16475, 1.1450381, 4.16475, 0.5725191, 4.16475, -3.3282442
0.4907647, -0.023331, 4.1715, 0.0054932, 4.1715, -1.0057373, 4.1715, -0.133667, 4.1715, 1.3358779, 4.1715, 0.5954198, 4.1715, -3.1221373
0.4915588, -0.0253452, 4.17825, 0.0037842, 4.17825, -1.0080566, 4.17825, -0.1420288, 4.17825, 1.4961832, 4.17825, 0.908397, 4.17825, -3.1603053
0.4923529, -0.0218204, 4.185, -6.1E-05, 4.185, -1.005188, 4.185, -0.1393433, 4.185, 1.221374, 4.185, 0.8473282, 4.185, -2.9923663
0.4931471, -0.0243381, 4.19175, -0.0039062, 4.19175, -1.0056763, 4.19175, -0.1347046, 4.19175, 1.1679389, 4.19175, 0.908397, 4.19175, -3.221374
0.4939412, -0.0203098, 4.1985, -0.0031128, 4.1985, -1.0057983, 4.1985, -0.1362305, 4.1985, 1.1908396, 4.1985, 0.519084, 4.1985, -3.1526718
0.4947353, -0.0234989, 4.20525, -0.003479, 4.20525, -1.0021973, 4.20525, -0.1380005, 4.20525, 1.2137405, 4.20525, 0.4045801, 4.20525, -3.1221373
0.4955294, -0.0265202, 4.212, -0.0038452, 4.212, -1.0075684, 4.212, -0.1400757, 4.212, 1.1984733, 4.212, 0.4351145, 4.212, -3.1221373
0.4963235, -0.0236667, 4.21875, -0.0007935, 4.21875, -1.0059814, 4.21875, -0.1403809, 4.21875, 1.3129771, 4.21875, 0.2900763, 4.21875, -3.2061069
0.4971176, -0.0182956, 4.2255, 0.0015869, 4.2255, -1.0074463, 4.2255, -0.140564, 4.2255, 1.259542, 4.2255, 0.2290076, 4.2255, -3.2137403
0.4979118, -0.0164492, 4.23225, 0.0028076, 4.23225, -1.0072632, 4.23225, -0.142395, 4.23225, 1.2061069, 4.23225, 0.3740458, 4.23225, -3.1832061
0.4987059, -0.0135958, 4.239, 0.003479, 4.239, -1.0057373, 4.239, -0.1431274, 4.239, 1.0687023, 4.239, 0.5114504, 4.239, -3.1221373
0.4995, -0.0135958, 4.24575, 0.005249, 4.24575, -1.0079956, 4.24575, -0.1420288, 4.24575, 0.870229, 4.24575, 0.7557252, 4.24575, -3.1450381
0.5002941, -0.0132601, 4.2525, 0.0040894, 4.2525, -1.0066528, 4.2525, -0.1439819, 4.2525, 1.1068702, 4.2525, 0.8549618, 4.2525, -3.1526718
0.5010882, -0.0135958, 4.25925, 0.0018921, 4.25925, -1.008728, 4.25925, -0.1393433, 4.25925, 0.8549618, 4.25925, 1.0610687, 4.25925, -3.2977099
0.5018824, -0.0125887, 4.266, -0.0018311, 4.266, -1.0102539, 4.266, -0.1373901, 4.266, 1.1450381, 4.266, 1.0687023, 4.266, -3.221374
0.5026765, -0.0135958, 4.27275, -0.005249, 4.27275, -1.0072632, 4.27275, -0.1374512, 4.27275, 1.4122137, 4.27275, 0.9694657, 4.27275, -3.1832061
0.5034706, -0.012253, 4.2795, -0.00354, 4.2795, -1.0057373, 4.2795, -0.1412964, 4.2795, 1.4274809, 4.2795, 0.6870229, 4.2795, -3.1374047
0.5042647, -0.0095674, 4.28625, -0.005188, 4.28625, -1.0048828, 4.28625, -0.1427002, 4.28625, 1.3740458, 4.28625, 0.5954198, 4.28625, -3.1526718
0.5050588, -0.0099031, 4.293, -0.007019, 4.293, -1.008667, 4.293, -0.1403809, 4.293, 1.2290076, 4.293, 0.5954198, 4.293, -3.1526718
0.5058529, -0.012253, 4.29975, -0.0050659, 4.29975, -1.0089722, 4.29975, -0.1392822, 4.29975, 1.1832061, 4.29975, 0.5114504, 4.29975, -3.2137403
0.5066471, -0.0095674, 4.3065, -0.0041504, 4.3065, -1.010437, 4.3065, -0.138855, 4.3065, 1.3053435, 4.3065, 0.6183206, 4.3065, -3.2290077
0.5074412, -0.0102388, 4.31325, -0.0006714, 4.31325, -1.0079346, 4.31325, -0.1385498, 4.31325, 1.5572519, 4.31325, 0.5343512, 4.31325, -3.129771
0.5082353, -0.0112459, 4.32, 0.0013428, 4.32, -1.008728, 4.32, -0.1427612, 4.32, 1.4274809, 4.32, 0.6183206, 4.32, -3.1832061
0.5090294, -0.0124208, 4.32675, 0.00177, 4.32675, -1.0082397, 4.32675, -0.1402588, 4.32675, 1.5038168, 4.32675, 0.7022901, 4.32675, -3.2137403
0.5098235, -0.0102388, 4.3335, 0.0032959, 4.3335, -1.0078735, 4.3335, -0.1375122, 4.3335, 1.648855, 4.3335, 0.9160305, 4.3335, -3.0229008
0.5106176, -0.0048676, 4.34025, 0.0029297, 4.34025, -1.0043335, 4.34025, -0.1373291, 4.34025, 1.5572519, 4.34025, 1.0229008, 4.34025, -3.0610688
0.5114118, -0.0062104, 4.347, 0.0028076, 4.347, -1.0056152, 4.347, -0.1370239, 4.347, 1.4732825, 4.347, 0.9312977, 4.347, -3.0992367
0.5122059, -0.0041962, 4.35375, 0.0018311, 4.35375, -1.0039673, 4.35375, -0.1386719, 4.35375, 1.6030535, 4.35375, 0.9465649, 4.35375, -3.1068702
0.513, -0.005539, 4.3605, 0.0012207, 4.3605, -1.0057983, 4.3605, -0.1408691, 4.3605, 1.7175573, 4.3605, 0.6183206, 4.3605, -3.0229008
0.5137941, -0.0083925, 4.36725, -0.0030518, 4.36725, -1.0018311, 4.36725, -0.138916, 4.36725, 1.6259542, 4.36725, 0.7557252, 4.36725, -3.0763359
0.5145882, -0.0082246, 4.374, -0.0021973, 4.374, -1.0042725, 4.374, -0.1377563, 4.374, 1.3740458, 4.374, 0.8320611, 4.374, -3.1221373
0.5153824, -0.0102388, 4.38075, 0.0006714, 4.38075, -1.0036621, 4.38075, -0.1374512, 4.38075, 1.4198474, 4.38075, 0.8091603, 4.38075, -3.351145
0.5161765, -0.0112459, 4.3875, -0.0024414, 4.3875, -1.0042114, 4.3875, -0.1368408, 4.3875, 1.3969465, 4.3875, 0.8778626, 4.3875, -3.1755726
0.5169706, -0.0099031, 4.39425, -0.0040894, 4.39425, -1.005188, 4.39425, -0.135437, 4.39425, 1.3206106, 4.39425, 0.7175573, 4.39425, -3.0076337
0.5177647, -0.0078889, 4.401, -0.0067139, 4.401, -1.0073242, 4.401, -0.137146, 4.401, 1.3587786, 4.401, 0.7099237, 4.401, -3.1832061
0.5185588, -0.0092317, 4.40775, -0.0083618, 4.40775, -1.0079956, 4.40775, -0.1350708, 4.40775, 1.4045801, 4.40775, 0.2748092, 4.40775, -3.1603053
0.5193529, -0.0132601, 4.4145, -0.0064697, 4.4145, -1.008606, 4.4145, -0.1339111, 4.4145, 1.4503816, 4.4145, -0.0763359, 4.4145, -3.0610688
0.5201471, -0.0157778, 4.42125, -0.0057373, 4.42125, -1.0098877, 4.42125, -0.1333008, 4.42125, 1.1374046, 4.42125, 0.3282443, 4.42125, -3.3358779
0.5209412, -0.0159457, 4.428, -0.0011597, 4.428, -1.0050049, 4.428, -0.1345825, 4.428, 1.4122137, 4.428, 0.4045801, 4.428, -3.3053436
0.5217353, -0.01561, 4.43475, 0.0013428, 4.43475, -1.0054932, 4.43475, -0.1364746, 4.43475, 1.4122137, 4.43475, 0.3740458, 4.43475, -3.1221373
0.5225294, -0.012253, 4.4415, 0.0046997, 4.4415, -1.0053711, 4.4415, -0.1382446, 4.4415, 1.6183206, 4.4415, 0.6030535, 4.4415, -3.0839694
0.5233235, -0.012253, 4.44825, 0.0064697, 4.44825, -1.0053101, 4.44825, -0.1395264, 4.44825, 1.6183206, 4.44825, 0.5801527, 4.44825, -3.0687022
0.5241176, -0.0104067, 4.455, 0.0061035, 4.455, -1.0043945, 4.455, -0.1393433, 4.455, 1.6259542, 4.455, 0.908397, 4.455, -3.1450381
0.5249118, -0.0119173, 4.46175, 0.0078125, 4.46175, -1.0074463, 4.46175, -0.1428833, 4.46175, 1.3129771, 4.46175, 1.0610687, 4.46175, -3.1068702
0.5257059, -0.0119173, 4.4685, 0.0053101, 4.4685, -1.0039673, 4.4685, -0.1386108, 4.4685, 1.3129771, 4.4685, 1.2671756, 4.4685, -3.1374047
0.5265, -0.012253, 4.47525, 0.0036011, 4.47525, -1.0037842, 4.47525, -0.1350708, 4.47525, 1.1755725, 4.47525, 1.2519084, 4.47525, -3.0687022
0.5272941, -0.0152743, 4.482, 0.0020142, 4.482, -1.0059204, 4.482, -0.1366577, 4.482, 1.0687023, 4.482, 1.2366412, 4.482, -3.091603
0.5280882, -0.0176242, 4.48875, -0.0012817, 4.48875, -1.0061646, 4.48875, -0.1358643, 4.48875, 1.1145039, 4.48875, 1.5038168, 4.48875, -3.038168
0.5288824, -0.0171206, 4.4955, -0.0037842, 4.4955, -1.0077515, 4.4955, -0.1337891, 4.4955, 0.9541985, 4.4955, 1.610687, 4.4955, -3.0839694
0.5296765, -0.0129244, 4.50225, -0.0067139, 4.50225, -1.0075684, 4.50225, -0.1296997, 4.50225, 0.8473282, 4.50225, 1.7251909, 4.50225, -2.9847329
0.5304706, -0.0149386, 4.509, -0.0064087, 4.509, -1.006958, 4.509, -0.132019, 4.509, 1.1526718, 4.509, 1.6183206, 4.509, -3.0763359
0.5312647, -0.0162814, 4.51575, -0.0102539, 4.51575, -1.0064697, 4.51575, -0.1296997, 4.51575, 1.2519084, 4.51575, 1.259542, 4.51575, -3.0229008
0.5320588, -0.0184634, 4.5225, -0.0063477, 4.5225, -1.0049438, 4.5225, -0.1330566, 4.5225, 1.2977099, 4.5225, 1.129771, 4.5225, -3.221374
0.5328529, -0.0203098, 4.52925, -0.0044556, 4.52925, -1.0075684, 4.52925, -0.1341553, 4.52925, 1.259542, 4.52925, 0.908397, 4.52925, -3.038168
0.5336471, -0.0172885, 4.536, 0.0006104, 4.536, -1.0062866, 4.536, -0.1329956, 4.536, 1.3282443, 4.536, 0.9389313, 4.536, -3.0992367
0.5344412, -0.0196384, 4.54275, 0.0029297, 4.54275, -1.0061035, 4.54275, -0.1340942, 4.54275, 1.4045801, 4.54275, 1.1603054, 4.54275, -3.1679389
0.5352353, -0.0209812, 4.5495, 0.0039062, 4.5495, -1.0061646, 4.5495, -0.1370239, 4.5495, 1.2671756, 4.5495, 0.9465649, 4.5495, -3.3053436
0.5360294, -0.0196384, 4.55625, 0.0067139, 4.55625, -1.008667, 4.55625, -0.140564, 4.55625, 1.1755725, 4.55625, 0.9236641, 4.55625, -3.259542
0.5368235, -0.0171206, 4.563, 0.0050049, 4.563, -1.0055542, 4.563, -0.1392212, 4.563, 1.2900764, 4.563, 1.1603054, 4.563, -3.129771
0.5376176, -0.0166171, 4.56975, 0.0041504, 4.56975, -1.0068359, 4.56975, -0.1355591, 4.56975, 1.0687023, 4.56975, 1.0687023, 4.56975, -3.3282442
0.5384118, -0.0203098, 4.5765, -0.0029297, 4.5765, -1.006897, 4.5765, -0.1356201, 4.5765, 1.1984733, 4.5765, 1.0458015, 4.5765, -3.1145039
0.5392059, -0.0223239, 4.58325, -0.006897, 4.58325, -1.0066528, 4.58325, -0.1358643, 4.58325, 1.1603054, 4.58325, 1.221374, 4.58325, -3.1755726
0.54, -0.0216526, 4.59, -0.0028687, 4.59, -1.0058594, 4.59, -0.1363525, 4.59, 1.1908396, 4.59, 0.9389313, 4.59, -3.1374047
0.5407941, -0.0164492, 4.59675, -0.0032349, 4.59675, -1.0058594, 4.59675, -0.1393433, 4.59675, 1.1221374, 4.59675, 1.0763359, 4.59675, -3.1679389
0.5415882, -0.0172885, 4.6035, -0.0038452, 4.6035, -1.005188, 4.6035, -0.1361694, 4.6035, 1.2137405, 4.6035, 0.9770992, 4.6035, -3.091603
0.5423824, -0.0162814, 4.61025, -0.0042114, 4.61025, -1.0067139, 4.61025, -0.1370239, 4.61025, 1.5038168, 4.61025, 0.8244275, 4.61025, -2.9465649
0.5431765, -0.0147707, 4.617, -0.0067749, 4.617, -1.007019, 4.617, -0.1393433, 4.617, 1.5496184, 4.617, 0.7099237, 4.617, -2.9389312
0.5439706, -0.0159457, 4.62375, -0.0010376, 4.62375, -1.0048218, 4.62375, -0.135498, 4.62375, 1.4580153, 4.62375, 0.7938932, 4.62375, -3.0992367
0.5447647, -0.0179599, 4.6305, 0.0009766, 4.6305, -1.008667, 4.6305, -0.1369629, 4.6305, 1.4198474, 4.6305, 0.8396947, 4.6305, -3.0152671
0.5455588, -0.0162814, 4.63725, 0.0007324, 4.63725, -1.0039673, 4.63725, -0.1328125, 4.63725, 1.1832061, 4.63725, 1.1679389, 4.63725, -3.129771
0.5463529, -0.0149386, 4.644, -0.0032349, 4.644, -1.0065308, 4.644, -0.1364746, 4.644, 1.4427481, 4.644, 1.0152671, 4.644, -3.0610688
0.5471471, -0.0169528, 4.65075, -0.0048218, 4.65075, -1.0081177, 4.65075, -0.1436157, 4.65075, 1.5877863, 4.65075, 0.7328244, 4.65075, -2.908397
0.5479412, -0.0208133, 4.6575, -0.0045776, 4.6575, -1.0065308, 4.6575, -0.1422729, 4.6575, 1.5267175, 4.6575, 0.6946565, 4.6575, -3.091603
0.5487353, -0.0209812, 4.66425, -0.0043335, 4.66425, -1.0032959, 4.66425, -0.1420898, 4.66425, 1.4580153, 4.66425, 0.6335878, 4.66425, -3.2290077
0.5495294, -0.0203098, 4.671, -0.0062866, 4.671, -1.0041504, 4.671, -0.1437988, 4.671, 1.4427481, 4.671, 0.6946565, 4.671, -3.389313
0.5503235, -0.0176242, 4.67775, -0.0002441, 4.67775, -1.005127, 4.67775, -0.1438599, 4.67775, 1.4274809, 4.67775, 0.908397, 4.67775, -3.2900763
0.5511176, -0.0176242, 4.6845, -0.0036011, 4.6845, -1.006897, 4.6845, -0.1442871, 4.6845, 1.2519084, 4.6845, 0.7862595, 4.6845, -3.3053436
0.5519118, -0.0135958, 4.69125, -0.0037842, 4.69125, -1.0067749, 4.69125, -0.1402588, 4.69125, 1.3969465, 4.69125, 0.6793893, 4.69125, -3.5038168
0.5527059, -0.012253, 4.698, -0.0049438, 4.698, -1.0048218, 4.698, -0.1358643, 4.698, 1.3129771, 4.698, 1.0992366, 4.698, -3.5267177
0.5535, -0.0095674, 4.70475, -0.0026245, 4.70475, -1.0043945, 4.70475, -0.1369019, 4.70475, 1.351145, 4.70475, 0.9465649, 4.70475, -3.519084
0.5542941, -0.0095674, 4.7115, -0.0042114, 4.7115, -1.0061646, 4.7115, -0.1331787, 4.7115, 1.3664122, 4.7115, 1.038168, 4.7115, -3.5725191
0.5550882, -0.0149386, 4.71825, -0.0033569, 4.71825, -1.0079346, 4.71825, -0.1293945, 4.71825, 1.2900764, 4.71825, 0.9236641, 4.71825, -3.4656489
0.5558824, -0.0135958, 4.725, -0.0003052, 4.725, -1.0079956, 4.725, -0.131958, 4.725, 1.3206106, 4.725, 0.9694657, 4.725, -3.6259542
0.5566765, -0.0095674, 4.73175, 0.0015259, 4.73175, -1.0087891, 4.73175, -0.1295166, 4.73175, 1.3435115, 4.73175, 0.870229, 4.73175, -3.5801528
0.5574706, -0.0102388, 4.7385, 0.0011597, 4.7385, -1.0038452, 4.7385, -0.1305542, 4.7385, 1.3816794, 4.7385, 0.7938932, 4.7385, -3.389313
0.5582647, -0.0102388, 4.74525, 0.00354, 4.74525, -1.0014038, 4.74525, -0.1296997, 4.74525, 1.4274809, 4.74525, 0.9465649, 4.74525, -3.351145
0.5590588, -0.0142672, 4.752, 0.005127, 4.752, -1.0026855, 4.752, -0.1322021, 4.752, 1.3053435, 4.752, 1.038168, 4.752, -3.1984732
0.5598529, -0.0151064, 4.75875, 0.006958, 4.75875, -1.0021362, 4.75875, -0.1331177, 4.75875, 1.3664122, 4.75875, 1.4580153, 4.75875, -3.2748091
0.5606471, -0.01561, 4.7655, 0.0046387, 4.7655, -1.0045776, 4.7655, -0.133606, 4.7655, 1.2290076, 4.7655, 1.740458, 4.7655, -3.3664122
0.5614412, -0.0142672, 4.77225, 0.0031128, 4.77225, -1.0029297, 4.77225, -0.1330566, 4.77225, 1.3435115, 4.77225, 1.7557251, 4.77225, -3.1603053
0.5622353, -0.0129244, 4.779, 0.0006714, 4.779, -1.006958, 4.779, -0.1346436, 4.779, 1.1603054, 4.779, 1.8473282, 4.779, -3.2519083
0.5630294, -0.0129244, 4.78575, 0.0008545, 4.78575, -1.0062256, 4.78575, -0.1358032, 4.78575, 1.2061069, 4.78575, 1.7251909, 4.78575, -3.2519083
0.5638235, -0.0142672, 4.7925, -0.0002441, 4.7925, -1.0059814, 4.7925, -0.1351318, 4.7925, 1.0458015, 4.7925, 1.8015267, 4.7925, -3.3435113
0.5646176, -0.0169528, 4.79925, 0.001709, 4.79925, -1.0067139, 4.79925, -0.1293335, 4.79925, 0.9312977, 4.79925, 1.8167939, 4.79925, -3.1755726
0.5654118, -0.0135958, 4.806, -0.0022583, 4.806, -1.005188, 4.806, -0.1323853, 4.806, 1.091603, 4.806, 1.6564885, 4.806, -3.3282442
0.5662059, -0.0139315, 4.81275, -0.005188, 4.81275, -1.0067139, 4.81275, -0.1296997, 4.81275, 0.7938932, 4.81275, 1.6030535, 4.81275, -3.0458016
0.567, -0.0169528, 4.8195, -0.0058594, 4.8195, -1.0075073, 4.8195, -0.1294556, 4.8195, 0.7480916, 4.8195, 1.6335878, 4.8195, -3.2519083
0.5677941, -0.0142672, 4.82625, -0.003479, 4.82625, -1.0056152, 4.82625, -0.1346436, 4.82625, 0.8625954, 4.82625, 1.5419847, 4.82625, -3.2824428
0.5685882, -0.0115816, 4.833, -0.0050049, 4.833, -1.006958, 4.833, -0.1322021, 4.833, 1.038168, 4.833, 1.2900764, 4.833, -3.221374
0.5693824, -0.0092317, 4.83975, -0.0033569, 4.83975, -1.0082397, 4.83975, -0.1318359, 4.83975, 0.8625954, 4.83975, 1.0610687, 4.83975, -3.1221373
0.5701765, -0.0085603, 4.8465, 0.0006104, 4.8465, -1.0089111, 4.8465, -0.1351318, 4.8465, 0.9465649, 4.8465, 0.6946565, 4.8465, -3.2824428
0.5709706, -0.0125887, 4.85325, 0.0023193, 4.85325, -1.0070801, 4.85325, -0.1337891, 4.85325, 0.870229, 4.85325, 0.7175573, 4.85325, -3.389313
0.5717647, -0.0149386, 4.86, 0.0040894, 4.86, -1.005249, 4.86, -0.137207, 4.86, 1.0076336, 4.86, 0.7175573, 4.86, -3.1908398
0.5725588, -0.0137636, 4.86675, 0.0056152, 4.86675, -1.0043335, 4.86675, -0.1384888, 4.86675, 0.9007633, 4.86675, 0.8167939, 4.86675, -3.1832061
0.5733529, -0.0137636, 4.8735, -0.0001831, 4.8735, -1.0070801, 4.8735, -0.1377563, 4.8735, 0.9847328, 4.8735, 1.0534351, 4.8735, -3.2061069
0.5741471, -0.0063783, 4.88025, -0.001709, 4.88025, -1.0061646, 4.88025, -0.137207, 4.88025, 0.7328244, 4.88025, 1.3969465, 4.88025, -3.1984732
0.5749412, -0.0015106, 4.887, -0.0032349, 4.887, -1.0047607, 4.887, -0.133606, 4.887, 0.6717557, 4.887, 1.259542, 4.887, -3.2748091
0.5757353, 0.0003357, 4.89375, -0.0050049, 4.89375, -1.0092773, 4.89375, -0.1290894, 4.89375, 0.7480916, 4.89375, 1.1221374, 4.89375, -3.3435113
0.5765294, -0.0038605, 4.9005, -0.0037231, 4.9005, -1.0082397, 4.9005, -0.1300659, 4.9005, 0.8091603, 4.9005, 1.091603, 4.9005, -3.3358779
0.5773235, -0.008896, 4.90725, -0.0060425, 4.90725, -1.0102539, 4.90725, -0.1323853, 4.90725, 0.8854962, 4.90725, 0.6335878, 4.90725, -3.0610688
0.5781176, -0.0099031, 4.914, -0.0054932, 4.914, -1.0112915, 4.914, -0.1375732, 4.914, 0.9465649, 4.914, 0.4198473, 4.914, -3.2290077
0.5789118, -0.0115816, 4.92075, -0.0062256, 4.92075, -1.0057373, 4.92075, -0.1411743, 4.92075, 0.9694657, 4.92075, 0.3435115, 4.92075, -3.2061069
0.5797059, -0.01561, 4.9275, -0.0011597, 4.9275, -1.0056763, 4.9275, -0.1378174, 4.9275, 0.8625954, 4.9275, 0.2519084, 4.9275, -3.4045801
0.5805, -0.0172885, 4.93425, -0.0018311, 4.93425, -1.0056152, 4.93425, -0.1412964, 4.93425, 0.8320611, 4.93425, 0.2061069, 4.93425, -3.519084
0.5812941, -0.0162814, 4.941, -0.0030518, 4.941, -1.0070801, 4.941, -0.1411133, 4.941, 0.9770992, 4.941, 0.2366412, 4.941, -3.3587787
0.5820882, -0.0159457, 4.94775, -0.0022583, 4.94775, -1.008728, 4.94775, -0.1395874, 4.94775, 1.0763359, 4.94775, 0.1755725, 4.94775, -3.3206108
0.5828824, -0.01561, 4.9545, -0.0021362, 4.9545, -1.0056152, 4.9545, -0.1446533, 4.9545, 1.1755725, 4.9545, 0.1374046, 4.9545, -3.2900763
0.5836765, -0.0146029, 4.96125, 0.0014038, 4.96125, -1.0064697, 4.96125, -0.1470337, 4.96125, 1.0763359, 4.96125, 0.2824427, 4.96125, -3.5114503
0.5844706, -0.012253, 4.968, -0.0005493, 4.968, -1.0054932, 4.968, -0.1422729, 4.968, 1, 4.968, 0.4503817, 4.968, -3.4198472
0.5852647, -0.0169528, 4.97475, -0.0003662, 4.97475, -1.0065918, 4.97475, -0.1429443, 4.97475, 1.0992366, 4.97475, 0.389313, 4.97475, -3.5038168
0.5860588, -0.0193027, 4.9815, -0.0014648, 4.9815, -1.0083618, 4.9815, -0.1436768, 4.9815, 0.961832, 4.9815, 0.351145, 4.9815, -3.5419848
0.5868529, -0.0152743, 4.98825, -0.003479, 4.98825, -1.0067139, 4.98825, -0.137085, 4.98825, 0.9465649, 4.98825, 0.3358779, 4.98825, -3.5419848
0.5876471, -0.0187991, 4.995, -0.0015869, 4.995, -1.0080566, 4.995, -0.1351318, 4.995, 1.091603, 4.995, 0.3129771, 4.995, -3.5496182
0.5884412, -0.0199741, 5.00175, -0.0010376, 5.00175, -1.0079956, 5.00175, -0.1362305, 5.00175, 1.1832061, 5.00175, 0.2137405, 5.00175, -3.4580152
0.5892353, -0.0198062, 5.0085, -0.0067139, 5.0085, -1.0089111, 5.0085, -0.1356201, 5.0085, 1.3206106, 5.0085, 0.2519084, 5.0085, -3.5419848
0.5900294, -0.0206455, 5.01525, -0.0021973, 5.01525, -1.0075684, 5.01525, -0.1405029, 5.01525, 1.3740458, 5.01525, 0.2137405, 5.01525, -3.4198472
0.5908235, -0.0179599, 5.022, -0.0023193, 5.022, -1.0079956, 5.022, -0.1352539, 5.022, 1.2748091, 5.022, 0.1526718, 5.022, -3.5725191
0.5916176, -0.0182956, 5.02875, 0.0010376, 5.02875, -1.0092773, 5.02875, -0.1330566, 5.02875, 1.1984733, 5.02875, 0.1145038, 5.02875, -3.5954199
0.5924118, -0.0157778, 5.0355, 0.0025024, 5.0355, -1.0063477, 5.0355, -0.1325073, 5.0355, 1.221374, 5.0355, 0.2977099, 5.0355, -3.648855
0.5932059, -0.0135958, 5.04225, 0.0044556, 5.04225, -1.0042114, 5.04225, -0.1343994, 5.04225, 1.2366412, 5.04225, 0.1984733, 5.04225, -3.5419848
0.594, -0.012253, 5.049, 0.0046997, 5.049, -1.0033569, 5.049, -0.133667, 5.049, 1.2671756, 5.049, 0.259542, 5.049, -3.4351146
0.5947941, -0.0135958, 5.05575, 0.00354, 5.05575, -1.0049438, 5.05575, -0.1350098, 5.05575, 1.0992366, 5.05575, 0.4503817, 5.05575, -3.480916
0.5955882, -0.0142672, 5.0625, 0.0064697, 5.0625, -1.0077515, 5.0625, -0.1316528, 5.0625, 1.2061069, 5.0625, 0.3664122, 5.0625, -3.4122138
0.5963824, -0.0176242, 5.06925, 0.0065308, 5.06925, -1.0073242, 5.06925, -0.1359253, 5.06925, 1.2671756, 5.06925, 0.1603053, 5.06925, -3.6259542
0.5971765, -0.0146029, 5.076, 0.0039673, 5.076, -1.0084229, 5.076, -0.1356812, 5.076, 1.1908396, 5.076, 0.1984733, 5.076, -3.351145
0.5979706, -0.0135958, 5.08275, 0.0003052, 5.08275, -1.0075073, 5.08275, -0.1370239, 5.08275, 1.3358779, 5.08275, 0.3435115, 5.08275, -3.2824428
0.5987647, -0.0137636, 5.0895, 0.0019531, 5.0895, -1.0082397, 5.0895, -0.1340332, 5.0895, 1.1679389, 5.0895, 0.5419847, 5.0895, -3.3969467
0.5995588, -0.0176242, 5.09625, 0.00177, 5.09625, -1.0083618, 5.09625, -0.1337891, 5.09625, 1.091603, 5.09625, 0.6564885, 5.09625, -3.4732823
0.6003529, -0.01561, 5.103, 0.0023804, 5.103, -1.0065308, 5.103, -0.1364746, 5.103, 1.1145039, 5.103, 0.961832, 5.103, -3.3129771
0.6011471, -0.0151064, 5.10975, 0.0006104, 5.10975, -1.0101318, 5.10975, -0.1323242, 5.10975, 1.0076336, 5.10975, 0.7022901, 5.10975, -3.2977099
0.6019412, -0.0154421, 5.1165, 0.0023804, 5.1165, -1.0095825, 5.1165, -0.1401367, 5.1165, 1.0839695, 5.1165, 0.6183206, 5.1165, -3.3129771
0.6027353, -0.014435, 5.12325, 0.0005493, 5.12325, -1.0089111, 5.12325, -0.1380005, 5.12325, 0.7022901, 5.12325, 0.4885496, 5.12325, -3.2900763
0.6035294, -0.0154421, 5.13, 0.003479, 5.13, -1.0042114, 5.13, -0.1381226, 5.13, 0.8549618, 5.13, 0.6335878, 5.13, -3.5496182
0.6043235, -0.0164492, 5.13675, 0.0045166, 5.13675, -1.0038452, 5.13675, -0.1401978, 5.13675, 0.7862595, 5.13675, 0.7862595, 5.13675, -3.389313
0.6051176, -0.0152743, 5.1435, 0.001709, 5.1435, -1.0042725, 5.1435, -0.1365967, 5.1435, 0.7709923, 5.1435, 0.6946565, 5.1435, -3.3282442
0.6059118, -0.0167849, 5.15025, -0.0004272, 5.15025, -1.0073853, 5.15025, -0.1397705, 5.15025, 0.8015267, 5.15025, 1, 5.15025, -3.3358779
0.6067059, -0.0172885, 5.157, -0.0007935, 5.157, -1.005188, 5.157, -0.1397095, 5.157, 0.7557252, 5.157, 0.6412213, 5.157, -3.4580152
0.6075, -0.0176242, 5.16375, 0.0020142, 5.16375, -1.0046387, 5.16375, -0.1353149, 5.16375, 0.7557252, 5.16375, 0.7557252, 5.16375, -3.4656489
0.6082941, -0.0181277, 5.1705, 0.0003052, 5.1705, -1.003418, 5.1705, -0.135376, 5.1705, 0.8549618, 5.1705, 0.5954198, 5.1705, -3.3053436
0.6090882, -0.0176242, 5.17725, -0.0006104, 5.17725, -1.0056152, 5.17725, -0.1342773, 5.17725, 0.9694657, 5.17725, 0.648855, 5.17725, -3.351145
0.6098824, -0.0213169, 5.184, -0.001709, 5.184, -1.0077515, 5.184, -0.1356201, 5.184, 0.8625954, 5.184, 0.6259542, 5.184, -3.2748091
0.6106765, -0.0203098, 5.19075, 0.0002441, 5.19075, -1.0081787, 5.19075, -0.1331177, 5.19075, 0.9236641, 5.19075, 0.7251908, 5.19075, -3.2366412
0.6114706, -0.0258488, 5.1975, -0.0021362, 5.1975, -1.008667, 5.1975, -0.1350708, 5.1975, 1.038168, 5.1975, 0.6564885, 5.1975, -3.2290077
0.6122647, -0.0397803, 5.20425, 0.0030518, 5.20425, -1.0092163, 5.20425, -0.1351929, 5.20425, 1.038168, 5.20425, 0.3129771, 5.20425, -3.1755726
0.6130588, -0.0381018, 5.211, 0.0045166, 5.211, -1.0063477, 5.211, -0.1352539, 5.211, 0.8931298, 5.211, 0.3587786, 5.211, -3
0.6138529, -0.0360876, 5.21775, 0.008728, 5.21775, -1.0072021, 5.21775, -0.1359253, 5.21775, 1.1450381, 5.21775, 0.3816794, 5.21775, -2.9312978
0.6146471, -0.0344091, 5.2245, 0.0085449, 5.2245, -1.0054321, 5.2245, -0.1381836, 5.2245, 1.0229008, 5.2245, 0.4885496, 5.2245, -3.3129771
0.6154412, -0.0323949, 5.23125, 0.0067139, 5.23125, -1.0046997, 5.23125, -0.1389771, 5.23125, 0.9160305, 5.23125, 1.1145039, 5.23125, -3.0229008
0.6162353, -0.026688, 5.238, 0.0079346, 5.238, -1.0042725, 5.238, -0.1362915, 5.238, 1.0229008, 5.238, 1.2671756, 5.238, -2.908397
0.6170294, -0.023331, 5.24475, 0.0081177, 5.24475, -1.0076904, 5.24475, -0.1409912, 5.24475, 0.8396947, 5.24475, 1.3664122, 5.24475, -2.9465649
0.6178235, -0.0182956, 5.2515, 0.003418, 5.2515, -1.0082397, 5.2515, -0.1390381, 5.2515, 0.9160305, 5.2515, 1.4580153, 5.2515, -2.9541984
0.6186176, -0.0015106, 5.25825, -6.1E-05, 5.25825, -1.0056152, 5.25825, -0.1384277, 5.25825, 1.0763359, 5.25825, 1.4198474, 5.25825, -3.0152671
0.6194118, 0.0193027, 5.265, -0.0026855, 5.265, -1.007019, 5.265, -0.1383057, 5.265, 1.0534351, 5.265, 1.2290076, 5.265, -3.0610688
0.6202059, 0.0172885, 5.27175, -0.0011597, 5.27175, -1.0093384, 5.27175, -0.1401978, 5.27175, 1.091603, 5.27175, 1.2061069, 5.27175, -2.9236641
0.621, -0.0023499, 5.2785, -0.0046387, 5.2785, -1.0057373, 5.2785, -0.1365967, 5.2785, 1.1145039, 5.2785, 1.0763359, 5.2785, -2.9694657
0.6217941, -0.012253, 5.28525, -0.0037231, 5.28525, -1.0067139, 5.28525, -0.1387939, 5.28525, 1.1984733, 5.28525, 0.9770992, 5.28525, -2.9541984
0.6225882, -0.0132601, 5.292, -0.0038452, 5.292, -1.008728, 5.292, -0.1401978, 5.292, 1.1068702, 5.292, 1.0305344, 5.292, -3.0305343
0.6233824, -0.0139315, 5.29875, -0.0028076, 5.29875, -1.005249, 5.29875, -0.1401978, 5.29875, 1.1832061, 5.29875, 0.8778626, 5.29875, -2.9007633
0.6241765, -0.0127565, 5.3055, -0.0005493, 5.3055, -1.0055542, 5.3055, -0.1380615, 5.3055, 0.9312977, 5.3055, 0.870229, 5.3055, -3.1450381
0.6249706, -0.014435, 5.31225, -0.0010986, 5.31225, -1.0075684, 5.31225, -0.135376, 5.31225, 1.2824427, 5.31225, 0.5877863, 5.31225, -3.1755726
0.6257647, -0.0151064, 5.319, -0.0023193, 5.319, -1.0043335, 5.319, -0.1375122, 5.319, 0.9770992, 5.319, 0.480916, 5.319, -3.0152671
0.6265588, -0.0176242, 5.32575, 6.1E-05, 5.32575, -1.0025024, 5.32575, -0.1389771, 5.32575, 1.038168, 5.32575, 0.2900763, 5.32575, -3.1526718
0.6273529, -0.0196384, 5.3325, -0.0012207, 5.3325, -1.0061035, 5.3325, -0.1392212, 5.3325, 1, 5.3325, 0.4656489, 5.3325, -3.0534351
0.6281471, -0.0223239, 5.33925, 0.0019531, 5.33925, -1.0057373, 5.33925, -0.1389771, 5.33925, 0.9312977, 5.33925, 0.6183206, 5.33925, -3.0152671
0.6289412, -0.0206455, 5.346, 0.003479, 5.346, -1.0057983, 5.346, -0.1364136, 5.346, 0.8167939, 5.346, 0.6259542, 5.346, -2.9847329
0.6297353, -0.0194705, 5.35275, 0.0022583, 5.35275, -1.0050049, 5.35275, -0.1368408, 5.35275, 0.908397, 5.35275, 0.389313, 5.35275, -2.8320611
0.6305294, -0.0157778, 5.3595, 0.0029907, 5.3595, -1.0043335, 5.3595, -0.1372681, 5.3595, 0.9389313, 5.3595, 0.389313, 5.3595, -2.7709923
0.6313235, -0.0135958, 5.36625, 0.0033569, 5.36625, -1.0021973, 5.36625, -0.1382446, 5.36625, 0.7251908, 5.36625, 0.1908397, 5.36625, -2.8320611
0.6321176, -0.0125887, 5.373, -6.1E-05, 5.373, -1.0043335, 5.373, -0.1331177, 5.373, 0.8396947, 5.373, -0.0381679, 5.373, -2.7862597
0.6329118, -0.0137636, 5.37975, -0.0015259, 5.37975, -1.0066528, 5.37975, -0.1380005, 5.37975, 0.519084, 5.37975, -0.2061069, 5.37975, -2.8015268
0.6337059, -0.0142672, 5.3865, -0.0021973, 5.3865, -1.0076294, 5.3865, -0.1358643, 5.3865, 0.2824427, 5.3865, -0.5648855, 5.3865, -2.7862597
0.6345, -0.017792, 5.39325, -0.0064697, 5.39325, -1.0073853, 5.39325, -0.1360474, 5.39325, 0.3435115, 5.39325, -0.9236641, 5.39325, -2.5572519
0.6352941, -0.021149, 5.4, -0.0071411, 5.4, -1.0084229, 5.4, -0.1379395, 5.4, 0.1526718, 5.4, -0.9007633, 5.4, -2.740458
0.6360882, -0.0169528, 5.40675, -0.0136108, 5.40675, -1.0076904, 5.40675, -0.1411133, 5.40675, 0.3129771, 5.40675, -1.1068702, 5.40675, -2.778626
0.6368824, -0.018967, 5.4135, -0.0261841, 5.4135, -1.0018921, 5.4135, -0.1430054, 5.4135, 0.0687023, 5.4135, -2.038168, 5.4135, -2.961832
0.6376765, -0.0203098, 5.42025, -0.0140991, 5.42025, -1.0116577, 5.42025, -0.140564, 5.42025, -0.0610687, 5.42025, -3.3129771, 5.42025, -3.1603053
0.6384706, -0.0171206, 5.427, -0.0092163, 5.427, -1.0234985, 5.427, -0.1444702, 5.427, -0.1374046, 5.427, -3.8015268, 5.427, -3.4045801
0.6392647, -0.0196384, 5.43375, -0.0006714, 5.43375, -1.0134888, 5.43375, -0.1390381, 5.43375, 0.0916031, 5.43375, -4.3740458, 5.43375, -3.2366412
0.6400588, -0.0203098, 5.4405, 0.0114746, 5.4405, -1.0082397, 5.4405, -0.123291, 5.4405, 0.6183206, 5.4405, -3.5877862, 5.4405, -3.4274809
0.6408529, -0.0199741, 5.44725, 0.0074463, 5.44725, -1.0056152, 5.44725, -0.1281738, 5.44725, 0.5954198, 5.44725, -3.5954199, 5.44725, -3.5038168
0.6416471, -0.0164492, 5.454, 0.0005493, 5.454, -1.0076294, 5.454, -0.1383667, 5.454, 0.0763359, 5.454, -3.9847329, 5.454, -3.351145
0.6424412, -0.0157778, 5.46075, 0.001709, 5.46075, -1.0078735, 5.46075, -0.1369629, 5.46075, 0.0458015, 5.46075, -3.0763359, 5.46075, -3.351145
0.6432353, -0.0142672, 5.4675, 0.0068359, 5.4675, -1.0044556, 5.4675, -0.1299438, 5.4675, 0.1679389, 5.4675, -2.5114503, 5.4675, -3.3740458
0.6440294, -0.012253, 5.47425, 0.0155029, 5.47425, -1.0036621, 5.47425, -0.1252441, 5.47425, 0.2366412, 5.47425, -2.6793892, 5.47425, -3.2137403
0.6448235, -0.0139315, 5.481, 0.0154419, 5.481, -1.0021973, 5.481, -0.1204224, 5.481, 0.4656489, 5.481, -3.0305343, 5.481, -3.2061069
0.6456176, -0.0119173, 5.48775, 0.0108643, 5.48775, -1.0015259, 5.48775, -0.1218872, 5.48775, 0.4580153, 5.48775, -3.2900763, 5.48775, -2.8320611
0.6464118, -0.0109102, 5.4945, 0.0071411, 5.4945, -1.0009766, 5.4945, -0.1222534, 5.4945, 0.6946565, 5.4945, -3.3816793, 5.4945, -2.6412213
0.6472059, -0.0119173, 5.50125, 0.0097656, 5.50125, -1.0019531, 5.50125, -0.12854, 5.50125, 0.3587786, 5.50125, -2.9465649, 5.50125, -2.4503818
0.648, -0.0142672, 5.508, 0.0144653, 5.508, -1.0040894, 5.508, -0.130249, 5.508, -0.2290076, 5.508, -2.7862597, 5.508, -2.3129771
0.6487941, -0.0193027, 5.51475, 0.015564, 5.51475, -1.0005493, 5.51475, -0.1463013, 5.51475, -0.480916, 5.51475, -3.3282442, 5.51475, -2.1450381
0.6495882, -0.0157778, 5.5215, 0.0169067, 5.5215, -1.0038452, 5.5215, -0.1455078, 5.5215, -1.648855, 5.5215, -3.5267177, 5.5215, -1.9541985
0.6503824, -0.0102388, 5.52825, 0.0093384, 5.52825, -1.0046997, 5.52825, -0.1446533, 5.52825, -2.7480917, 5.52825, -3.8320611, 5.52825, -2.0458016
0.6511765, -0.0149386, 5.535, 0.0065918, 5.535, -1.0056763, 5.535, -0.1409912, 5.535, -3.8091602, 5.535, -4.5038166, 5.535, -2.0076337
0.6519706, -0.0146029, 5.54175, 0.0073242, 5.54175, -1.0112305, 5.54175, -0.1329346, 5.54175, -4.4732823, 5.54175, -4.6946564, 5.54175, -2.1832061
0.6527647, -0.0182956, 5.5485, 0.0090332, 5.5485, -1.0175781, 5.5485, -0.138855, 5.5485, -4.7175574, 5.5485, -3.9389312, 5.5485, -2.0076337
0.6535588, -0.0263523, 5.55525, 0.0097656, 5.55525, -1.0178833, 5.55525, -0.1387939, 5.55525, -4.5877862, 5.55525, -3.7480917, 5.55525, -2.0152671
0.6543529, -0.0176242, 5.562, 0.007019, 5.562, -1.0118408, 5.562, -0.1309814, 5.562, -4.4503818, 5.562, -3.9007633, 5.562, -2.091603
0.6551471, -0.0142672, 5.56875, 0.0142822, 5.56875, -0.9962158, 5.56875, -0.1353149, 5.56875, -4.3816795, 5.56875, -3.3587787, 5.56875, -1.778626
0.6559412, -0.0125887, 5.5755, 0.0132446, 5.5755, -0.9802856, 5.5755, -0.1287842, 5.5755, -4.0687022, 5.5755, -2.4732823, 5.5755, -1.480916
0.6567353, -0.0083925, 5.58225, 0.0136719, 5.58225, -0.9801636, 5.58225, -0.1206665, 5.58225, -3.9389312, 5.58225, -2.6412213, 5.58225, -1.3969465
0.6575294, -0.0109102, 5.589, 0.0057983, 5.589, -0.9841919, 5.589, -0.1191406, 5.589, -3.7862597, 5.589, -2.7862597, 5.589, -1.2671756
0.6583235, -0.0162814, 5.59575, 0.005249, 5.59575, -0.9854126, 5.59575, -0.1270752, 5.59575, -4.0916033, 5.59575, -3.0992367, 5.59575, -1.2366412
0.6591176, -0.0169528, 5.6025, 0.0071411, 5.6025, -0.9822998, 5.6025, -0.1240234, 5.6025, -4.3511453, 5.6025, -3.0305343, 5.6025, -0.870229
0.6599118, -0.01561, 5.60925, 0.0076294, 5.60925, -0.9838867, 5.60925, -0.1162109, 5.60925, -4.4198475, 5.60925, -3.4351146, 5.60925, -0.6183206
0.6607059, -0.0199741, 5.616, 0.022644, 5.616, -0.9957275, 5.616, -0.1151123, 5.616, -4.6412215, 5.616, -3.3435113, 5.616, -0.3587786
0.6615, -0.0224918, 5.62275, 0.0327759, 5.62275, -0.9935303, 5.62275, -0.1176758, 5.62275, -4.8167939, 5.62275, -2.9694657, 5.62275, -0.1221374
0.6622941, -0.0164492, 5.6295, 0.0372314, 5.6295, -0.989624, 5.6295, -0.1266479, 5.6295, -5.3129773, 5.6295, -2.4427481, 5.6295, 0.351145
0.6630882, -0.0119173, 5.63625, 0.0231323, 5.63625, -0.9920044, 5.63625, -0.1201172, 5.63625, -5.9389315, 5.63625, -1.648855, 5.63625, 0.4503817
0.6638824, -0.0109102, 5.643, 0.0028687, 5.643, -0.9991455, 5.643, -0.128479, 5.643, -6.2748094, 5.643, -1.5801526, 5.643, 0.5572519
0.6646765, -0.0085603, 5.64975, -0.0117798, 5.64975, -1.0048828, 5.64975, -0.1305542, 5.64975, -7.2977099, 5.64975, -1, 5.64975, 0.7938932
0.6654706, -0.0065461, 5.6565, -0.0187378, 5.6565, -1.0066528, 5.6565, -0.1265259, 5.6565, -8.0610685, 5.6565, -1.129771, 5.6565, 0.8396947
0.6662647, -0.0075532, 5.66325, -0.0300293, 5.66325, -1.0050049, 5.66325, -0.1340332, 5.66325, -8.5954199, 5.66325, -2.1832061, 5.66325, 0.740458
0.6670588, -0.0095674, 5.67, -0.0340576, 5.67, -1.0117798, 5.67, -0.1464844, 5.67, -9.0076332, 5.67, -3.4732823, 5.67, 0.5801527
0.6678529, -0.0072175, 5.67675, -0.0359497, 5.67675, -1.0147095, 5.67675, -0.151001, 5.67675, -8.8320608, 5.67675, -3.6183207, 5.67675, 0.7251908
0.6686471, -0.0085603, 5.6835, -0.0303345, 5.6835, -1.0131226, 5.6835, -0.1546631, 5.6835, -8.6030531, 5.6835, -3.8320611, 5.6835, 0.6641222
0.6694412, -0.0097353, 5.69025, -0.0241699, 5.69025, -1.0075073, 5.69025, -0.1473999, 5.69025, -8.6717558, 5.69025, -4.0763359, 5.69025, 0.5648855
0.6702353, -0.0112459, 5.697, -0.0153198, 5.697, -1.0036011, 5.697, -0.1342163, 5.697, -8.3893127, 5.697, -3.6870229, 5.697, 0.6793893
0.6710294, -0.0095674, 5.70375, -0.008728, 5.70375, -0.9995117, 5.70375, -0.1275635, 5.70375, -8.0916033, 5.70375, -3.5725191, 5.70375, 0.5954198
0.6718235, -0.0129244, 5.7105, -0.0013428, 5.7105, -0.9993896, 5.7105, -0.1376953, 5.7105, -8.320611, 5.7105, -3.1984732, 5.7105, 0.7480916
0.6726176, -0.0124208, 5.71725, 0.003418, 5.71725, -0.9788818, 5.71725, -0.1567383, 5.71725, -8.7557249, 5.71725, -3.2442749, 5.71725, 1.0992366
0.6734118, -0.012253, 5.724, 0.039917, 5.724, -1.0591431, 5.724, -0.0634766, 5.724, -24.7022896, 5.724, -14.7557249, 5.724, 2.961832
0.6742059, -0.0142672, 5.73075, -0.0042114, 5.73075, -0.9802246, 5.73075, -0.1938477, 5.73075, -10.3435116, 5.73075, -2.6259542, 5.73075, 0.9312977
0.675, -0.0135958, 5.7375, -0.0345459, 5.7375, -1.0057983, 5.7375, -0.1364746, 5.7375, -10.8549614, 5.7375, -2.6793892, 5.7375, 0.519084
0.6757941, -0.0157778, 5.74425, -0.0362549, 5.74425, -1.0093994, 5.74425, -0.1348877, 5.74425, -10.4656487, 5.74425, -2.5801528, 5.74425, 0.6259542
0.6765882, -0.0176242, 5.751, -0.0368042, 5.751, -0.9995728, 5.751, -0.1763306, 5.751, -10.5725193, 5.751, -3.4580152, 5.751, 0.7175573
