Application:, Trigno Discover (1.7.0)
Date/Time:, 2026/9/9 下午 03:12:01
Collection Length (seconds):, 112.131
Avanti Sensor 11 (69574)
sensor mode: 50
EMG 1 Time Series (s), EMG 1 (mV), ACC X Time Series (s), ACC X (G), ACC Y Time Series (s), ACC Y (G), ACC Z Time Series (s), ACC Z (G), GYRO X Time Series (s), GYRO X (deg/s), GYRO Y Time Series (s), GYRO Y (deg/s), GYRO Z Time Series (s), GYRO Z (deg/s)
, 1259.2593 Hz, , 148.1481 Hz, , 148.1481 Hz, , 148.1481 Hz, , 148.1481 Hz, , 148.1481 Hz, , 148.1481 Hz
0, -0.012253, 0, 0.0129395, 0, -1.0066528, 0, -0.1564331, 0, 0.9541985, 0, 0.7480916, 0, -4.0534353
0.0007941, -0.012253, 0.00675, 0.0178223, 0.00675, -1.0061035, 0.00675, -0.1606445, 0.00675, 0.7480916, 0.00675, 0.8473282, 0.00675, -4.0229006
0.0015882, -0.0142672, 0.0135, 0.0162354, 0.0135, -1.0028076, 0.0135, -0.1575928, 0.0135, 0.7480916, 0.0135, 1.0152671, 0.0135, -4.0916033
0.0023824, -0.0176242, 0.02025, 0.0178833, 0.02025, -1.0061035, 0.02025, -0.1625366, 0.02025, 0.8320611, 0.02025, 0.8320611, 0.02025, -3.870229
0.0031765, -0.0193027, 0.027, 0.0166016, 0.027, -1.0081787, 0.027, -0.1607056, 0.027, 0.9312977, 0.027, 0.8854962, 0.027, -4.0687022
0.0039706, -0.0152743, 0.03375, 0.0171509, 0.03375, -1.0027466, 0.03375, -0.1612549, 0.03375, 0.7633588, 0.03375, 0.9007633, 0.03375, -4.0992365
0.0047647, -0.0129244, 0.0405, 0.0194702, 0.0405, -1.0072021, 0.0405, -0.1605835, 0.0405, 0.8091603, 0.0405, 1.221374, 0.0405, -4.0229006
0.0055588, -0.0159457, 0.04725, 0.0169067, 0.04725, -1.0047607, 0.04725, -0.1607056, 0.04725, 0.9160305, 0.04725, 1.0610687, 0.04725, -3.9694657
0.0063529, -0.0181277, 0.054, 0.0187988, 0.054, -1.0062866, 0.054, -0.1599731, 0.054, 0.8778626, 0.054, 1.2137405, 0.054, -3.9847329
0.0071471, -0.0169528, 0.06075, 0.0202026, 0.06075, -1.0075684, 0.06075, -0.1611328, 0.06075, 0.9389313, 0.06075, 1.1450381, 0.06075, -4.0076337
0.0079412, -0.0162814, 0.0675, 0.0232544, 0.0675, -1.0075684, 0.0675, -0.1642456, 0.0675, 1.0076336, 0.0675, 1.0839695, 0.0675, -3.9694657
0.0087353, -0.0112459, 0.07425, 0.0214233, 0.07425, -1.008667, 0.07425, -0.163269, 0.07425, 1.0229008, 0.07425, 1.2061069, 0.07425, -3.870229
0.0095294, -0.0095674, 0.081, 0.020752, 0.081, -1.0049438, 0.081, -0.1630859, 0.081, 1.091603, 0.081, 1.3129771, 0.081, -4.0305343
0.0103235, -0.0085603, 0.08775, 0.0184937, 0.08775, -1.0066528, 0.08775, -0.1616211, 0.08775, 1.1526718, 0.08775, 1.2061069, 0.08775, -4.0839696
0.0111176, -0.0092317, 0.0945, 0.0184326, 0.0945, -1.0039062, 0.0945, -0.1609497, 0.0945, 1.259542, 0.0945, 1.3587786, 0.0945, -4.1450381
0.0119118, -0.0095674, 0.10125, 0.020752, 0.10125, -1.0039673, 0.10125, -0.1639404, 0.10125, 1.3435115, 0.10125, 0.9923664, 0.10125, -4.1450381
0.0127059, -0.0085603, 0.108, 0.0183716, 0.108, -1.0040894, 0.108, -0.1612549, 0.108, 1.3664122, 0.108, 0.8167939, 0.108, -4.2290077
0.0135, -0.0058747, 0.11475, 0.0204468, 0.11475, -1.0039062, 0.11475, -0.1630249, 0.11475, 1.389313, 0.11475, 0.8320611, 0.11475, -4.0076337
0.0142941, -0.008896, 0.1215, 0.0202637, 0.1215, -1.0056152, 0.1215, -0.1643677, 0.1215, 1.3129771, 0.1215, 0.9770992, 0.1215, -4.1374044
0.0150882, -0.0065461, 0.12825, 0.0199585, 0.12825, -1.0079956, 0.12825, -0.1582031, 0.12825, 1.3358779, 0.12825, 0.8854962, 0.12825, -4.2671757
0.0158824, -0.0082246, 0.135, 0.0198975, 0.135, -1.0054321, 0.135, -0.1575928, 0.135, 1.4198474, 0.135, 0.8473282, 0.135, -4.1603055
0.0166765, -0.0146029, 0.14175, 0.019104, 0.14175, -1.0084839, 0.14175, -0.1554565, 0.14175, 1.4427481, 0.14175, 0.6946565, 0.14175, -3.8244274
0.0174706, -0.0159457, 0.1485, 0.0206909, 0.1485, -1.008728, 0.1485, -0.154541, 0.1485, 1.5954199, 0.1485, 0.7328244, 0.1485, -3.9465649
0.0182647, -0.0151064, 0.15525, 0.0211792, 0.15525, -1.0089722, 0.15525, -0.1553345, 0.15525, 1.3816794, 0.15525, 0.8625954, 0.15525, -3.9847329
0.0190588, -0.0104067, 0.162, 0.0209351, 0.162, -1.0050659, 0.162, -0.152771, 0.162, 1.5419847, 0.162, 0.9312977, 0.162, -4.0076337
0.0198529, -0.0112459, 0.16875, 0.0182495, 0.16875, -1.0042114, 0.16875, -0.1521606, 0.16875, 1.3358779, 0.16875, 0.648855, 0.16875, -3.9312978
0.0206471, -0.0125887, 0.1755, 0.0198975, 0.1755, -1.0066528, 0.1755, -0.1532593, 0.1755, 1.3664122, 0.1755, 0.6183206, 0.1755, -4.1450381
0.0214412, -0.012253, 0.18225, 0.0194702, 0.18225, -1.0044556, 0.18225, -0.1480103, 0.18225, 1.1984733, 0.18225, 0.5648855, 0.18225, -3.9541984
0.0222353, -0.0135958, 0.189, 0.0153809, 0.189, -1.0046387, 0.189, -0.1513672, 0.189, 1.2519084, 0.189, 0.4274809, 0.189, -3.9770992
0.0230294, -0.0132601, 0.19575, 0.0170288, 0.19575, -1.0054321, 0.19575, -0.1488647, 0.19575, 1.0687023, 0.19575, 0.0534351, 0.19575, -4.1679387
0.0238235, -0.012253, 0.2025, 0.0170288, 0.2025, -1.0032959, 0.2025, -0.1506958, 0.2025, 0.9389313, 0.2025, 0, 0.2025, -4.0763359
0.0246176, -0.0095674, 0.20925, 0.0212402, 0.20925, -1.0061035, 0.20925, -0.1531982, 0.20925, 0.9694657, 0.20925, -0.0916031, 0.20925, -4.1221375
0.0254118, -0.0095674, 0.216, 0.0221558, 0.216, -1.0056763, 0.216, -0.1507568, 0.216, 0.7938932, 0.216, 0.1755725, 0.216, -4.2442746
0.0262059, -0.0129244, 0.22275, 0.0221558, 0.22275, -1.0055542, 0.22275, -0.1553955, 0.22275, 0.778626, 0.22275, 0.2824427, 0.22275, -4.0229006
0.027, -0.0169528, 0.2295, 0.0239258, 0.2295, -1.0053101, 0.2295, -0.15448, 0.2295, 0.5725191, 0.2295, 0.3053435, 0.2295, -4.2061067
0.0277941, -0.01561, 0.23625, 0.0209351, 0.23625, -1.0084839, 0.23625, -0.1530762, 0.23625, 0.6870229, 0.23625, 0.4580153, 0.23625, -4.1068702
0.0285882, -0.0152743, 0.243, 0.0203247, 0.243, -1.0063477, 0.243, -0.1514282, 0.243, 0.6946565, 0.243, 0.610687, 0.243, -4.2137403
0.0293824, -0.0125887, 0.24975, 0.0214844, 0.24975, -1.0040894, 0.24975, -0.1550903, 0.24975, 0.5725191, 0.24975, 0.7328244, 0.24975, -4.038168
0.0301765, -0.0117494, 0.2565, 0.0224609, 0.2565, -1.0042114, 0.2565, -0.1580811, 0.2565, 0.4351145, 0.2565, 0.5267175, 0.2565, -4.0458016
0.0309706, -0.0139315, 0.26325, 0.022644, 0.26325, -1.0047607, 0.26325, -0.1610718, 0.26325, 0.6183206, 0.26325, 0.5496183, 0.26325, -4.0534353
0.0317647, -0.0112459, 0.27, 0.0266113, 0.27, -1.0065308, 0.27, -0.1605225, 0.27, 0.4045801, 0.27, 0.7480916, 0.27, -4.0152674
0.0325588, -0.011078, 0.27675, 0.0249023, 0.27675, -1.005188, 0.27675, -0.161377, 0.27675, 0.5725191, 0.27675, 0.8778626, 0.27675, -4.0992365
0.0333529, -0.0152743, 0.2835, 0.027771, 0.2835, -1.0039673, 0.2835, -0.1594849, 0.2835, 0.6335878, 0.2835, 0.9694657, 0.2835, -4.0305343
0.0341471, -0.0184634, 0.29025, 0.0252075, 0.29025, -1.00177, 0.29025, -0.1571045, 0.29025, 0.5419847, 0.29025, 0.9389313, 0.29025, -4.1374044
0.0349412, -0.0166171, 0.297, 0.0239868, 0.297, -1.006897, 0.297, -0.1616211, 0.297, 0.5801527, 0.297, 0.7480916, 0.297, -3.9847329
0.0357353, -0.0196384, 0.30375, 0.0231934, 0.30375, -1.0094604, 0.30375, -0.1590576, 0.30375, 0.5954198, 0.30375, 0.8244275, 0.30375, -3.9847329
0.0365294, -0.0176242, 0.3105, 0.0227661, 0.3105, -1.0068359, 0.3105, -0.1586304, 0.3105, 0.4885496, 0.3105, 0.6183206, 0.3105, -3.8473282
0.0373235, -0.0209812, 0.31725, 0.0231934, 0.31725, -1.00177, 0.31725, -0.1571045, 0.31725, 0.4885496, 0.31725, 0.648855, 0.31725, -3.8473282
0.0381176, -0.0223239, 0.324, 0.0209351, 0.324, -1.0025024, 0.324, -0.1560669, 0.324, 0.3282443, 0.324, 0.5648855, 0.324, -4.038168
0.0389118, -0.0209812, 0.33075, 0.0218506, 0.33075, -1.005188, 0.33075, -0.1578369, 0.33075, 0.5038168, 0.33075, 0.351145, 0.33075, -4
0.0397059, -0.0198062, 0.3375, 0.020813, 0.3375, -1.0062866, 0.3375, -0.1586914, 0.3375, 0.5725191, 0.3375, 0.2290076, 0.3375, -3.9847329
0.0405, -0.0229953, 0.34425, 0.0229492, 0.34425, -1.0043335, 0.34425, -0.1589355, 0.34425, 0.4961832, 0.34425, 0.3129771, 0.34425, -3.908397
0.0412941, -0.0176242, 0.351, 0.0236816, 0.351, -1.0030518, 0.351, -0.1574097, 0.351, 0.6870229, 0.351, 0.1603053, 0.351, -3.9465649
0.0420882, -0.0151064, 0.35775, 0.0241089, 0.35775, -1.0036011, 0.35775, -0.1603394, 0.35775, 0.5725191, 0.35775, 0.3206107, 0.35775, -3.961832
0.0428824, -0.0159457, 0.3645, 0.0239258, 0.3645, -1.0026855, 0.3645, -0.1618042, 0.3645, 0.5572519, 0.3645, 0.3129771, 0.3645, -3.9923663
0.0436765, -0.0135958, 0.37125, 0.026123, 0.37125, -1.0043945, 0.37125, -0.1639404, 0.37125, 0.6564885, 0.37125, 0.4427481, 0.37125, -4.0687022
0.0444706, -0.0115816, 0.378, 0.0276489, 0.378, -1.0044556, 0.378, -0.164856, 0.378, 0.7099237, 0.378, 0.5267175, 0.378, -3.8931298
0.0452647, -0.0142672, 0.38475, 0.0256958, 0.38475, -1.0061646, 0.38475, -0.1636963, 0.38475, 0.6793893, 0.38475, 0.610687, 0.38475, -4.0229006
0.0460588, -0.012253, 0.3915, 0.0258179, 0.3915, -1.0030518, 0.3915, -0.1688843, 0.3915, 0.7938932, 0.3915, 0.6717557, 0.3915, -3.9236641
0.0468529, -0.0115816, 0.39825, 0.0264893, 0.39825, -1.0032349, 0.39825, -0.1693726, 0.39825, 1.0534351, 0.39825, 0.5801527, 0.39825, -3.7862597
0.0476471, -0.0125887, 0.405, 0.0265503, 0.405, -1.0041504, 0.405, -0.1689453, 0.405, 1, 0.405, 0.6564885, 0.405, -3.9465649
0.0484412, -0.0139315, 0.41175, 0.0283813, 0.41175, -1.0063477, 0.41175, -0.1693115, 0.41175, 1.2977099, 0.41175, 0.870229, 0.41175, -3.8015268
0.0492353, -0.0176242, 0.4185, 0.0258179, 0.4185, -1.0049438, 0.4185, -0.1693115, 0.4185, 1.2900764, 0.4185, 1.1450381, 0.4185, -3.7633588
0.0500294, -0.0164492, 0.42525, 0.0278931, 0.42525, -1.0074463, 0.42525, -0.1688232, 0.42525, 1.480916, 0.42525, 1.0534351, 0.42525, -3.7862597
0.0508235, -0.0179599, 0.432, 0.0262451, 0.432, -1.007019, 0.432, -0.1705322, 0.432, 1.519084, 0.432, 1.1450381, 0.432, -3.6030533
0.0516176, -0.0213169, 0.43875, 0.0275879, 0.43875, -1.0076904, 0.43875, -0.1665039, 0.43875, 1.5343511, 0.43875, 1.129771, 0.43875, -3.5725191
0.0524118, -0.0219883, 0.4455, 0.0311279, 0.4455, -1.0063477, 0.4455, -0.1668091, 0.4455, 1.5954199, 0.4455, 1.129771, 0.4455, -3.5038168
0.0532059, -0.0176242, 0.45225, 0.0281372, 0.45225, -1.008667, 0.45225, -0.1622925, 0.45225, 1.6870229, 0.45225, 0.9923664, 0.45225, -3.5419848
0.054, -0.018967, 0.459, 0.0282593, 0.459, -1.0064087, 0.459, -0.1616821, 0.459, 1.8778626, 0.459, 0.870229, 0.459, -3.6183207
0.0547941, -0.0182956, 0.46575, 0.0262451, 0.46575, -1.0063477, 0.46575, -0.1601562, 0.46575, 1.9694656, 0.46575, 0.7251908, 0.46575, -3.6641221
0.0555882, -0.0129244, 0.4725, 0.0270996, 0.4725, -1.0055542, 0.4725, -0.1608887, 0.4725, 1.9770992, 0.4725, 0.5648855, 0.4725, -3.778626
0.0563824, -0.0115816, 0.47925, 0.0263672, 0.47925, -1.0054321, 0.47925, -0.1589355, 0.47925, 2.0610688, 0.47925, 0.4656489, 0.47925, -3.740458
0.0571765, -0.0149386, 0.486, 0.0247192, 0.486, -1.0095825, 0.486, -0.1602783, 0.486, 2.0229008, 0.486, 0.5114504, 0.486, -3.7709923
0.0579706, -0.0149386, 0.49275, 0.0235596, 0.49275, -1.0037231, 0.49275, -0.1589355, 0.49275, 1.9160305, 0.49275, 0.610687, 0.49275, -3.5648854
0.0587647, -0.0109102, 0.4995, 0.0211792, 0.4995, -1.0056763, 0.4995, -0.1553955, 0.4995, 2.0152671, 0.4995, 0.7328244, 0.4995, -3.6641221
0.0595588, -0.0112459, 0.50625, 0.0227661, 0.50625, -1.0045166, 0.50625, -0.1564331, 0.50625, 1.9541985, 0.50625, 0.870229, 0.50625, -3.6870229
0.0603529, -0.0149386, 0.513, 0.0218506, 0.513, -1.0042114, 0.513, -0.1537476, 0.513, 1.8931298, 0.513, 0.8854962, 0.513, -3.7633588
0.0611471, -0.0135958, 0.51975, 0.0253296, 0.51975, -1.0037842, 0.51975, -0.15448, 0.51975, 1.6870229, 0.51975, 1.129771, 0.51975, -3.648855
0.0619412, -0.0102388, 0.5265, 0.026123, 0.5265, -1.0036011, 0.5265, -0.1534424, 0.5265, 1.7709924, 0.5265, 1.0610687, 0.5265, -3.648855
0.0627353, -0.0075532, 0.53325, 0.0210571, 0.53325, -1.0028687, 0.53325, -0.1524048, 0.53325, 1.778626, 0.53325, 1.221374, 0.53325, -3.5877862
0.0635294, -0.0095674, 0.54, 0.0235596, 0.54, -1.0059814, 0.54, -0.1480713, 0.54, 1.3816794, 0.54, 1.3282443, 0.54, -3.4198472
0.0643235, -0.0095674, 0.54675, 0.0249023, 0.54675, -1.0053711, 0.54675, -0.151062, 0.54675, 1.3969465, 0.54675, 1.2290076, 0.54675, -3.4198472
0.0651176, -0.0097353, 0.5535, 0.024353, 0.5535, -1.0040283, 0.5535, -0.1472168, 0.5535, 1.4351145, 0.5535, 0.9770992, 0.5535, -3.6335878
0.0659118, -0.008896, 0.56025, 0.0244141, 0.56025, -1.0061646, 0.56025, -0.149292, 0.56025, 1.221374, 0.56025, 0.9160305, 0.56025, -3.5496182
0.0667059, -0.0149386, 0.567, 0.0249634, 0.567, -1.0060425, 0.567, -0.149231, 0.567, 1.1145039, 0.567, 0.7633588, 0.567, -3.5877862
0.0675, -0.0137636, 0.57375, 0.0256958, 0.57375, -1.0059204, 0.57375, -0.1483154, 0.57375, 1.1068702, 0.57375, 0.5419847, 0.57375, -3.5725191
0.0682941, -0.0109102, 0.5805, 0.0257568, 0.5805, -1.0050659, 0.5805, -0.1525269, 0.5805, 1.0229008, 0.5805, 0.4351145, 0.5805, -3.6793892
0.0690882, -0.01561, 0.58725, 0.0255737, 0.58725, -1.0088501, 0.58725, -0.1546021, 0.58725, 0.9541985, 0.58725, 0.4351145, 0.58725, -3.6335878
0.0698824, -0.018967, 0.594, 0.0271606, 0.594, -1.0064697, 0.594, -0.1571045, 0.594, 0.9694657, 0.594, 0.4961832, 0.594, -3.6030533
0.0706765, -0.0169528, 0.60075, 0.0272217, 0.60075, -1.0042725, 0.60075, -0.1591797, 0.60075, 1.1526718, 0.60075, 0.6412213, 0.60075, -3.5419848
0.0714706, -0.0181277, 0.6075, 0.0258179, 0.6075, -1.003479, 0.6075, -0.1570435, 0.6075, 1.1068702, 0.6075, 0.7099237, 0.6075, -3.7480917
0.0722647, -0.0196384, 0.61425, 0.0236206, 0.61425, -1.0025635, 0.61425, -0.1568604, 0.61425, 1.0610687, 0.61425, 0.5038168, 0.61425, -3.4732823
0.0730588, -0.0181277, 0.621, 0.0253296, 0.621, -1.0045776, 0.621, -0.1553955, 0.621, 1.1450381, 0.621, 0.6030535, 0.621, -3.4274809
0.0738529, -0.0199741, 0.62775, 0.0248413, 0.62775, -1.0042725, 0.62775, -0.1577148, 0.62775, 1.0763359, 0.62775, 0.5267175, 0.62775, -3.4351146
0.0746471, -0.0216526, 0.6345, 0.0274048, 0.6345, -1.0063477, 0.6345, -0.1553955, 0.6345, 1.1832061, 0.6345, 0.5725191, 0.6345, -3.4503818
0.0754412, -0.0187991, 0.64125, 0.0287476, 0.64125, -1.0060425, 0.64125, -0.156189, 0.64125, 1.0229008, 0.64125, 0.6259542, 0.64125, -3.3816793
0.0762353, -0.0219883, 0.648, 0.0264893, 0.648, -1.0046387, 0.648, -0.1602783, 0.648, 1.0458015, 0.648, 0.778626, 0.648, -3.389313
0.0770294, -0.0196384, 0.65475, 0.0269775, 0.65475, -1.0031128, 0.65475, -0.1595459, 0.65475, 1.1755725, 0.65475, 0.6793893, 0.65475, -3.4274809
0.0778235, -0.0216526, 0.6615, 0.0256348, 0.6615, -1.0070801, 0.6615, -0.1576538, 0.6615, 1.129771, 0.6615, 0.7328244, 0.6615, -3.4045801
0.0786176, -0.0193027, 0.66825, 0.0270386, 0.66825, -1.0027466, 0.66825, -0.1560669, 0.66825, 1.2824427, 0.66825, 0.7175573, 0.66825, -3.3129771
0.0794118, -0.0201419, 0.675, 0.0278931, 0.675, -1.0029297, 0.675, -0.1567383, 0.675, 1.0152671, 0.675, 0.8015267, 0.675, -3.2061069
0.0802059, -0.0198062, 0.68175, 0.0281982, 0.68175, -1.005249, 0.68175, -0.1574707, 0.68175, 1.0687023, 0.68175, 0.5725191, 0.68175, -3.2442749
0.081, -0.0204776, 0.6885, 0.0307617, 0.6885, -1.0050049, 0.6885, -0.1578369, 0.6885, 1.1526718, 0.6885, 0.7709923, 0.6885, -3.2442749
0.0817941, -0.018967, 0.69525, 0.0271606, 0.69525, -1.0053711, 0.69525, -0.1576538, 0.69525, 1.2519084, 0.69525, 0.648855, 0.69525, -3.129771
0.0825882, -0.0193027, 0.702, 0.0268555, 0.702, -1.00354, 0.702, -0.1571045, 0.702, 1.2671756, 0.702, 0.6641222, 0.702, -3.2137403
0.0833824, -0.0246738, 0.70875, 0.0228271, 0.70875, -1.0055542, 0.70875, -0.1560059, 0.70875, 1.1068702, 0.70875, 0.6717557, 0.70875, -3.1755726
0.0841765, -0.0219883, 0.7155, 0.0231323, 0.7155, -1.0042725, 0.7155, -0.1555786, 0.7155, 1.0610687, 0.7155, 0.8320611, 0.7155, -3.2824428
0.0849706, -0.018967, 0.72225, 0.0246582, 0.72225, -1.0070801, 0.72225, -0.1558838, 0.72225, 1.1908396, 0.72225, 0.7175573, 0.72225, -3.3358779
0.0857647, -0.018967, 0.729, 0.026001, 0.729, -1.0064087, 0.729, -0.1589966, 0.729, 1.2137405, 0.729, 0.6412213, 0.729, -3.1145039
0.0865588, -0.0203098, 0.73575, 0.0265503, 0.73575, -1.0058594, 0.73575, -0.1581421, 0.73575, 1.221374, 0.73575, 0.6717557, 0.73575, -3.221374
0.0873529, -0.0229953, 0.7425, 0.0256348, 0.7425, -1.0076904, 0.7425, -0.1569824, 0.7425, 1.1068702, 0.7425, 0.8320611, 0.7425, -3.1526718
0.0881471, -0.0229953, 0.74925, 0.026001, 0.74925, -1.0061035, 0.74925, -0.1591187, 0.74925, 1.1755725, 0.74925, 0.7862595, 0.74925, -3.1603053
0.0889412, -0.0203098, 0.756, 0.0263062, 0.756, -1.0037842, 0.756, -0.1572266, 0.756, 1.0839695, 0.756, 1.0610687, 0.756, -3.0839694
0.0897353, -0.018967, 0.76275, 0.0235596, 0.76275, -1.0037842, 0.76275, -0.1534424, 0.76275, 1.1450381, 0.76275, 1.0534351, 0.76275, -3.2137403
0.0905294, -0.0186313, 0.7695, 0.0245972, 0.7695, -1.0067749, 0.7695, -0.1531372, 0.7695, 1.2061069, 0.7695, 1.0839695, 0.7695, -3.091603
0.0913235, -0.0186313, 0.77625, 0.0241699, 0.77625, -1.0042114, 0.77625, -0.1540527, 0.77625, 1.2290076, 0.77625, 0.8854962, 0.77625, -3.1679389
0.0921176, -0.0142672, 0.783, 0.0275269, 0.783, -1.0046387, 0.783, -0.1514282, 0.783, 1.1832061, 0.783, 1.0610687, 0.783, -3.1755726
0.0929118, -0.0129244, 0.78975, 0.0264282, 0.78975, -1.0041504, 0.78975, -0.152771, 0.78975, 1.1221374, 0.78975, 1.0152671, 0.78975, -3.2824428
0.0937059, -0.0109102, 0.7965, 0.0269775, 0.7965, -1.0055542, 0.7965, -0.1532593, 0.7965, 0.961832, 0.7965, 0.870229, 0.7965, -3.1374047
0.0945, -0.0082246, 0.80325, 0.0237427, 0.80325, -1.0056152, 0.80325, -0.1568604, 0.80325, 0.8320611, 0.80325, 0.6793893, 0.80325, -3.1145039
0.0952941, -0.0068818, 0.81, 0.0215454, 0.81, -1.0071411, 0.81, -0.1546021, 0.81, 1.0992366, 0.81, 0.5725191, 0.81, -3.2366412
0.0960882, -0.008896, 0.81675, 0.0272827, 0.81675, -1.0046997, 0.81675, -0.1569214, 0.81675, 1.1450381, 0.81675, 0.2977099, 0.81675, -3.1908398
0.0968824, -0.0082246, 0.8235, 0.0244751, 0.8235, -1.0018311, 0.8235, -0.1577759, 0.8235, 1.0458015, 0.8235, 0.3435115, 0.8235, -2.9770992
0.0976765, -0.0070497, 0.83025, 0.0271606, 0.83025, -1.0014648, 0.83025, -0.1574707, 0.83025, 1.1145039, 0.83025, 0.2366412, 0.83025, -3.2061069
0.0984706, -0.0058747, 0.837, 0.0300903, 0.837, -1.0040894, 0.837, -0.1605225, 0.837, 1.2442749, 0.837, 0.3587786, 0.837, -3.351145
0.0992647, -0.0075532, 0.84375, 0.0303345, 0.84375, -1.0050659, 0.84375, -0.1628418, 0.84375, 1.129771, 0.84375, 0.3282443, 0.84375, -3.129771
0.1000588, -0.008896, 0.8505, 0.0288696, 0.8505, -1.0066528, 0.8505, -0.1628418, 0.8505, 1.1984733, 0.8505, 0.8167939, 0.8505, -3.0610688
0.1008529, -0.0102388, 0.85725, 0.0304565, 0.85725, -1.0061035, 0.85725, -0.1604004, 0.85725, 1.3129771, 0.85725, 0.6717557, 0.85725, -3.1145039
0.1016471, -0.008896, 0.864, 0.0268555, 0.864, -1.0062256, 0.864, -0.1593018, 0.864, 1.2748091, 0.864, 0.908397, 0.864, -2.9312978
0.1024412, -0.0124208, 0.87075, 0.0241699, 0.87075, -1.0060425, 0.87075, -0.1566772, 0.87075, 1.389313, 0.87075, 1.1145039, 0.87075, -3.0305343
0.1032353, -0.0135958, 0.8775, 0.0245972, 0.8775, -1.0028687, 0.8775, -0.1574097, 0.8775, 1.2977099, 0.8775, 0.8854962, 0.8775, -3.1221373
0.1040294, -0.0159457, 0.88425, 0.0228271, 0.88425, -1.0050659, 0.88425, -0.1583252, 0.88425, 1.4274809, 0.88425, 0.7938932, 0.88425, -3.038168
0.1048235, -0.0162814, 0.891, 0.0244141, 0.891, -1.0062256, 0.891, -0.1582031, 0.891, 1.4503816, 0.891, 0.5648855, 0.891, -3.2900763
0.1056176, -0.0182956, 0.89775, 0.0236816, 0.89775, -1.0072021, 0.89775, -0.1570435, 0.89775, 1.4580153, 0.89775, 0.5343512, 0.89775, -3.2137403
0.1064118, -0.0204776, 0.9045, 0.0245972, 0.9045, -1.0057373, 0.9045, -0.1568604, 0.9045, 1.4656489, 0.9045, 0.4351145, 0.9045, -3.1374047
0.1072059, -0.0208133, 0.91125, 0.0256348, 0.91125, -1.0084839, 0.91125, -0.1557007, 0.91125, 1.4351145, 0.91125, 0.6412213, 0.91125, -3.1832061
0.108, -0.0219883, 0.918, 0.0261841, 0.918, -1.0097656, 0.918, -0.1567993, 0.918, 1.4732825, 0.918, 0.6946565, 0.918, -3.351145
0.1087941, -0.0216526, 0.92475, 0.0283813, 0.92475, -1.0089722, 0.92475, -0.1569214, 0.92475, 1.480916, 0.92475, 0.7328244, 0.92475, -3.2519083
0.1095882, -0.018967, 0.9315, 0.0280151, 0.9315, -1.0054932, 0.9315, -0.1572876, 0.9315, 1.4732825, 0.9315, 0.8320611, 0.9315, -3.1374047
0.1103824, -0.0159457, 0.93825, 0.0272217, 0.93825, -1.0032959, 0.93825, -0.1567383, 0.93825, 1.4656489, 0.93825, 1.0534351, 0.93825, -2.9694657
0.1111765, -0.0146029, 0.945, 0.0269775, 0.945, -1.0015869, 0.945, -0.1560059, 0.945, 1.4961832, 0.945, 1.0687023, 0.945, -2.9236641
0.1119706, -0.0139315, 0.95175, 0.0251465, 0.95175, -1.0040894, 0.95175, -0.1555176, 0.95175, 1.5725191, 0.95175, 1.0534351, 0.95175, -3.0076337
0.1127647, -0.0129244, 0.9585, 0.0249634, 0.9585, -1.0074463, 0.9585, -0.1564331, 0.9585, 1.6412214, 0.9585, 0.9236641, 0.9585, -3.0610688
0.1135588, -0.012253, 0.96525, 0.0232544, 0.96525, -1.0056763, 0.96525, -0.1595459, 0.96525, 1.519084, 0.96525, 0.7633588, 0.96525, -3.1221373
0.1143529, -0.0115816, 0.972, 0.0228882, 0.972, -1.0036621, 0.972, -0.1572266, 0.972, 1.480916, 0.972, 0.4885496, 0.972, -3.1908398
0.1151471, -0.0104067, 0.97875, 0.0236816, 0.97875, -1.0042114, 0.97875, -0.1542358, 0.97875, 1.519084, 0.97875, 0.3740458, 0.97875, -3.038168
0.1159412, -0.0115816, 0.9855, 0.0252075, 0.9855, -1.0043945, 0.9855, -0.1565552, 0.9855, 1.6641221, 0.9855, 0.1755725, 0.9855, -3.0076337
0.1167353, -0.012253, 0.99225, 0.0264282, 0.99225, -1.0044556, 0.99225, -0.1589966, 0.99225, 1.6793894, 0.99225, 0.2137405, 0.99225, -3.0152671
0.1175294, -0.0105745, 0.999, 0.0299072, 0.999, -1.0039673, 0.999, -0.1574707, 0.999, 1.4656489, 0.999, 0.3053435, 0.999, -3.2442749
0.1183235, -0.0115816, 1.00575, 0.0287476, 1.00575, -1.0067139, 1.00575, -0.157959, 1.00575, 1.5954199, 1.00575, 0.5572519, 1.00575, -3.1374047
0.1191176, -0.0135958, 1.0125, 0.0281372, 1.0125, -1.0044556, 1.0125, -0.1572266, 1.0125, 1.4427481, 1.0125, 0.8091603, 1.0125, -3.2977099
0.1199118, -0.0142672, 1.01925, 0.0272217, 1.01925, -1.0026245, 1.01925, -0.1551514, 1.01925, 1.4274809, 1.01925, 1.1603054, 1.01925, -3.0076337
0.1207059, -0.0135958, 1.026, 0.024292, 1.026, -1.0045166, 1.026, -0.1546631, 1.026, 1.5572519, 1.026, 1.389313, 1.026, -2.8473282
0.1215, -0.0146029, 1.03275, 0.0235596, 1.03275, -1.0078125, 1.03275, -0.1564941, 1.03275, 1.2977099, 1.03275, 1.5801526, 1.03275, -2.8549619
0.1222941, -0.0135958, 1.0395, 0.0251465, 1.0395, -1.0081787, 1.0395, -0.1536865, 1.0395, 1.1603054, 1.0395, 1.6412214, 1.0395, -2.9389312
0.1230882, -0.0132601, 1.04625, 0.0259399, 1.04625, -1.0064087, 1.04625, -0.1542358, 1.04625, 1.351145, 1.04625, 1.5954199, 1.04625, -2.9770992
0.1238824, -0.0109102, 1.053, 0.0222778, 1.053, -1.0065918, 1.053, -0.1532593, 1.053, 1.3282443, 1.053, 1.7022901, 1.053, -2.9770992
0.1246765, -0.0125887, 1.05975, 0.0259399, 1.05975, -1.0036621, 1.05975, -0.1542358, 1.05975, 1.3435115, 1.05975, 1.7175573, 1.05975, -2.8931298
0.1254706, -0.0142672, 1.0665, 0.0261841, 1.0665, -1.0056763, 1.0665, -0.1536255, 1.0665, 1.3206106, 1.0665, 1.5725191, 1.0665, -2.961832
0.1262647, -0.0152743, 1.07325, 0.0275879, 1.07325, -1.0041504, 1.07325, -0.1550903, 1.07325, 1.1908396, 1.07325, 1.519084, 1.07325, -3.1221373
0.1270588, -0.0146029, 1.08, 0.0288696, 1.08, -1.0027466, 1.08, -0.1546631, 1.08, 1.2671756, 1.08, 1.480916, 1.08, -2.9923663
0.1278529, -0.0119173, 1.08675, 0.0281982, 1.08675, -1.0081177, 1.08675, -0.1569214, 1.08675, 1.5114504, 1.08675, 1.2519084, 1.08675, -3.0839694
0.1286471, -0.0169528, 1.0935, 0.0274048, 1.0935, -1.0040283, 1.0935, -0.1608887, 1.0935, 1.389313, 1.0935, 1.3816794, 1.0935, -2.9389312
0.1294412, -0.0149386, 1.10025, 0.0290527, 1.10025, -1.005127, 1.10025, -0.1591187, 1.10025, 1.4885496, 1.10025, 1.4885496, 1.10025, -2.9541984
0.1302353, -0.0125887, 1.107, 0.0281982, 1.107, -1.0043335, 1.107, -0.1598511, 1.107, 1.3816794, 1.107, 1.6335878, 1.107, -2.9160306
0.1310294, -0.014435, 1.11375, 0.0233765, 1.11375, -1.0025024, 1.11375, -0.1595459, 1.11375, 1.610687, 1.11375, 1.6412214, 1.11375, -2.870229
0.1318235, -0.0169528, 1.1205, 0.0265503, 1.1205, -1.0037842, 1.1205, -0.1625977, 1.1205, 1.8473282, 1.1205, 1.7328244, 1.1205, -3.0076337
0.1326176, -0.0169528, 1.12725, 0.0296631, 1.12725, -1.0054932, 1.12725, -0.1630859, 1.12725, 1.8320611, 1.12725, 2.1221373, 1.12725, -3.038168
0.1334118, -0.0146029, 1.134, 0.0258789, 1.134, -1.0057983, 1.134, -0.1608276, 1.134, 1.7633588, 1.134, 2.1679389, 1.134, -2.9389312
0.1342059, -0.0142672, 1.14075, 0.0273438, 1.14075, -1.0064087, 1.14075, -0.1630249, 1.14075, 1.9160305, 1.14075, 2.4274809, 1.14075, -2.8244274
0.135, -0.0196384, 1.1475, 0.0266113, 1.1475, -1.0089722, 1.1475, -0.1623535, 1.1475, 2.0229008, 1.1475, 2.5038168, 1.1475, -2.8015268
0.1357941, -0.0176242, 1.15425, 0.0269165, 1.15425, -1.0045166, 1.15425, -0.1641235, 1.15425, 2.3206108, 1.15425, 2.5801528, 1.15425, -2.8320611
0.1365882, -0.014435, 1.161, 0.0289917, 1.161, -1.0050659, 1.161, -0.1625366, 1.161, 2.3664122, 1.161, 2.8091602, 1.161, -2.8320611
0.1373824, -0.0162814, 1.16775, 0.0259399, 1.16775, -1.007019, 1.16775, -0.1591187, 1.16775, 2.5038168, 1.16775, 2.8931298, 1.16775, -2.5572519
0.1381765, -0.0162814, 1.1745, 0.0291138, 1.1745, -1.0042725, 1.1745, -0.1607056, 1.1745, 2.7022901, 1.1745, 2.9465649, 1.1745, -2.5572519
0.1389706, -0.0152743, 1.18125, 0.0257568, 1.18125, -1.0038452, 1.18125, -0.1607666, 1.18125, 2.778626, 1.18125, 3.221374, 1.18125, -2.6564887
0.1397647, -0.0146029, 1.188, 0.0278931, 1.188, -1.005188, 1.188, -0.1542358, 1.188, 2.7022901, 1.188, 3.2366412, 1.188, -2.5419848
0.1405588, -0.0198062, 1.19475, 0.0252686, 1.19475, -1.0064087, 1.19475, -0.1563721, 1.19475, 2.6641221, 1.19475, 3.0763359, 1.19475, -2.7480917
0.1413529, -0.018967, 1.2015, 0.0244751, 1.2015, -1.0070801, 1.2015, -0.151123, 1.2015, 2.7557251, 1.2015, 3.0305343, 1.2015, -2.6564887
0.1421471, -0.0142672, 1.20825, 0.0224609, 1.20825, -1.0076294, 1.20825, -0.1467896, 1.20825, 2.5648854, 1.20825, 2.8854961, 1.20825, -2.648855
0.1429412, -0.0109102, 1.215, 0.0188599, 1.215, -1.0073242, 1.215, -0.1429443, 1.215, 2.7251909, 1.215, 2.740458, 1.215, -2.6412213
0.1437353, -0.0109102, 1.22175, 0.0181274, 1.22175, -1.0057983, 1.22175, -0.1395874, 1.22175, 2.6183207, 1.22175, 2.610687, 1.22175, -2.6870229
0.1445294, -0.0129244, 1.2285, 0.0194092, 1.2285, -1.0060425, 1.2285, -0.1412964, 1.2285, 2.5496182, 1.2285, 2.480916, 1.2285, -2.6030533
0.1453235, -0.0135958, 1.23525, 0.0206299, 1.23525, -1.0065308, 1.23525, -0.1396484, 1.23525, 2.2519083, 1.23525, 1.9694656, 1.23525, -2.5954199
0.1461176, -0.0135958, 1.242, 0.0197754, 1.242, -1.0042725, 1.242, -0.1385498, 1.242, 2.2061069, 1.242, 2.1068702, 1.242, -2.5801528
0.1469118, -0.0112459, 1.24875, 0.0216064, 1.24875, -1.0093994, 1.24875, -0.1349487, 1.24875, 1.9923664, 1.24875, 2.1832061, 1.24875, -2.5267177
0.1477059, -0.0137636, 1.2555, 0.0221558, 1.2555, -1.0068359, 1.2555, -0.1410522, 1.2555, 2.0763359, 1.2555, 1.4732825, 1.2555, -2.7251909
0.1485, -0.0125887, 1.26225, 0.0252075, 1.26225, -1.0020752, 1.26225, -0.1417847, 1.26225, 1.6183206, 1.26225, 2.2290077, 1.26225, -2.5954199
0.1492941, -0.008896, 1.269, 0.0263672, 1.269, -1.0046387, 1.269, -0.1415405, 1.269, 1.1984733, 1.269, 2.2824428, 1.269, -2.7328243
0.1500882, -0.0075532, 1.27575, 0.0247192, 1.27575, -1.0076904, 1.27575, -0.1365967, 1.27575, 1.351145, 1.27575, 2.259542, 1.27575, -2.6259542
0.1508824, -0.0099031, 1.2825, 0.0214844, 1.2825, -1.0012207, 1.2825, -0.1420288, 1.2825, 1.3053435, 1.2825, 2.0305343, 1.2825, -2.5496182
0.1516765, -0.0129244, 1.28925, 0.0221558, 1.28925, -1.0010376, 1.28925, -0.1414185, 1.28925, 1.0687023, 1.28925, 1.9312977, 1.28925, -2.6259542
0.1524706, -0.0117494, 1.296, 0.0217896, 1.296, -1.0014648, 1.296, -0.1419678, 1.296, 0.8778626, 1.296, 1.9465649, 1.296, -2.5343511
0.1532647, -0.0142672, 1.30275, 0.0169067, 1.30275, -1.0040283, 1.30275, -0.1434937, 1.30275, 0.7709923, 1.30275, 1.648855, 1.30275, -2.6412213
0.1540588, -0.0172885, 1.3095, 0.0187988, 1.3095, -1.0054321, 1.3095, -0.1461182, 1.3095, 0.778626, 1.3095, 1.3053435, 1.3095, -2.7557251
0.1548529, -0.0196384, 1.31625, 0.0205688, 1.31625, -1.0024414, 1.31625, -0.1453857, 1.31625, 0.5419847, 1.31625, 1.0763359, 1.31625, -2.6946564
0.1556471, -0.0213169, 1.323, 0.0177612, 1.323, -1.0023193, 1.323, -0.1461182, 1.323, 0.4732825, 1.323, 0.6870229, 1.323, -2.7022901
0.1564412, -0.0229953, 1.32975, 0.0169067, 1.32975, -1.0084229, 1.32975, -0.1473999, 1.32975, 0.3969466, 1.32975, 0.6412213, 1.32975, -2.7938931
0.1572353, -0.0203098, 1.3365, 0.0193481, 1.3365, -1.0083618, 1.3365, -0.1481934, 1.3365, 0.4274809, 1.3365, 0.2977099, 1.3365, -2.6183207
0.1580294, -0.0209812, 1.34325, 0.022522, 1.34325, -1.0064697, 1.34325, -0.1530151, 1.34325, 0.4656489, 1.34325, -0.0763359, 1.34325, -2.6183207
0.1588235, -0.017792, 1.35, 0.022522, 1.35, -1.0055542, 1.35, -0.1547852, 1.35, 0.351145, 1.35, -0.2748092, 1.35, -2.4580152
0.1596176, -0.0176242, 1.35675, 0.0254517, 1.35675, -1.0058594, 1.35675, -0.1529541, 1.35675, 0.2061069, 1.35675, -0.2900763, 1.35675, -2.5419848
0.1604118, -0.0196384, 1.3635, 0.0247192, 1.3635, -1.0076904, 1.3635, -0.1503906, 1.3635, 0.4503817, 1.3635, -0.0839695, 1.3635, -2.6335878
0.1612059, -0.018967, 1.37025, 0.0222778, 1.37025, -1.003418, 1.37025, -0.15271, 1.37025, 0.4503817, 1.37025, -0.0152672, 1.37025, -2.6412213
0.162, -0.0179599, 1.377, 0.0249023, 1.377, -1.0054932, 1.377, -0.1525879, 1.377, 0.5343512, 1.377, -0.1984733, 1.377, -2.6946564
0.1627941, -0.0164492, 1.38375, 0.020813, 1.38375, -1.006958, 1.38375, -0.1514893, 1.38375, 0.351145, 1.38375, -0.5114504, 1.38375, -2.6030533
0.1635882, -0.0182956, 1.3905, 0.0188599, 1.3905, -1.0078735, 1.3905, -0.1529541, 1.3905, 0.480916, 1.3905, -0.8473282, 1.3905, -2.6259542
0.1643824, -0.0162814, 1.39725, 0.0222168, 1.39725, -1.0085449, 1.39725, -0.1544189, 1.39725, 0.4351145, 1.39725, -0.9923664, 1.39725, -2.6793892
0.1651765, -0.0124208, 1.404, 0.0216675, 1.404, -1.0047607, 1.404, -0.1526489, 1.404, 0.4885496, 1.404, -1.0305344, 1.404, -2.648855
0.1659706, -0.0169528, 1.41075, 0.0213623, 1.41075, -1.0075073, 1.41075, -0.1538086, 1.41075, 0.4885496, 1.41075, -1.1068702, 1.41075, -2.7633588
0.1667647, -0.0172885, 1.4175, 0.0220337, 1.4175, -1.0085449, 1.4175, -0.1558838, 1.4175, 0.4503817, 1.4175, -1.1908396, 1.4175, -2.6870229
0.1675588, -0.0151064, 1.42425, 0.0204468, 1.42425, -1.0064087, 1.42425, -0.1567383, 1.42425, 0.6412213, 1.42425, -1.2290076, 1.42425, -2.778626
0.1683529, -0.0169528, 1.431, 0.0224609, 1.431, -1.0036621, 1.431, -0.1566772, 1.431, 0.7175573, 1.431, -1.3129771, 1.431, -2.7480917
0.1691471, -0.0196384, 1.43775, 0.0203857, 1.43775, -1.0046997, 1.43775, -0.1583252, 1.43775, 0.8091603, 1.43775, -1.4274809, 1.43775, -2.6183207
0.1699412, -0.0226596, 1.4445, 0.0245361, 1.4445, -1.0050659, 1.4445, -0.1571655, 1.4445, 0.778626, 1.4445, -1.389313, 1.4445, -2.6717558
0.1707353, -0.0221561, 1.45125, 0.026123, 1.45125, -1.0018921, 1.45125, -0.1571045, 1.45125, 0.7175573, 1.45125, -1.1984733, 1.45125, -2.5725191
0.1715294, -0.0256809, 1.458, 0.0182495, 1.458, -1.0075684, 1.458, -0.151123, 1.458, 0.8244275, 1.458, -1.1374046, 1.458, -2.8549619
0.1723235, -0.0216526, 1.46475, 0.0163574, 1.46475, -1.0057373, 1.46475, -0.1514282, 1.46475, 0.6335878, 1.46475, -1.259542, 1.46475, -2.7938931
0.1731176, -0.0196384, 1.4715, 0.0122681, 1.4715, -1.0037842, 1.4715, -0.1504517, 1.4715, 0.8244275, 1.4715, -1.2671756, 1.4715, -2.8396947
0.1739118, -0.0196384, 1.47825, 0.0123901, 1.47825, -1.0048828, 1.47825, -0.1508789, 1.47825, 0.7099237, 1.47825, -1.4122137, 1.47825, -3
0.1747059, -0.0135958, 1.485, 0.0117798, 1.485, -1.0037842, 1.485, -0.1497803, 1.485, 0.8015267, 1.485, -1.7022901, 1.485, -2.9389312
0.1755, -0.014435, 1.49175, 0.0161743, 1.49175, -1.0050659, 1.49175, -0.1506348, 1.49175, 0.6564885, 1.49175, -1.908397, 1.49175, -2.9389312
0.1762941, -0.0149386, 1.4985, 0.0172729, 1.4985, -1.0045776, 1.4985, -0.1514893, 1.4985, 0.6793893, 1.4985, -1.8320611, 1.4985, -3.0305343
0.1770882, -0.0119173, 1.50525, 0.0198975, 1.50525, -1.005188, 1.50525, -0.147583, 1.50525, 0.7251908, 1.50525, -1.740458, 1.50525, -2.9389312
0.1778824, -0.0095674, 1.512, 0.0174561, 1.512, -1.0070801, 1.512, -0.1519775, 1.512, 0.5877863, 1.512, -1.4961832, 1.512, -3.038168
0.1786765, -0.012253, 1.51875, 0.0184326, 1.51875, -1.0062256, 1.51875, -0.1486206, 1.51875, 0.5114504, 1.51875, -1.5419847, 1.51875, -2.961832
0.1794706, -0.0125887, 1.5255, 0.0198975, 1.5255, -1.007019, 1.5255, -0.1491699, 1.5255, 0.6335878, 1.5255, -1.4045801, 1.5255, -3
0.1802647, -0.0132601, 1.53225, 0.0198975, 1.53225, -1.0064087, 1.53225, -0.1500854, 1.53225, 0.5496183, 1.53225, -1.221374, 1.53225, -2.9770992
0.1810588, -0.0176242, 1.539, 0.0210571, 1.539, -1.0073853, 1.539, -0.151001, 1.539, 0.6335878, 1.539, -1.221374, 1.539, -3.0152671
0.1818529, -0.0149386, 1.54575, 0.0216064, 1.54575, -1.0048828, 1.54575, -0.1528931, 1.54575, 0.4885496, 1.54575, -1.1603054, 1.54575, -3.1068702
0.1826471, -0.0139315, 1.5525, 0.0200806, 1.5525, -1.0070801, 1.5525, -0.1514893, 1.5525, 0.648855, 1.5525, -1.1908396, 1.5525, -3.0458016
0.1834412, -0.0132601, 1.55925, 0.0218506, 1.55925, -1.0067139, 1.55925, -0.1543579, 1.55925, 0.5648855, 1.55925, -1.2137405, 1.55925, -3.1984732
0.1842353, -0.0109102, 1.566, 0.0229492, 1.566, -1.0083008, 1.566, -0.152832, 1.566, 0.5801527, 1.566, -1.1526718, 1.566, -3.1068702
0.1850294, -0.0129244, 1.57275, 0.0247192, 1.57275, -1.0049438, 1.57275, -0.1558228, 1.57275, 0.5419847, 1.57275, -0.9847328, 1.57275, -3.2061069
0.1858235, -0.0176242, 1.5795, 0.0244141, 1.5795, -1.005249, 1.5795, -0.1573486, 1.5795, 0.389313, 1.5795, -0.7862595, 1.5795, -3.1145039
0.1866176, -0.0196384, 1.58625, 0.0218506, 1.58625, -1.0063477, 1.58625, -0.1573486, 1.58625, 0.8091603, 1.58625, -0.3816794, 1.58625, -3.2900763
0.1874118, -0.0206455, 1.593, 0.0205078, 1.593, -1.0071411, 1.593, -0.1555176, 1.593, 0.6335878, 1.593, -0.1832061, 1.593, -3.1832061
0.1882059, -0.0213169, 1.59975, 0.0214233, 1.59975, -1.0050049, 1.59975, -0.1580811, 1.59975, 0.5343512, 1.59975, 0, 1.59975, -3.2137403
0.189, -0.0196384, 1.6065, 0.019043, 1.6065, -1.0020142, 1.6065, -0.1560059, 1.6065, 0.5648855, 1.6065, 0.1679389, 1.6065, -2.908397
0.1897941, -0.0206455, 1.61325, 0.0202637, 1.61325, -1.0055542, 1.61325, -0.1553955, 1.61325, 0.5801527, 1.61325, 0.3358779, 1.61325, -2.9923663
0.1905882, -0.0171206, 1.62, 0.022644, 1.62, -1.0068359, 1.62, -0.1531982, 1.62, 0.7099237, 1.62, 0.480916, 1.62, -3.038168
0.1913824, -0.0182956, 1.62675, 0.0216064, 1.62675, -1.0147705, 1.62675, -0.1482544, 1.62675, 0.870229, 1.62675, 0.7251908, 1.62675, -2.9541984
0.1921765, -0.0176242, 1.6335, 0.0203247, 1.6335, -1.0198364, 1.6335, -0.1356812, 1.6335, 1.2290076, 1.6335, 1.2671756, 1.6335, -2.9541984
0.1929706, -0.0152743, 1.64025, 0.0148926, 1.64025, -1.0339966, 1.64025, -0.1257935, 1.64025, 2.1374047, 1.64025, 1.480916, 1.64025, -2.8854961
0.1937647, -0.0132601, 1.647, 0.0142822, 1.647, -1.0454102, 1.647, -0.1264038, 1.647, 3.4351146, 1.647, 1.2671756, 1.647, -2.9694657
0.1945588, -0.0137636, 1.65375, 0.0175171, 1.65375, -1.0454712, 1.65375, -0.1264648, 1.65375, 4.4656487, 1.65375, 1.908397, 1.65375, -2.6793892
0.1953529, -0.0149386, 1.6605, 0.0249023, 1.6605, -1.0419312, 1.6605, -0.1212158, 1.6605, 5.4503818, 1.6605, 2.4274809, 1.6605, -2.6259542
0.1961471, -0.012253, 1.66725, 0.0240479, 1.66725, -1.022644, 1.66725, -0.1315918, 1.66725, 5.4122138, 1.66725, 0.870229, 1.66725, -2.6641221
0.1969412, -0.0112459, 1.674, 0.008606, 1.674, -1.0019531, 1.674, -0.1437988, 1.674, 4.6030536, 1.674, -1.259542, 1.674, -2.8473282
0.1977353, -0.0092317, 1.68075, 0.0050049, 1.68075, -0.9936523, 1.68075, -0.1563721, 1.68075, 4.1450381, 1.68075, -1.9465649, 1.68075, -2.9389312
0.1985294, -0.0095674, 1.6875, 0.0198975, 1.6875, -0.9977417, 1.6875, -0.1625366, 1.6875, 3.2137403, 1.6875, -2.908397, 1.6875, -3.2977099
0.1993235, -0.0099031, 1.69425, 0.0261841, 1.69425, -1.005188, 1.69425, -0.1428223, 1.69425, 2.5114503, 1.69425, -3.5343511, 1.69425, -3.740458
0.2001176, -0.0082246, 1.701, 0.0258789, 1.701, -1.003479, 1.701, -0.1464233, 1.701, 2.4580152, 1.701, -2.6641221, 1.701, -3.6335878
0.2009118, -0.0117494, 1.70775, 0.017395, 1.70775, -0.9974365, 1.70775, -0.1636353, 1.70775, 2.129771, 1.70775, -1.3740458, 1.70775, -3.4732823
0.2017059, -0.0169528, 1.7145, 0.0099487, 1.7145, -0.9894409, 1.7145, -0.1689453, 1.7145, 1.8015267, 1.7145, -0.6335878, 1.7145, -3.5419848
0.2025, -0.0149386, 1.72125, 0.0040283, 1.72125, -0.9833374, 1.72125, -0.1564941, 1.72125, 1.2900764, 1.72125, -0.4351145, 1.72125, -3.5114503
0.2032941, -0.0135958, 1.728, 0.0070801, 1.728, -0.9828491, 1.728, -0.1519165, 1.728, 1.1450381, 1.728, 0.0839695, 1.728, -3.3435113
0.2040882, -0.0176242, 1.73475, 0.0134888, 1.73475, -0.9847412, 1.73475, -0.152832, 1.73475, 0.7175573, 1.73475, 0.7480916, 1.73475, -3.4503818
0.2048824, -0.0132601, 1.7415, 0.0146484, 1.7415, -0.9909058, 1.7415, -0.145874, 1.7415, 0.4732825, 1.7415, 1.2366412, 1.7415, -3.3282442
0.2056765, -0.0095674, 1.74825, 0.0113525, 1.74825, -0.9923706, 1.74825, -0.1383057, 1.74825, 0.3664122, 1.74825, 2.1526718, 1.74825, -3.0610688
0.2064706, -0.0115816, 1.755, 0.0203247, 1.755, -0.9907837, 1.755, -0.1399536, 1.755, 0.2442748, 1.755, 2.2671757, 1.755, -3.091603
0.2072647, -0.0125887, 1.76175, 0.027832, 1.76175, -0.9890747, 1.76175, -0.1328735, 1.76175, 0.1145038, 1.76175, 2.519084, 1.76175, -2.9007633
0.2080588, -0.0115816, 1.7685, 0.0291138, 1.7685, -0.9950562, 1.7685, -0.1234741, 1.7685, 0.1221374, 1.7685, 2.8778627, 1.7685, -2.9465649
0.2088529, -0.0102388, 1.77525, 0.0289917, 1.77525, -0.9958496, 1.77525, -0.12854, 1.77525, 0.0458015, 1.77525, 3.1145039, 1.77525, -2.8625953
0.2096471, -0.0085603, 1.782, 0.024292, 1.782, -1.005188, 1.782, -0.1223145, 1.782, -0.0610687, 1.782, 4.2671757, 1.782, -2.961832
0.2104412, -0.0102388, 1.78875, 0.0148926, 1.78875, -1.0095825, 1.78875, -0.1312256, 1.78875, 0.0610687, 1.78875, 2.7557251, 1.78875, -3.2137403
0.2112353, -0.0104067, 1.7955, 0.0130005, 1.7955, -1.0042114, 1.7955, -0.142334, 1.7955, -0.0229008, 1.7955, 1.1221374, 1.7955, -3.6564887
0.2120294, -0.008896, 1.80225, 0.0167236, 1.80225, -0.9998779, 1.80225, -0.1535034, 1.80225, -0.7251908, 1.80225, -0.5038168, 1.80225, -3.6259542
0.2128235, -0.0129244, 1.809, 0.0256348, 1.809, -0.9973755, 1.809, -0.1534424, 1.809, -1.0992366, 1.809, -1.6259542, 1.809, -3.7938931
0.2136176, -0.0125887, 1.81575, 0.0336304, 1.81575, -0.9934082, 1.81575, -0.163269, 1.81575, -1.3587786, 1.81575, -1.2671756, 1.81575, -3.7709923
0.2144118, -0.0095674, 1.8225, 0.0340576, 1.8225, -1.00354, 1.8225, -0.1705322, 1.8225, -1.4198474, 1.8225, -0.4885496, 1.8225, -3.648855
0.2152059, -0.0132601, 1.82925, 0.0319214, 1.82925, -1.0078735, 1.82925, -0.1744385, 1.82925, -1.5343511, 1.82925, 0.4427481, 1.82925, -3.3282442
0.216, -0.0151064, 1.836, 0.0280151, 1.836, -1.0081177, 1.836, -0.1801758, 1.836, -1.4503816, 1.836, 0.7022901, 1.836, -3.3816793
0.2167941, -0.0132601, 1.84275, 0.0280762, 1.84275, -1.0067139, 1.84275, -0.1845703, 1.84275, -1.3206106, 1.84275, 1.0458015, 1.84275, -3.2900763
0.2175882, -0.0176242, 1.8495, 0.0267334, 1.8495, -1.013916, 1.8495, -0.1875, 1.8495, -0.8778626, 1.8495, 1.389313, 1.8495, -3.221374
0.2183824, -0.0186313, 1.85625, 0.0336914, 1.85625, -1.0213013, 1.85625, -0.1906738, 1.85625, -0.5267175, 1.85625, 1.5801526, 1.85625, -2.8778627
0.2191765, -0.0191348, 1.863, 0.0405273, 1.863, -1.013916, 1.863, -0.2017212, 1.863, 0.1068702, 1.863, 2.1145039, 1.863, -2.5496182
0.2199706, -0.0169528, 1.86975, 0.0452881, 1.86975, -1.0119019, 1.86975, -0.2025146, 1.86975, 0.5801527, 1.86975, 3, 1.86975, -2.351145
0.2207647, -0.0149386, 1.8765, 0.0455322, 1.8765, -1.0097656, 1.8765, -0.2063599, 1.8765, 1.3358779, 1.8765, 3.7480917, 1.8765, -2.221374
0.2215588, -0.018967, 1.88325, 0.0457764, 1.88325, -1.0083618, 1.88325, -0.2059326, 1.88325, 2.0610688, 1.88325, 4.7709923, 1.88325, -2.3282442
0.2223529, -0.0229953, 1.89, 0.0458374, 1.89, -1.0132446, 1.89, -0.2054443, 1.89, 3.259542, 1.89, 5.5801525, 1.89, -2.1068702
0.2231471, -0.0236667, 1.89675, 0.0452881, 1.89675, -1.005127, 1.89675, -0.2003784, 1.89675, 4.1297708, 1.89675, 6.2442746, 1.89675, -1.8625954
0.2239412, -0.0223239, 1.9035, 0.0392456, 1.9035, -0.9998169, 1.9035, -0.2019043, 1.9035, 4.7099237, 1.9035, 6.1526718, 1.9035, -1.4351145
0.2247353, -0.0209812, 1.91025, 0.0345459, 1.91025, -1.0029297, 1.91025, -0.1998291, 1.91025, 5.0076337, 1.91025, 6.1221375, 1.91025, -1.3816794
0.2255294, -0.0176242, 1.917, 0.0321045, 1.917, -1.0012207, 1.917, -0.192627, 1.917, 5.7480917, 1.917, 5.8396945, 1.917, -1.2290076
0.2263235, -0.0102388, 1.92375, 0.0305176, 1.92375, -0.9998169, 1.92375, -0.1886597, 1.92375, 6.1450381, 1.92375, 5.0916033, 1.92375, -1.2519084
0.2271176, -0.0095674, 1.9305, 0.0338745, 1.9305, -0.9978638, 1.9305, -0.1796265, 1.9305, 6.8167939, 1.9305, 4.3893127, 1.9305, -1.0534351
0.2279118, -0.0099031, 1.93725, 0.0415649, 1.93725, -0.9991455, 1.93725, -0.1778564, 1.93725, 7.1984735, 1.93725, 3.8473282, 1.93725, -0.870229
0.2287059, -0.0085603, 1.944, 0.0441284, 1.944, -1.0043335, 1.944, -0.1723633, 1.944, 7.6564884, 1.944, 4.0534353, 1.944, -0.7557252
0.2295, -0.0075532, 1.95075, 0.0458984, 1.95075, -1.0089722, 1.95075, -0.1682129, 1.95075, 7.9770994, 1.95075, 4.7938933, 1.95075, -0.4656489
0.2302941, -0.0068818, 1.9575, 0.0374146, 1.9575, -1.0067139, 1.9575, -0.1650391, 1.9575, 8.2290077, 1.9575, 5.5419846, 1.9575, -0.2061069
0.2310882, -0.0041962, 1.96425, 0.03302, 1.96425, -1.0062256, 1.96425, -0.1630859, 1.96425, 8.7022905, 1.96425, 5.9923663, 1.96425, -0.1068702
0.2318824, -0.0065461, 1.971, 0.0258179, 1.971, -1.0053101, 1.971, -0.1553955, 1.971, 9, 1.971, 5.6641221, 1.971, 0.2061069
0.2326765, -0.0092317, 1.97775, 0.0180664, 1.97775, -1.0015869, 1.97775, -0.1517334, 1.97775, 8.9236641, 1.97775, 5.3435116, 1.97775, 0.2519084
0.2334706, -0.0149386, 1.9845, 0.0186768, 1.9845, -1.0021973, 1.9845, -0.1499634, 1.9845, 8.839695, 1.9845, 4.9770994, 1.9845, 0.1221374
0.2342647, -0.0179599, 1.99125, 0.0202026, 1.99125, -1.0031128, 1.99125, -0.1414795, 1.99125, 8.9007635, 1.99125, 4.9312978, 1.99125, 0.3053435
0.2350588, -0.018967, 1.998, 0.0205688, 1.998, -1.0089722, 1.998, -0.1394043, 1.998, 8.8320608, 1.998, 5.1068702, 1.998, 0.351145
0.2358529, -0.0198062, 2.00475, 0.0186157, 2.00475, -1.008667, 2.00475, -0.1347656, 2.00475, 8.7938929, 2.00475, 5.1679387, 2.00475, 0.7175573
0.2366471, -0.0203098, 2.0115, 0.0230103, 2.0115, -1.0090332, 2.0115, -0.1257324, 2.0115, 8.9312973, 2.0115, 5.7709923, 2.0115, 0.8320611
0.2374412, -0.0204776, 2.01825, 0.019104, 2.01825, -1.0059204, 2.01825, -0.1221313, 2.01825, 8.6030531, 2.01825, 5.8625956, 2.01825, 0.8854962
0.2382353, -0.0169528, 2.025, 0.0129395, 2.025, -1.0055542, 2.025, -0.1148071, 2.025, 8.1679392, 2.025, 5.9770994, 2.025, 0.908397
0.2390294, -0.0176242, 2.03175, 0.0105591, 2.03175, -1.005127, 2.03175, -0.1132202, 2.03175, 7.9847326, 2.03175, 5.480916, 2.03175, 0.7480916
0.2398235, -0.0176242, 2.0385, 0.0100098, 2.0385, -1.0056763, 2.0385, -0.1094971, 2.0385, 7.4427481, 2.0385, 5.1450381, 2.0385, 0.9236641
0.2406176, -0.0149386, 2.04525, 0.0053101, 2.04525, -1.0024414, 2.04525, -0.111145, 2.04525, 6.9465647, 2.04525, 4.1832061, 2.04525, 0.8396947
0.2414118, -0.0161135, 2.052, 0.0045166, 2.052, -1.000061, 2.052, -0.1027222, 2.052, 6.4351144, 2.052, 4.038168, 2.052, 0.7175573
0.2422059, -0.0169528, 2.05875, 0.0028076, 2.05875, -0.9991455, 2.05875, -0.1064453, 2.05875, 5.8473282, 2.05875, 2.5114503, 2.05875, 0.519084
0.243, -0.0199741, 2.0655, 0.0056152, 2.0655, -0.9971924, 2.0655, -0.1008301, 2.0655, 5.5954199, 2.0655, 2.3587787, 2.0655, 0.4656489
0.2437941, -0.0194705, 2.07225, 0.0020142, 2.07225, -0.9942627, 2.07225, -0.1068115, 2.07225, 5.0534353, 2.07225, 1.7862595, 2.07225, 0.3206107
0.2445882, -0.0154421, 2.079, 0.0024414, 2.079, -0.9980469, 2.079, -0.1057129, 2.079, 4.5572519, 2.079, 1.0839695, 2.079, 0.3053435
0.2453824, -0.0135958, 2.08575, 0.0009766, 2.08575, -0.996582, 2.08575, -0.1082764, 2.08575, 4.038168, 2.08575, 0.7557252, 2.08575, 0.3740458
0.2461765, -0.0135958, 2.0925, 0.0062866, 2.0925, -0.9936523, 2.0925, -0.1134033, 2.0925, 3.6183207, 2.0925, 0.2748092, 2.0925, 0.4122137
0.2469706, -0.0083925, 2.09925, 0.0044556, 2.09925, -1, 2.09925, -0.1152954, 2.09925, 3.3969467, 2.09925, 0.3282443, 2.09925, 0.4122137
0.2477647, -0.0065461, 2.106, 0.0029907, 2.106, -0.9985962, 2.106, -0.114502, 2.106, 3.1068702, 2.106, 0.648855, 2.106, 0.4274809
0.2485588, -0.0109102, 2.11275, 0.0054932, 2.11275, -1.0025635, 2.11275, -0.1242065, 2.11275, 2.9847329, 2.11275, 0.5114504, 2.11275, 0.389313
0.2493529, -0.012253, 2.1195, -0.0012817, 2.1195, -1.0023804, 2.1195, -0.1275635, 2.1195, 3.1450381, 2.1195, 0.4503817, 2.1195, 0.389313
0.2501471, -0.0129244, 2.12625, -0.0010376, 2.12625, -1.0057373, 2.12625, -0.1289673, 2.12625, 2.610687, 2.12625, 0.3129771, 2.12625, 0.351145
0.2509412, -0.0164492, 2.133, -0.0026245, 2.133, -1.0075684, 2.133, -0.1262207, 2.133, 2.6870229, 2.133, 0.0992366, 2.133, 0.351145
0.2517353, -0.0167849, 2.13975, 0.0024414, 2.13975, -1.0097656, 2.13975, -0.1303101, 2.13975, 2.648855, 2.13975, -0.2290076, 2.13975, 0.3587786
0.2525294, -0.0162814, 2.1465, 0.0064697, 2.1465, -1.0093994, 2.1465, -0.1343994, 2.1465, 2.4885497, 2.1465, -0.3053435, 2.1465, 0.3129771
0.2533235, -0.0166171, 2.15325, 0.0109253, 2.15325, -1.010498, 2.15325, -0.1358032, 2.15325, 2.6641221, 2.15325, 0, 2.15325, 0.351145
0.2541176, -0.024506, 2.16, 0.0110474, 2.16, -1.0096436, 2.16, -0.1338501, 2.16, 2.7862597, 2.16, 0.259542, 2.16, 0.2900763
0.2549118, -0.0256809, 2.16675, 0.0093384, 2.16675, -1.0136108, 2.16675, -0.1357422, 2.16675, 2.8015268, 2.16675, 0.4351145, 2.16675, 0.389313
0.2557059, -0.0229953, 2.1735, 0.0047607, 2.1735, -1.0136108, 2.1735, -0.1329346, 2.1735, 2.9160306, 2.1735, 0.5572519, 2.1735, 0.389313
0.2565, -0.0208133, 2.18025, 0.0080566, 2.18025, -1.0170898, 2.18025, -0.1262207, 2.18025, 3.0763359, 2.18025, 0.8625954, 2.18025, 0.3358779
0.2572941, -0.0199741, 2.187, 0.0045166, 2.187, -1.017334, 2.187, -0.1247559, 2.187, 3.0687022, 2.187, 0.9465649, 2.187, 0.2748092
0.2580882, -0.018967, 2.19375, 0.0021362, 2.19375, -1.0161743, 2.19375, -0.1251221, 2.19375, 3.4961832, 2.19375, 0.9007633, 2.19375, 0.2671756
0.2588824, -0.0172885, 2.2005, -0.0021362, 2.2005, -1.0142212, 2.2005, -0.1287231, 2.2005, 3.5343511, 2.2005, 0.8320611, 2.2005, 0.2748092
0.2596765, -0.0209812, 2.20725, -0.0032959, 2.20725, -1.0131836, 2.20725, -0.1276855, 2.20725, 3.6030533, 2.20725, 0.4580153, 2.20725, 0.2900763
0.2604706, -0.0172885, 2.214, -0.0040283, 2.214, -1.0179443, 2.214, -0.1295776, 2.214, 3.9770992, 2.214, 0.5648855, 2.214, 0.2519084
0.2612647, -0.0169528, 2.22075, -0.0023193, 2.22075, -1.0166016, 2.22075, -0.1286011, 2.22075, 4.1679387, 2.22075, 0.4122137, 2.22075, 0.3206107
0.2620588, -0.0196384, 2.2275, 0.0025024, 2.2275, -1.0140381, 2.2275, -0.133728, 2.2275, 4.3740458, 2.2275, 0.5267175, 2.2275, 0.351145
0.2628529, -0.01561, 2.23425, 0.006897, 2.23425, -1.0040894, 2.23425, -0.1375122, 2.23425, 4.6641221, 2.23425, 0.7022901, 2.23425, 0.3358779
0.2636471, -0.014435, 2.241, 0.006958, 2.241, -1.0050659, 2.241, -0.1329346, 2.241, 4.4656487, 2.241, 1.7862595, 2.241, 0.4427481
0.2644412, -0.012253, 2.24775, -0.0010376, 2.24775, -1.0067139, 2.24775, -0.1367188, 2.24775, 4.3816795, 2.24775, 1.5877863, 2.24775, 0.3282443
0.2652353, -0.0109102, 2.2545, 0.0044556, 2.2545, -1.0036011, 2.2545, -0.1262817, 2.2545, 4.6717558, 2.2545, 2.2748091, 2.2545, 0.4656489
0.2660294, -0.0125887, 2.26125, -0.0010986, 2.26125, -1.0063477, 2.26125, -0.1350708, 2.26125, 4.5954199, 2.26125, 2.0992367, 2.26125, 0.480916
0.2668235, -0.0152743, 2.268, -6.1E-05, 2.268, -1.0068359, 2.268, -0.1251221, 2.268, 4.5648856, 2.268, 2.3053436, 2.268, 0.5877863
0.2676176, -0.0179599, 2.27475, 0.0015259, 2.27475, -1.0080566, 2.27475, -0.1236572, 2.27475, 4.9312978, 2.27475, 2.5725191, 2.27475, 0.4885496
0.2684118, -0.0172885, 2.2815, 0.0019531, 2.2815, -1.0064697, 2.2815, -0.1211548, 2.2815, 4.6259542, 2.2815, 2.7557251, 2.2815, 0.4427481
0.2692059, -0.0182956, 2.28825, 0.0016479, 2.28825, -1.0061646, 2.28825, -0.1196899, 2.28825, 4.5419846, 2.28825, 2.9236641, 2.28825, 0.519084
0.27, -0.0209812, 2.295, 0.0002441, 2.295, -1.0084839, 2.295, -0.1158447, 2.295, 4.7480917, 2.295, 2.7099237, 2.295, 0.2900763
0.2707941, -0.0191348, 2.30175, -0.0039062, 2.30175, -1.0072021, 2.30175, -0.1124878, 2.30175, 4.5267177, 2.30175, 2.7938931, 2.30175, 0.3587786
0.2715882, -0.0182956, 2.3085, -0.0095215, 2.3085, -1.005127, 2.3085, -0.1171265, 2.3085, 4.5343513, 2.3085, 2.7938931, 2.3085, 0.1832061
0.2723824, -0.0135958, 2.31525, -0.0082397, 2.31525, -1.008667, 2.31525, -0.1055908, 2.31525, 4.1374044, 2.31525, 2.8167939, 2.31525, 0.0229008
0.2731765, -0.0132601, 2.322, -0.0097046, 2.322, -1.0050049, 2.322, -0.1114502, 2.322, 3.9312978, 2.322, 2.3206108, 2.322, 0.0305344
0.2739706, -0.0149386, 2.32875, -0.0102539, 2.32875, -1.0057373, 2.32875, -0.1117554, 2.32875, 3.6717558, 2.32875, 2.2748091, 2.32875, 0.0381679
0.2747647, -0.0102388, 2.3355, -0.0089722, 2.3355, -1.0095825, 2.3355, -0.1057129, 2.3355, 3.3664122, 2.3355, 2.3282442, 2.3355, 0.0610687
0.2755588, -0.0119173, 2.34225, -0.0093994, 2.34225, -1.005188, 2.34225, -0.1134644, 2.34225, 3.3816793, 2.34225, 1.9541985, 2.34225, -0.1068702
0.2763529, -0.0090639, 2.349, -0.0115356, 2.349, -1.0061646, 2.349, -0.1099854, 2.349, 3.0763359, 2.349, 2.2977099, 2.349, 0
0.2771471, -0.002182, 2.35575, -0.0085449, 2.35575, -1.0075684, 2.35575, -0.1044922, 2.35575, 2.8549619, 2.35575, 2.3816793, 2.35575, 0.0381679
0.2779412, -0.0035248, 2.3625, -0.010437, 2.3625, -1.0101318, 2.3625, -0.1066284, 2.3625, 2.6412213, 2.3625, 2.2824428, 2.3625, -0.1374046
0.2787353, -0.0018463, 2.36925, -0.0120239, 2.36925, -1.0095825, 2.36925, -0.107605, 2.36925, 2.6793892, 2.36925, 2.5267177, 2.36925, -0.1984733
0.2795294, -0.003357, 2.376, -0.0100708, 2.376, -1.010498, 2.376, -0.1149292, 2.376, 2.5648854, 2.376, 2.1679389, 2.376, -0.2442748
0.2803235, -0.0041962, 2.38275, -0.0084229, 2.38275, -1.0045776, 2.38275, -0.1185303, 2.38275, 2.4656489, 2.38275, 2.5496182, 2.38275, -0.1755725
0.2811176, -0.0028534, 2.3895, -0.010498, 2.3895, -1.0061035, 2.3895, -0.1161499, 2.3895, 2.3740458, 2.3895, 2.7938931, 2.3895, -0.2824427
0.2819118, -0.0068818, 2.39625, -0.008667, 2.39625, -1.0045166, 2.39625, -0.1156616, 2.39625, 2.2290077, 2.39625, 2.4198472, 2.39625, -0.3969466
0.2827059, -0.0085603, 2.403, -0.0136719, 2.403, -1.0081177, 2.403, -0.1185303, 2.403, 2.0687022, 2.403, 2.7022901, 2.403, -0.3740458
0.2835, -0.008896, 2.40975, -0.0159912, 2.40975, -1.0079956, 2.40975, -0.119873, 2.40975, 2.1755726, 2.40975, 2.0610688, 2.40975, -0.6412213
0.2842941, -0.0099031, 2.4165, -0.0133057, 2.4165, -1.0048828, 2.4165, -0.1179199, 2.4165, 2.038168, 2.4165, 2.0305343, 2.4165, -0.610687
0.2850882, -0.0125887, 2.42325, -0.0147095, 2.42325, -1, 2.42325, -0.121582, 2.42325, 1.9694656, 2.42325, 1.8854961, 2.42325, -0.7709923
0.2858824, -0.0119173, 2.43, -0.0126343, 2.43, -1.0012817, 2.43, -0.1183472, 2.43, 1.6335878, 2.43, 2.2137403, 2.43, -0.6946565
0.2866765, -0.0149386, 2.43675, -0.0162354, 2.43675, -1.0046387, 2.43675, -0.1149902, 2.43675, 1.648855, 2.43675, 2.2366412, 2.43675, -0.8320611
0.2874706, -0.0169528, 2.4435, -0.0170898, 2.4435, -1.0030518, 2.4435, -0.1092529, 2.4435, 1.6564885, 2.4435, 2.5343511, 2.4435, -0.8931298
0.2882647, -0.0149386, 2.45025, -0.015625, 2.45025, -1.0050049, 2.45025, -0.1126709, 2.45025, 1.5114504, 2.45025, 2.4656489, 2.45025, -0.740458
0.2890588, -0.0159457, 2.457, -0.0213013, 2.457, -1.0043945, 2.457, -0.1100464, 2.457, 1.4961832, 2.457, 2.3664122, 2.457, -0.908397
0.2898529, -0.0176242, 2.46375, -0.0201416, 2.46375, -1.0048218, 2.46375, -0.1075439, 2.46375, 1.4961832, 2.46375, 2.1374047, 2.46375, -1
0.2906471, -0.0226596, 2.4705, -0.0230713, 2.4705, -1.0076904, 2.4705, -0.1043091, 2.4705, 1.3206106, 2.4705, 2.0839694, 2.4705, -1.0839695
0.2914412, -0.0253452, 2.47725, -0.022522, 2.47725, -1.0130005, 2.47725, -0.1026001, 2.47725, 1.1526718, 2.47725, 1.6030535, 2.47725, -1.1832061
0.2922353, -0.0250095, 2.484, -0.0231934, 2.484, -1.0110474, 2.484, -0.1017456, 2.484, 1.091603, 2.484, 1.4045801, 2.484, -1.221374
0.2930294, -0.0270237, 2.49075, -0.0217896, 2.49075, -1.0090942, 2.49075, -0.1004028, 2.49075, 0.8854962, 2.49075, 1.2061069, 2.49075, -1.351145
0.2938235, -0.0270237, 2.4975, -0.0214844, 2.4975, -1.0081787, 2.4975, -0.1030273, 2.4975, 0.7328244, 2.4975, 0.8320611, 2.4975, -1.5648855
0.2946176, -0.0229953, 2.50425, -0.0216675, 2.50425, -1.0054321, 2.50425, -0.1022949, 2.50425, 0.3358779, 2.50425, 1.0839695, 2.50425, -1.4961832
0.2954118, -0.0231632, 2.511, -0.0244751, 2.511, -1.0085449, 2.511, -0.1016235, 2.511, 0.0458015, 2.511, 0.5954198, 2.511, -1.7938931
0.2962059, -0.023331, 2.51775, -0.0257568, 2.51775, -1.0040283, 2.51775, -0.0974731, 2.51775, -0.2290076, 2.51775, 0.8167939, 2.51775, -1.8396946
0.297, -0.0209812, 2.5245, -0.0297852, 2.5245, -1.0037842, 2.5245, -0.0955811, 2.5245, -0.5648855, 2.5245, 0.259542, 2.5245, -1.778626
0.2977941, -0.0169528, 2.53125, -0.0333862, 2.53125, -1.0057983, 2.53125, -0.0927734, 2.53125, -0.7938932, 2.53125, 0.0076336, 2.53125, -1.8396946
0.2985882, -0.0199741, 2.538, -0.0352173, 2.538, -1.0054321, 2.538, -0.0939331, 2.538, -1.0610687, 2.538, -0.740458, 2.538, -1.9236641
0.2993824, -0.0179599, 2.54475, -0.0321045, 2.54475, -1.0020752, 2.54475, -0.0977173, 2.54475, -1.4122137, 2.54475, -1.3053435, 2.54475, -2.1679389
0.3001765, -0.0159457, 2.5515, -0.0267944, 2.5515, -0.9985962, 2.5515, -0.100769, 2.5515, -1.7099236, 2.5515, -1.7709924, 2.5515, -2.2290077
0.3009706, -0.0169528, 2.55825, -0.0219727, 2.55825, -1.0006714, 2.55825, -0.1028442, 2.55825, -2, 2.55825, -1.9312977, 2.55825, -2.2290077
0.3017647, -0.0196384, 2.565, -0.0201416, 2.565, -0.9981079, 2.565, -0.107605, 2.565, -2.3129771, 2.565, -1.9694656, 2.565, -2.4961832
0.3025588, -0.0203098, 2.57175, -0.0202026, 2.57175, -1.0023193, 2.57175, -0.1124268, 2.57175, -2.7480917, 2.57175, -2.0305343, 2.57175, -2.6259542
0.3033529, -0.0213169, 2.5785, -0.0217285, 2.5785, -1.0059814, 2.5785, -0.1171875, 2.5785, -2.9770992, 2.5785, -1.961832, 2.5785, -2.6564887
0.3041471, -0.0213169, 2.58525, -0.0202026, 2.58525, -1.0096436, 2.58525, -0.1201172, 2.58525, -2.9923663, 2.58525, -1.9770992, 2.58525, -2.5877862
0.3049412, -0.0223239, 2.592, -0.0171509, 2.592, -1.0075073, 2.592, -0.1193237, 2.592, -3.1450381, 2.592, -2.0534351, 2.592, -2.4274809
0.3057353, -0.0234989, 2.59875, -0.015686, 2.59875, -1.0042725, 2.59875, -0.1192017, 2.59875, -3.1984732, 2.59875, -1.8244275, 2.59875, -2.6412213
0.3065294, -0.0204776, 2.6055, -0.0154419, 2.6055, -1.008728, 2.6055, -0.1240845, 2.6055, -3.2519083, 2.6055, -1.7175573, 2.6055, -2.8549619
0.3073235, -0.018967, 2.61225, -0.0128784, 2.61225, -1.0082397, 2.61225, -0.1276245, 2.61225, -3.2290077, 2.61225, -1.7557251, 2.61225, -2.8549619
0.3081176, -0.0129244, 2.619, -0.0115356, 2.619, -1.0081177, 2.619, -0.1282959, 2.619, -3.4503818, 2.619, -1.3816794, 2.619, -2.8320611
0.3089118, -0.0135958, 2.62575, -0.0134277, 2.62575, -1.0087891, 2.62575, -0.1254883, 2.62575, -3.5267177, 2.62575, -1.0610687, 2.62575, -2.8396947
0.3097059, -0.0139315, 2.6325, -0.0166626, 2.6325, -1.006958, 2.6325, -0.1248779, 2.6325, -3.6717558, 2.6325, -0.6793893, 2.6325, -2.9007633
0.3105, -0.0102388, 2.63925, -0.0222778, 2.63925, -1.003479, 2.63925, -0.1257935, 2.63925, -3.610687, 2.63925, -0.9541985, 2.63925, -2.8167939
0.3112941, -0.0102388, 2.646, -0.0264282, 2.646, -1.005249, 2.646, -0.1273804, 2.646, -3.6412213, 2.646, -1.2366412, 2.646, -2.8091602
0.3120882, -0.0092317, 2.65275, -0.0292358, 2.65275, -1.0038452, 2.65275, -0.1248779, 2.65275, -3.7022901, 2.65275, -1.6030535, 2.65275, -3.0458016
0.3128824, -0.0082246, 2.6595, -0.0251465, 2.6595, -1.005249, 2.6595, -0.1225586, 2.6595, -3.9847329, 2.6595, -1.870229, 2.6595, -3.1374047
0.3136765, -0.0092317, 2.66625, -0.0238037, 2.66625, -1.0057373, 2.66625, -0.1246948, 2.66625, -4.0992365, 2.66625, -1.8854961, 2.66625, -3.0076337
0.3144706, -0.0115816, 2.673, -0.0183105, 2.673, -1.0076904, 2.673, -0.1229248, 2.673, -4.2366414, 2.673, -2.0305343, 2.673, -2.8931298
0.3152647, -0.0085603, 2.67975, -0.0195312, 2.67975, -1.0075684, 2.67975, -0.12323, 2.67975, -4.221374, 2.67975, -1.9465649, 2.67975, -2.9923663
0.3160588, -0.0083925, 2.6865, -0.0169067, 2.6865, -1.0057373, 2.6865, -0.1251831, 2.6865, -4.3511453, 2.6865, -1.9160305, 2.6865, -3.0534351
0.3168529, -0.0075532, 2.69325, -0.0145874, 2.69325, -1.0076294, 2.69325, -0.1259766, 2.69325, -4.259542, 2.69325, -1.7633588, 2.69325, -3.1908398
0.3176471, -0.0082246, 2.7, -0.0182495, 2.7, -1.0093994, 2.7, -0.1259155, 2.7, -4.3435116, 2.7, -1.610687, 2.7, -3.1679389
0.3184412, -0.0132601, 2.70675, -0.0182495, 2.70675, -1.0091553, 2.70675, -0.1224976, 2.70675, -4.2442746, 2.70675, -1.7022901, 2.70675, -3.2061069
0.3192353, -0.0135958, 2.7135, -0.0181885, 2.7135, -1.0106812, 2.7135, -0.1329956, 2.7135, -4.2519083, 2.7135, -2.221374, 2.7135, -3.3664122
0.3200294, -0.0149386, 2.72025, -0.0162964, 2.72025, -1.0081177, 2.72025, -0.133728, 2.72025, -4.2366414, 2.72025, -2.4274809, 2.72025, -3.4580152
0.3208235, -0.0142672, 2.727, -0.0212402, 2.727, -1.005249, 2.727, -0.1358032, 2.727, -4.3664122, 2.727, -2.8473282, 2.727, -3.5648854
0.3216176, -0.0129244, 2.73375, -0.0217285, 2.73375, -1.0073853, 2.73375, -0.1351318, 2.73375, -4.2977099, 2.73375, -3.3664122, 2.73375, -3.6946564
0.3224118, -0.008896, 2.7405, -0.0194702, 2.7405, -1.0076294, 2.7405, -0.1362915, 2.7405, -4.0229006, 2.7405, -3.4961832, 2.7405, -3.7709923
0.3232059, -0.0117494, 2.74725, -0.0159912, 2.74725, -1.0065308, 2.74725, -0.1419067, 2.74725, -4.1068702, 2.74725, -3.6717558, 2.74725, -3.778626
0.324, -0.0142672, 2.754, -0.0178223, 2.754, -1.0073242, 2.754, -0.1420288, 2.754, -4.259542, 2.754, -3.2748091, 2.754, -3.6030533
0.3247941, -0.0135958, 2.76075, -0.0196533, 2.76075, -1.0062256, 2.76075, -0.140686, 2.76075, -4.0458016, 2.76075, -3, 2.76075, -3.6946564
0.3255882, -0.0109102, 2.7675, -0.0178833, 2.7675, -1.0043945, 2.7675, -0.1456909, 2.7675, -3.9160306, 2.7675, -2.8778627, 2.7675, -3.6564887
0.3263824, -0.0117494, 2.77425, -0.0166016, 2.77425, -1.0046997, 2.77425, -0.1472778, 2.77425, -4.0992365, 2.77425, -2.9312978, 2.77425, -3.5419848
0.3271765, -0.0115816, 2.781, -0.0117798, 2.781, -1.0084229, 2.781, -0.142395, 2.781, -3.9770992, 2.781, -2.6564887, 2.781, -3.5343511
0.3279706, -0.0082246, 2.78775, -0.0151367, 2.78775, -1.0078735, 2.78775, -0.1469727, 2.78775, -3.9007633, 2.78775, -2.5496182, 2.78775, -3.4122138
0.3287647, -0.0129244, 2.7945, -0.0181274, 2.7945, -1.0060425, 2.7945, -0.1495972, 2.7945, -3.6870229, 2.7945, -2.4274809, 2.7945, -3.6946564
0.3295588, -0.0193027, 2.80125, -0.0194092, 2.80125, -1.0090332, 2.80125, -0.151001, 2.80125, -3.7099237, 2.80125, -2.908397, 2.80125, -3.8320611
0.3303529, -0.0176242, 2.808, -0.017334, 2.808, -1.0095215, 2.808, -0.1456299, 2.808, -3.5496182, 2.808, -3.5114503, 2.808, -3.8320611
0.3311471, -0.0162814, 2.81475, -0.0165405, 2.81475, -1.0073853, 2.81475, -0.1464233, 2.81475, -3.389313, 2.81475, -3.9847329, 2.81475, -3.908397
0.3319412, -0.0186313, 2.8215, -0.0177002, 2.8215, -1.0076294, 2.8215, -0.1464233, 2.8215, -3.2061069, 2.8215, -4.1526718, 2.8215, -3.8396947
0.3327353, -0.0213169, 2.82825, -0.0163574, 2.82825, -1.005249, 2.82825, -0.1499023, 2.82825, -3.221374, 2.82825, -4.1679387, 2.82825, -4.1526718
0.3335294, -0.0218204, 2.835, -0.0182495, 2.835, -1.0092163, 2.835, -0.1446533, 2.835, -2.9465649, 2.835, -4.4961834, 2.835, -3.9236641
0.3343235, -0.0209812, 2.84175, -0.0143433, 2.84175, -1.0078125, 2.84175, -0.1453247, 2.84175, -3.0305343, 2.84175, -4.5496182, 2.84175, -3.8320611
0.3351176, -0.0206455, 2.8485, -0.0153198, 2.8485, -1.0079956, 2.8485, -0.140686, 2.8485, -3.0229008, 2.8485, -4.3053436, 2.8485, -3.8549619
0.3359118, -0.0219883, 2.85525, -0.0204468, 2.85525, -1.0100098, 2.85525, -0.1411133, 2.85525, -2.7709923, 2.85525, -3.9694657, 2.85525, -3.908397
0.3367059, -0.0209812, 2.862, -0.0240479, 2.862, -1.005127, 2.862, -0.1459351, 2.862, -2.648855, 2.862, -4.3587785, 2.862, -3.7099237
0.3375, -0.0186313, 2.86875, -0.019165, 2.86875, -1.0078735, 2.86875, -0.1436768, 2.86875, -2.5801528, 2.86875, -4.7099237, 2.86875, -3.7328243
0.3382941, -0.0135958, 2.8755, -0.0168457, 2.8755, -1.0109863, 2.8755, -0.142334, 2.8755, -2.5572519, 2.8755, -5.0610685, 2.8755, -3.8931298
0.3390882, -0.0152743, 2.88225, -0.0158691, 2.88225, -1.0148315, 2.88225, -0.1414795, 2.88225, -2.610687, 2.88225, -5.0839696, 2.88225, -3.961832
0.3398824, -0.0162814, 2.889, -0.0132446, 2.889, -1.0108643, 2.889, -0.1432495, 2.889, -2.6717558, 2.889, -5.2977099, 2.889, -4.1755724
0.3406765, -0.0151064, 2.89575, -0.0107422, 2.89575, -1.0118408, 2.89575, -0.1449585, 2.89575, -2.351145, 2.89575, -4.9847326, 2.89575, -4.0458016
0.3414706, -0.0166171, 2.9025, -0.015564, 2.9025, -1.008606, 2.9025, -0.1464233, 2.9025, -2.1755726, 2.9025, -4.5725193, 2.9025, -4.2290077
0.3422647, -0.01561, 2.90925, -0.0152588, 2.90925, -1.0083618, 2.90925, -0.1467896, 2.90925, -2.3206108, 2.90925, -4.4885497, 2.90925, -4.3129773
0.3430588, -0.0139315, 2.916, -0.0119629, 2.916, -1.0087891, 2.916, -0.1482544, 2.916, -2.3664122, 2.916, -4.2442746, 2.916, -4.3282442
0.3438529, -0.012253, 2.92275, -0.0160522, 2.92275, -1.0063477, 2.92275, -0.1472168, 2.92275, -2.4351146, 2.92275, -4.1832061, 2.92275, -4.2824426
0.3446471, -0.0102388, 2.9295, -0.015686, 2.9295, -1.0039062, 2.9295, -0.1446533, 2.9295, -2.3053436, 2.9295, -3.6946564, 2.9295, -4.0534353
0.3454412, -0.008896, 2.93625, -0.0232544, 2.93625, -1.0045776, 2.93625, -0.147522, 2.93625, -2.3969467, 2.93625, -3.778626, 2.93625, -4.1450381
0.3462353, -0.0075532, 2.943, -0.019104, 2.943, -1.0062866, 2.943, -0.1481934, 2.943, -2.4351146, 2.943, -3.5114503, 2.943, -4.1374044
0.3470294, -0.0095674, 2.94975, -0.0171509, 2.94975, -1.0029297, 2.94975, -0.1444702, 2.94975, -2.4351146, 2.94975, -3.5038168, 2.94975, -4.5267177
0.3478235, -0.0095674, 2.9565, -0.0178223, 2.9565, -1.0004883, 2.9565, -0.1410522, 2.9565, -2.5572519, 2.9565, -3.610687, 2.9565, -4.3053436
0.3486176, -0.0082246, 2.96325, -0.0187378, 2.96325, -1.0037842, 2.96325, -0.1421509, 2.96325, -2.8167939, 2.96325, -3.3129771, 2.96325, -4.2671757
0.3494118, -0.0112459, 2.97, -0.0220947, 2.97, -1.0085449, 2.97, -0.1428223, 2.97, -2.5725191, 2.97, -3.8091602, 2.97, -4.2824426
0.3502059, -0.0115816, 2.97675, -0.0161133, 2.97675, -1.0054321, 2.97675, -0.149292, 2.97675, -2.5877862, 2.97675, -3.7862597, 2.97675, -4.5038166
0.351, -0.0117494, 2.9835, -0.0140991, 2.9835, -1.0077515, 2.9835, -0.1460571, 2.9835, -2.4961832, 2.9835, -3.7251909, 2.9835, -4.7251906
0.3517941, -0.0162814, 2.99025, -0.0140991, 2.99025, -1.0124512, 2.99025, -0.1539917, 2.99025, -2.5267177, 2.99025, -3.7557251, 2.99025, -4.7099237
0.3525882, -0.0229953, 2.997, -0.0145264, 2.997, -1.0150757, 2.997, -0.1546021, 2.997, -2.3053436, 2.997, -3.3587787, 2.997, -4.6106873
0.3533824, -0.0240024, 3.00375, -0.0084229, 3.00375, -1.0107422, 3.00375, -0.161438, 3.00375, -2.2137403, 3.00375, -3.2137403, 3.00375, -4.5419846
0.3541765, -0.0196384, 3.0105, -0.0108643, 3.0105, -1.0049438, 3.0105, -0.1629639, 3.0105, -1.9923664, 3.0105, -2.9007633, 3.0105, -4.5572519
0.3549706, -0.0198062, 3.01725, -0.0101318, 3.01725, -1.0062866, 3.01725, -0.1653442, 3.01725, -1.9770992, 3.01725, -2.4351146, 3.01725, -4.4732823
0.3557647, -0.0226596, 3.024, -0.008667, 3.024, -1.0065308, 3.024, -0.164917, 3.024, -1.5572519, 3.024, -2.5954199, 3.024, -4.6717558
0.3565588, -0.0213169, 3.03075, -0.0090942, 3.03075, -1.0076904, 3.03075, -0.1688843, 3.03075, -1.351145, 3.03075, -1.8778626, 3.03075, -4.5343513
0.3573529, -0.0203098, 3.0375, -0.0065308, 3.0375, -1.0097046, 3.0375, -0.1700439, 3.0375, -1.1908396, 3.0375, -1.9923664, 3.0375, -4.5267177
0.3581471, -0.0199741, 3.04425, 0.0009155, 3.04425, -1.0068359, 3.04425, -0.1681519, 3.04425, -1.038168, 3.04425, -1.5572519, 3.04425, -4.5725193
0.3589412, -0.0159457, 3.051, 0.0008545, 3.051, -1.0048828, 3.051, -0.170105, 3.051, -0.7328244, 3.051, -0.7557252, 3.051, -4.519084
0.3597353, -0.0129244, 3.05775, 0.0010986, 3.05775, -1.0080566, 3.05775, -0.1737061, 3.05775, -0.5648855, 3.05775, -0.2824427, 3.05775, -4.3816795
0.3605294, -0.0169528, 3.0645, -0.0003662, 3.0645, -1.0074463, 3.0645, -0.1759033, 3.0645, -0.2824427, 3.0645, 0.4274809, 3.0645, -4.4961834
0.3613235, -0.01561, 3.07125, -0.0009766, 3.07125, -1.0067749, 3.07125, -0.1756592, 3.07125, -0.1450382, 3.07125, 0.8167939, 3.07125, -4.3893127
0.3621176, -0.0142672, 3.078, -0.0040894, 3.078, -1.0096436, 3.078, -0.1765137, 3.078, -0.0763359, 3.078, 0.778626, 3.078, -4.4503818
0.3629118, -0.0166171, 3.08475, -0.0055542, 3.08475, -1.005188, 3.08475, -0.1759644, 3.08475, -0.0229008, 3.08475, 1.0763359, 3.08475, -4.4885497
0.3637059, -0.0167849, 3.0915, -0.0050049, 3.0915, -1.0090942, 3.0915, -0.170105, 3.0915, 0.4045801, 3.0915, 1.0992366, 3.0915, -4.4656487
0.3645, -0.0169528, 3.09825, -0.0064087, 3.09825, -1.0028687, 3.09825, -0.1724854, 3.09825, 0.6030535, 3.09825, 1.3435115, 3.09825, -4.4427481
0.3652941, -0.0172885, 3.105, -0.0065918, 3.105, -1.0041504, 3.105, -0.1670532, 3.105, 0.6030535, 3.105, 1.4045801, 3.105, -4.5038166
0.3660882, -0.0169528, 3.11175, -0.0117188, 3.11175, -1.00354, 3.11175, -0.1643677, 3.11175, 0.778626, 3.11175, 1.5725191, 3.11175, -4.4961834
0.3668824, -0.018967, 3.1185, -0.0136108, 3.1185, -1.0008545, 3.1185, -0.1598511, 3.1185, 0.870229, 3.1185, 2.0305343, 3.1185, -4.4885497
0.3676765, -0.0176242, 3.12525, -0.0133057, 3.12525, -1.0004883, 3.12525, -0.1599731, 3.12525, 1.0534351, 3.12525, 2.3053436, 3.12525, -4.5801525
0.3684706, -0.0176242, 3.132, -0.0162964, 3.132, -1, 3.132, -0.1544189, 3.132, 0.8778626, 3.132, 2.2900763, 3.132, -4.4580154
0.3692647, -0.01561, 3.13875, -0.0214844, 3.13875, -1.0015259, 3.13875, -0.1503906, 3.13875, 0.7709923, 3.13875, 2.2137403, 3.13875, -4.4885497
0.3700588, -0.0182956, 3.1455, -0.022583, 3.1455, -1.0007324, 3.1455, -0.1489868, 3.1455, 0.6412213, 3.1455, 1.8549619, 3.1455, -4.5496182
0.3708529, -0.018967, 3.15225, -0.0217896, 3.15225, -1.0038452, 3.15225, -0.1448364, 3.15225, 0.5954198, 3.15225, 1.778626, 3.15225, -4.6870227
0.3716471, -0.0162814, 3.159, -0.0198975, 3.159, -1.0050659, 3.159, -0.1432495, 3.159, 0.7328244, 3.159, 1.129771, 3.159, -4.6259542
0.3724412, -0.0198062, 3.16575, -0.012207, 3.16575, -1.0076904, 3.16575, -0.1470337, 3.16575, 0.519084, 3.16575, 0.8549618, 3.16575, -4.6870227
0.3732353, -0.0176242, 3.1725, -0.008606, 3.1725, -1.0065918, 3.1725, -0.1486206, 3.1725, 0.3206107, 3.1725, 1.0839695, 3.1725, -5
0.3740294, -0.0182956, 3.17925, -0.0106201, 3.17925, -1.0056152, 3.17925, -0.1438599, 3.17925, 0.0534351, 3.17925, 1.2290076, 3.17925, -5.038168
0.3748235, -0.0184634, 3.186, -0.0128174, 3.186, -1.00354, 3.186, -0.1463623, 3.186, 0.1145038, 3.186, 1.1603054, 3.186, -5.0763359
0.3756176, -0.0129244, 3.19275, -0.0143433, 3.19275, -1.003479, 3.19275, -0.1514893, 3.19275, -0.0381679, 3.19275, 0.8854962, 3.19275, -4.9770994
0.3764118, -0.0149386, 3.1995, -0.0136719, 3.1995, -1.0070801, 3.1995, -0.1555786, 3.1995, -0.2977099, 3.1995, 0.2900763, 3.1995, -5.1297708
0.3772059, -0.0135958, 3.20625, -0.0108643, 3.20625, -1.007019, 3.20625, -0.1552124, 3.20625, -0.5419847, 3.20625, 0.0687023, 3.20625, -5.3893127
0.378, -0.0095674, 3.213, -0.0120239, 3.213, -1.0055542, 3.213, -0.1536865, 3.213, -0.3969466, 3.213, 0.0610687, 3.213, -5.4427481
0.3787941, -0.0068818, 3.21975, -0.012146, 3.21975, -1.0025635, 3.21975, -0.1569824, 3.21975, -0.6030535, 3.21975, 0.1679389, 3.21975, -5.2061067
0.3795882, -0.0016785, 3.2265, -0.0163574, 3.2265, -1.0029907, 3.2265, -0.1534424, 3.2265, -0.6335878, 3.2265, -0.3587786, 3.2265, -5.4732823
0.3803824, -0.002182, 3.23325, -0.013855, 3.23325, -1.0020752, 3.23325, -0.1589966, 3.23325, -0.6335878, 3.23325, -0.610687, 3.23325, -5.4885497
0.3811765, -0.0052033, 3.24, -0.0126953, 3.24, -1.0066528, 3.24, -0.15625, 3.24, -0.8091603, 3.24, -1.0534351, 3.24, -5.5648856
0.3819706, -0.0095674, 3.24675, -0.0098877, 3.24675, -1.0070801, 3.24675, -0.1546631, 3.24675, -0.6793893, 3.24675, -1.3435115, 3.24675, -5.4656487
0.3827647, -0.008896, 3.2535, -0.0061646, 3.2535, -1.0061035, 3.2535, -0.1542358, 3.2535, -0.6946565, 3.2535, -1.4580153, 3.2535, -5.3893127
0.3835588, -0.008896, 3.26025, -0.0057983, 3.26025, -1.0059204, 3.26025, -0.1560669, 3.26025, -0.8167939, 3.26025, -1.5572519, 3.26025, -5.5267177
0.3843529, -0.0127565, 3.267, -0.0028687, 3.267, -1.0076294, 3.267, -0.1553955, 3.267, -0.6793893, 3.267, -1.4198474, 3.267, -5.4885497
0.3851471, -0.0109102, 3.27375, -0.0015869, 3.27375, -1.0094604, 3.27375, -0.1586304, 3.27375, -0.7022901, 3.27375, -1.6335878, 3.27375, -5.4503818
0.3859412, -0.0099031, 3.2805, -0.0015259, 3.2805, -1.0097046, 3.2805, -0.1594849, 3.2805, -0.7251908, 3.2805, -1.6793894, 3.2805, -5.4198475
0.3867353, -0.0109102, 3.28725, 0.0003662, 3.28725, -1.0070801, 3.28725, -0.1595459, 3.28725, -0.6030535, 3.28725, -1.5877863, 3.28725, -5.3816795
0.3875294, -0.0146029, 3.294, -0.001709, 3.294, -1.0043335, 3.294, -0.1618652, 3.294, -0.5648855, 3.294, -1.8625954, 3.294, -5.3206105
0.3883235, -0.0169528, 3.30075, -0.0037231, 3.30075, -1.0049438, 3.30075, -0.1665649, 3.30075, -0.2748092, 3.30075, -2.2671757, 3.30075, -5.3129773
0.3891176, -0.0193027, 3.3075, -0.0013428, 3.3075, -1.0077515, 3.3075, -0.1661987, 3.3075, -0.3435115, 3.3075, -2.3740458, 3.3075, -5.2671757
0.3899118, -0.0216526, 3.31425, 0.0041504, 3.31425, -1.0096436, 3.31425, -0.1690063, 3.31425, -0.2900763, 3.31425, -2.4961832, 3.31425, -5.0839696
0.3907059, -0.0234989, 3.321, 0.0054321, 3.321, -1.0026855, 3.321, -0.1646118, 3.321, -0.2900763, 3.321, -2.778626, 3.321, -5.0763359
0.3915, -0.0199741, 3.32775, 0.0089722, 3.32775, -1.0101318, 3.32775, -0.1708984, 3.32775, -0.1450382, 3.32775, -2.480916, 3.32775, -5.2061067
0.3922941, -0.0162814, 3.3345, 0.0093384, 3.3345, -1.0079956, 3.3345, -0.1746826, 3.3345, -0.0152672, 3.3345, -2.5038168, 3.3345, -5.2519083
0.3930882, -0.0142672, 3.34125, 0.0114746, 3.34125, -1.0067139, 3.34125, -0.1796875, 3.34125, 0.4503817, 3.34125, -1.6412214, 3.34125, -5.1145039
0.3938824, -0.01561, 3.348, 0.0079956, 3.348, -1.0075073, 3.348, -0.1721191, 3.348, 0.2977099, 3.348, -0.9770992, 3.348, -5.0763359
0.3946765, -0.0146029, 3.35475, -0.0014648, 3.35475, -1.0060425, 3.35475, -0.1745605, 3.35475, 0.5114504, 3.35475, -0.519084, 3.35475, -5.038168
0.3954706, -0.0149386, 3.3615, -0.0056152, 3.3615, -1.0090332, 3.3615, -0.1734009, 3.3615, 0.6793893, 3.3615, -0.5496183, 3.3615, -4.9541984
0.3962647, -0.0132601, 3.36825, -0.0024414, 3.36825, -1.0079346, 3.36825, -0.171936, 3.36825, 0.9541985, 3.36825, -0.778626, 3.36825, -5
0.3970588, -0.0146029, 3.375, 0.0025635, 3.375, -1.0089722, 3.375, -0.1678467, 3.375, 1.2061069, 3.375, -0.6412213, 3.375, -4.9923663
0.3978529, -0.0172885, 3.38175, 0.0046387, 3.38175, -1.0109253, 3.38175, -0.1671753, 3.38175, 1.3969465, 3.38175, 0.1374046, 3.38175, -4.8015265
0.3986471, -0.0159457, 3.3885, 0.0078125, 3.3885, -1.0090332, 3.3885, -0.1676025, 3.3885, 1.519084, 3.3885, 0.4045801, 3.3885, -4.8931298
0.3994412, -0.0164492, 3.39525, 0.0072632, 3.39525, -1.0117798, 3.39525, -0.1689453, 3.39525, 1.4885496, 3.39525, 0.6717557, 3.39525, -4.7709923
0.4002353, -0.0176242, 3.402, 0.0044556, 3.402, -1.0106812, 3.402, -0.1644897, 3.402, 1.4732825, 3.402, 1.1679389, 3.402, -4.7175574
0.4010294, -0.0149386, 3.40875, 0.0009766, 3.40875, -1.0092163, 3.40875, -0.1601562, 3.40875, 1.6717557, 3.40875, 1.1374046, 3.40875, -4.6717558
0.4018235, -0.0196384, 3.4155, -0.0002441, 3.4155, -1.0095215, 3.4155, -0.1599731, 3.4155, 1.5954199, 3.4155, 1.0992366, 3.4155, -4.9007635
0.4026176, -0.0206455, 3.42225, 0.0023193, 3.42225, -1.0059814, 3.42225, -0.1593628, 3.42225, 1.610687, 3.42225, 0.8015267, 3.42225, -4.6641221
0.4034118, -0.0182956, 3.429, 0.0025024, 3.429, -1.0004883, 3.429, -0.1592407, 3.429, 1.480916, 3.429, 0.7938932, 3.429, -5.0687022
0.4042059, -0.0203098, 3.43575, 0.0001221, 3.43575, -1.0032349, 3.43575, -0.1595459, 3.43575, 1.4732825, 3.43575, 0.5877863, 3.43575, -4.9923663
0.405, -0.0226596, 3.4425, -0.0026855, 3.4425, -1.0049438, 3.4425, -0.1571655, 3.4425, 1.5267175, 3.4425, 0.4351145, 3.4425, -4.9465647
0.4057941, -0.0203098, 3.44925, -0.0092773, 3.44925, -1.0025024, 3.44925, -0.1560669, 3.44925, 1.4961832, 3.44925, 0.0534351, 3.44925, -4.8702292
0.4065882, -0.0218204, 3.456, -0.0116577, 3.456, -1.0018311, 3.456, -0.1528931, 3.456, 1.4961832, 3.456, -0.1908397, 3.456, -5.0916033
0.4073824, -0.0218204, 3.46275, -0.0123291, 3.46275, -1.0023804, 3.46275, -0.1477051, 3.46275, 1.3740458, 3.46275, -0.2061069, 3.46275, -5.1297708
0.4081765, -0.0194705, 3.4695, -0.0118408, 3.4695, -1.0045776, 3.4695, -0.1503906, 3.4695, 1.1984733, 3.4695, -0.4580153, 3.4695, -5.0229006
0.4089706, -0.0164492, 3.47625, -0.0084229, 3.47625, -1.0032349, 3.47625, -0.1537476, 3.47625, 0.8473282, 3.47625, -0.8854962, 3.47625, -4.8625956
0.4097647, -0.0169528, 3.483, -0.0015869, 3.483, -1.0025635, 3.483, -0.1529541, 3.483, 0.8625954, 3.483, -0.8396947, 3.483, -5.0076337
0.4105588, -0.0162814, 3.48975, 0.0025024, 3.48975, -1.0020752, 3.48975, -0.1540527, 3.48975, 0.5725191, 3.48975, -0.5038168, 3.48975, -5
0.4113529, -0.0129244, 3.4965, 0.0054321, 3.4965, -1.0029297, 3.4965, -0.15625, 3.4965, 0.6030535, 3.4965, -0.221374, 3.4965, -5.0687022
0.4121471, -0.0137636, 3.50325, 0.005127, 3.50325, -1.0036621, 3.50325, -0.1582031, 3.50325, 0.480916, 3.50325, 0.0916031, 3.50325, -4.8625956
0.4129412, -0.0102388, 3.51, 0.0072021, 3.51, -1.0067749, 3.51, -0.1636353, 3.51, 0.5267175, 3.51, 0.0610687, 3.51, -4.8473282
0.4137353, -0.0068818, 3.51675, 0.0073242, 3.51675, -1.0074463, 3.51675, -0.1637573, 3.51675, 0.6335878, 3.51675, -0.1450382, 3.51675, -4.6488547
0.4145294, -0.0102388, 3.5235, 0.0109863, 3.5235, -1.006958, 3.5235, -0.1677856, 3.5235, 0.5343512, 3.5235, 0.0610687, 3.5235, -4.7633586
0.4153235, -0.012253, 3.53025, 0.0142822, 3.53025, -1.0090332, 3.53025, -0.1669312, 3.53025, 0.5954198, 3.53025, 0.4503817, 3.53025, -4.8778625
0.4161176, -0.0135958, 3.537, 0.010437, 3.537, -1.0094604, 3.537, -0.1692505, 3.537, 0.7709923, 3.537, 0.6564885, 3.537, -4.6946564
0.4169118, -0.0152743, 3.54375, 0.0102539, 3.54375, -1.0097046, 3.54375, -0.1730347, 3.54375, 0.870229, 3.54375, 0.6564885, 3.54375, -4.5801525
0.4177059, -0.0182956, 3.5505, 0.0101318, 3.5505, -1.010498, 3.5505, -0.1721191, 3.5505, 0.9389313, 3.5505, 0.7099237, 3.5505, -4.5648856
0.4185, -0.0204776, 3.55725, 0.0135498, 3.55725, -1.0115356, 3.55725, -0.1707153, 3.55725, 1.2290076, 3.55725, 1.0763359, 3.55725, -4.480916
0.4192941, -0.0246738, 3.564, 0.0131836, 3.564, -1.0100098, 3.564, -0.1746826, 3.564, 1.3129771, 3.564, 0.9541985, 3.564, -4.5572519
0.4200882, -0.0218204, 3.57075, 0.0137329, 3.57075, -1.0059204, 3.57075, -0.1752319, 3.57075, 1.7251909, 3.57075, 1.3435115, 3.57075, -4.3893127
0.4208824, -0.0213169, 3.5775, 0.0181274, 3.5775, -1.0078125, 3.5775, -0.1796875, 3.5775, 1.9007634, 3.5775, 1.6030535, 3.5775, -4.2061067
0.4216765, -0.0213169, 3.58425, 0.0201416, 3.58425, -1.007019, 3.58425, -0.1812134, 3.58425, 2.2442749, 3.58425, 2.3587787, 3.58425, -4.0992365
0.4224706, -0.0223239, 3.591, 0.0197754, 3.591, -1.0095825, 3.591, -0.1814575, 3.591, 2.4198472, 3.591, 2.961832, 3.591, -4.1450381
0.4232647, -0.0216526, 3.59775, 0.0175781, 3.59775, -1.007019, 3.59775, -0.1812744, 3.59775, 2.6259542, 3.59775, 3.9236641, 3.59775, -4.0687022
0.4240588, -0.0176242, 3.6045, 0.0165405, 3.6045, -1.0065918, 3.6045, -0.1795044, 3.6045, 2.870229, 3.6045, 4.4732823, 3.6045, -3.908397
0.4248529, -0.0119173, 3.61125, 0.0131226, 3.61125, -1.0055542, 3.61125, -0.1769409, 3.61125, 3.2137403, 3.61125, 4.7251906, 3.61125, -3.8167939
0.4256471, -0.012253, 3.618, 0.0057373, 3.618, -1.0065308, 3.618, -0.1741943, 3.618, 3.1832061, 3.618, 4.9007635, 3.618, -3.9236641
0.4264412, -0.0135958, 3.62475, 0.0050659, 3.62475, -1.0057983, 3.62475, -0.1723633, 3.62475, 3.3282442, 3.62475, 5.0916033, 3.62475, -3.8167939
0.4272353, -0.0130922, 3.6315, 0.0056152, 3.6315, -1.0049438, 3.6315, -0.1687012, 3.6315, 3.5496182, 3.6315, 5.038168, 3.6315, -3.8854961
0.4280294, -0.0146029, 3.63825, 0.0061646, 3.63825, -1.0021973, 3.63825, -0.164978, 3.63825, 3.6870229, 3.63825, 4.9847326, 3.63825, -3.8167939
0.4288235, -0.0140993, 3.645, 0.0046997, 3.645, -1.0038452, 3.645, -0.1613159, 3.645, 3.778626, 3.645, 4.8625956, 3.645, -3.908397
0.4296176, -0.012253, 3.65175, 0.0029907, 3.65175, -1.0041504, 3.65175, -0.1586914, 3.65175, 3.7099237, 3.65175, 5.1374044, 3.65175, -3.8854961
0.4304118, -0.0159457, 3.6585, -0.0007324, 3.6585, -1.0036621, 3.6585, -0.1574097, 3.6585, 3.6641221, 3.6585, 5.0839696, 3.6585, -3.9236641
0.4312059, -0.0162814, 3.66525, -0.0039673, 3.66525, -1.0043335, 3.66525, -0.1538086, 3.66525, 3.6717558, 3.66525, 4.8167939, 3.66525, -3.9007633
0.432, -0.0078889, 3.672, -0.0040894, 3.672, -1.0031738, 3.672, -0.15271, 3.672, 3.5114503, 3.672, 4.3740458, 3.672, -4.0763359
0.4327941, -0.0085603, 3.67875, -0.0066528, 3.67875, -1.0049438, 3.67875, -0.1495972, 3.67875, 3.4351146, 3.67875, 3.9541984, 3.67875, -4.0534353
0.4335882, -0.0115816, 3.6855, -0.0039673, 3.6855, -1.0030518, 3.6855, -0.1449585, 3.6855, 3.2519083, 3.6855, 3.6564887, 3.6855, -4.259542
0.4343824, -0.0095674, 3.69225, -0.0024414, 3.69225, -1.0019531, 3.69225, -0.1474609, 3.69225, 3.1068702, 3.69225, 3.0152671, 3.69225, -4.3129773
0.4351765, -0.0095674, 3.699, -0.0038452, 3.699, -1.0032959, 3.699, -0.1465454, 3.699, 3.0687022, 3.699, 3.0992367, 3.699, -4.2900763
0.4359706, -0.0112459, 3.70575, -0.0019531, 3.70575, -1.0059204, 3.70575, -0.1427612, 3.70575, 2.8931298, 3.70575, 2.9236641, 3.70575, -4.1832061
0.4367647, -0.0082246, 3.7125, -0.0011597, 3.7125, -1.0073853, 3.7125, -0.1447754, 3.7125, 2.7022901, 3.7125, 2.610687, 3.7125, -4.4427481
0.4375588, -0.011078, 3.71925, 0.0014038, 3.71925, -1.0067139, 3.71925, -0.1452026, 3.71925, 2.6564887, 3.71925, 2.5267177, 3.71925, -4.5114503
0.4383529, -0.0129244, 3.726, 0.0001221, 3.726, -1.006958, 3.726, -0.1445312, 3.726, 2.5038168, 3.726, 2.2900763, 3.726, -4.6335878
0.4391471, -0.012253, 3.73275, 0.0012817, 3.73275, -1.0040894, 3.73275, -0.1491089, 3.73275, 2.351145, 3.73275, 2.3969467, 3.73275, -4.8396945
0.4399412, -0.012253, 3.7395, 0.0009766, 3.7395, -1.0075684, 3.7395, -0.1486206, 3.7395, 2.0839694, 3.7395, 2.4122138, 3.7395, -4.9083967
0.4407353, -0.0169528, 3.74625, 0.0028687, 3.74625, -1.0056152, 3.74625, -0.1459351, 3.74625, 1.9541985, 3.74625, 2.4885497, 3.74625, -4.9312978
0.4415294, -0.0166171, 3.753, -0.0026245, 3.753, -1.0033569, 3.753, -0.1469727, 3.753, 1.8396946, 3.753, 2.6183207, 3.753, -4.8549619
0.4423235, -0.012253, 3.75975, -0.0031738, 3.75975, -1.0063477, 3.75975, -0.1467896, 3.75975, 1.9236641, 3.75975, 2.2061069, 3.75975, -4.9770994
0.4431176, -0.0139315, 3.7665, -0.008728, 3.7665, -1.0056763, 3.7665, -0.1439819, 3.7665, 1.7328244, 3.7665, 1.6030535, 3.7665, -4.9312978
0.4439118, -0.0132601, 3.77325, -0.0058594, 3.77325, -1.0058594, 3.77325, -0.144165, 3.77325, 1.610687, 3.77325, 1.4656489, 3.77325, -4.9083967
0.4447059, -0.0115816, 3.78, -0.0011597, 3.78, -1.0042114, 3.78, -0.1452026, 3.78, 1.6335878, 3.78, 1.1832061, 3.78, -5.2290077
0.4455, -0.0129244, 3.78675, 0.0015869, 3.78675, -1.0093384, 3.78675, -0.144043, 3.78675, 1.3129771, 3.78675, 0.870229, 3.78675, -5.1068702
0.4462941, -0.0109102, 3.7935, 0.0032959, 3.7935, -1.0092163, 3.7935, -0.1464233, 3.7935, 1.221374, 3.7935, 0.4274809, 3.7935, -5
0.4470882, -0.0109102, 3.80025, 0.0070801, 3.80025, -1.0059204, 3.80025, -0.1489868, 3.80025, 1.2671756, 3.80025, 0.2824427, 3.80025, -5.2137403
0.4478824, -0.0102388, 3.807, 0.0120239, 3.807, -1.0111084, 3.807, -0.1484375, 3.807, 1.1374046, 3.807, 0.2442748, 3.807, -5.2061067
0.4486765, -0.0075532, 3.81375, 0.0133667, 3.81375, -1.010498, 3.81375, -0.1509399, 3.81375, 1.2824427, 3.81375, 0.4580153, 3.81375, -5.1297708
0.4494706, -0.0068818, 3.8205, 0.0133667, 3.8205, -1.0108643, 3.8205, -0.1507568, 3.8205, 1.221374, 3.8205, 0.4732825, 3.8205, -5.2137403
0.4502647, -0.0097353, 3.82725, 0.0114746, 3.82725, -1.0106812, 3.82725, -0.1536865, 3.82725, 1.3969465, 3.82725, 0.4045801, 3.82725, -5.1450381
0.4510588, -0.0137636, 3.834, 0.0108643, 3.834, -1.0072632, 3.834, -0.1508789, 3.834, 1.259542, 3.834, 0.2671756, 3.834, -5.0687022
0.4518529, -0.0152743, 3.84075, 0.0089111, 3.84075, -1.007019, 3.84075, -0.1524658, 3.84075, 1.0992366, 3.84075, 0.1603053, 3.84075, -5.0076337
0.4526471, -0.017792, 3.8475, 0.0115967, 3.8475, -1.0039062, 3.8475, -0.1541748, 3.8475, 1.0687023, 3.8475, 0.1603053, 3.8475, -5.2290077
0.4534412, -0.017792, 3.85425, 0.0124512, 3.85425, -1.0029907, 3.85425, -0.1537476, 3.85425, 1.0839695, 3.85425, 0.2137405, 3.85425, -5.1450381
0.4542353, -0.0182956, 3.861, 0.0129395, 3.861, -1.0027466, 3.861, -0.1542358, 3.861, 1.0839695, 3.861, 0.1603053, 3.861, -4.961832
0.4550294, -0.0172885, 3.86775, 0.0119629, 3.86775, -1.003479, 3.86775, -0.1497192, 3.86775, 1.1145039, 3.86775, 0.0916031, 3.86775, -4.9770994
0.4558235, -0.018967, 3.8745, 0.0087891, 3.8745, -1.0018311, 3.8745, -0.1451416, 3.8745, 1.0305344, 3.8745, -0.1068702, 3.8745, -4.9923663
0.4566176, -0.0169528, 3.88125, 0.013855, 3.88125, -1.00177, 3.88125, -0.1478271, 3.88125, 0.961832, 3.88125, -0.3435115, 3.88125, -5.1297708
0.4574118, -0.0142672, 3.888, 0.0126343, 3.888, -1.0023804, 3.888, -0.1484985, 3.888, 0.961832, 3.888, -0.5114504, 3.888, -4.8549619
0.4582059, -0.0140993, 3.89475, 0.0125732, 3.89475, -1.0036621, 3.89475, -0.1463623, 3.89475, 0.9312977, 3.89475, -0.610687, 3.89475, -4.9389315
0.459, -0.0119173, 3.9015, 0.0102539, 3.9015, -1.0031738, 3.9015, -0.1428833, 3.9015, 0.7862595, 3.9015, -0.4045801, 3.9015, -4.9847326
0.4597941, -0.0125887, 3.90825, 0.0119629, 3.90825, -1.0062866, 3.90825, -0.1451416, 3.90825, 0.6259542, 3.90825, -0.2671756, 3.90825, -5.0152674
0.4605882, -0.0129244, 3.915, 0.0136719, 3.915, -1.0057983, 3.915, -0.1450195, 3.915, 0.519084, 3.915, -0.2061069, 3.915, -4.9160304
0.4613824, -0.0130922, 3.92175, 0.0148926, 3.92175, -1.0033569, 3.92175, -0.1474609, 3.92175, 0.4351145, 3.92175, -0.1374046, 3.92175, -4.8167939
0.4621765, -0.0152743, 3.9285, 0.0164795, 3.9285, -1.0053711, 3.9285, -0.1437378, 3.9285, 0.3435115, 3.9285, 0.1984733, 3.9285, -4.7709923
0.4629706, -0.0115816, 3.93525, 0.0192261, 3.93525, -1.0072632, 3.93525, -0.1498413, 3.93525, 0.3129771, 3.93525, 0.3206107, 3.93525, -4.7709923
0.4637647, -0.0135958, 3.942, 0.0172119, 3.942, -1.012207, 3.942, -0.1538696, 3.942, 0.3358779, 3.942, 0.5877863, 3.942, -4.7022901
0.4645588, -0.0182956, 3.94875, 0.0196533, 3.94875, -1.0125122, 3.94875, -0.1525269, 3.94875, 0.2748092, 3.94875, 1, 3.94875, -4.6793895
0.4653529, -0.01561, 3.9555, 0.0172729, 3.9555, -1.0082397, 3.9555, -0.1555786, 3.9555, 0.2519084, 3.9555, 1.5267175, 3.9555, -4.6106873
0.4661471, -0.0149386, 3.96225, 0.017395, 3.96225, -1.0054932, 3.96225, -0.1571655, 3.96225, 0.3053435, 3.96225, 1.8625954, 3.96225, -4.7251906
0.4669412, -0.0166171, 3.969, 0.017395, 3.969, -1.0057373, 3.969, -0.1590576, 3.969, 0.1450382, 3.969, 1.7557251, 3.969, -4.6488547
0.4677353, -0.01561, 3.97575, 0.0169678, 3.97575, -1.0043945, 3.97575, -0.1572266, 3.97575, 0.0381679, 3.97575, 1.6641221, 3.97575, -4.7938933
0.4685294, -0.0179599, 3.9825, 0.0168457, 3.9825, -1.0026855, 3.9825, -0.1572266, 3.9825, 0.1374046, 3.9825, 1.519084, 3.9825, -4.7862597
0.4693235, -0.0206455, 3.98925, 0.0160522, 3.98925, -1.0019531, 3.98925, -0.1568604, 3.98925, 0.1145038, 3.98925, 1.3206106, 3.98925, -4.6412215
0.4701176, -0.021149, 3.996, 0.0130615, 3.996, -1.0031738, 3.996, -0.1577759, 3.996, 0.3358779, 3.996, 1.2137405, 3.996, -4.6870227
0.4709118, -0.0238346, 4.00275, 0.0169678, 4.00275, -1.0031128, 4.00275, -0.1602173, 4.00275, 0.3969466, 4.00275, 1.1145039, 4.00275, -4.7175574
0.4717059, -0.023331, 4.0095, 0.0161743, 4.0095, -1.0038452, 4.0095, -0.1627197, 4.0095, 0.5419847, 4.0095, 1.0992366, 4.0095, -4.6870227
0.4725, -0.0229953, 4.01625, 0.0196533, 4.01625, -1.005249, 4.01625, -0.1643677, 4.01625, 0.610687, 4.01625, 1.1984733, 4.01625, -4.6488547
0.4732941, -0.0203098, 4.023, 0.0165405, 4.023, -1.0029297, 4.023, -0.1639404, 4.023, 0.7251908, 4.023, 1.4045801, 4.023, -4.4732823
0.4740882, -0.0206455, 4.02975, 0.020813, 4.02975, -1.0090942, 4.02975, -0.1627197, 4.02975, 0.8320611, 4.02975, 1.7938931, 4.02975, -4.5877862
0.4748824, -0.0216526, 4.0365, 0.0178833, 4.0365, -1.0060425, 4.0365, -0.1654053, 4.0365, 0.8625954, 4.0365, 1.9312977, 4.0365, -4.3587785
0.4756765, -0.0149386, 4.04325, 0.0180054, 4.04325, -1.0089111, 4.04325, -0.1610718, 4.04325, 0.9694657, 4.04325, 1.9389313, 4.04325, -4.3587785
0.4764706, -0.0149386, 4.05, 0.0180054, 4.05, -1.0094604, 4.05, -0.1593628, 4.05, 1.0534351, 4.05, 2.0763359, 4.05, -4.3893127
0.4772647, -0.0149386, 4.05675, 0.0186157, 4.05675, -1.0076904, 4.05675, -0.1567383, 4.05675, 1.0992366, 4.05675, 2.4122138, 4.05675, -4.3664122
0.4780588, -0.0129244, 4.0635, 0.0206909, 4.0635, -1.0078735, 4.0635, -0.1548462, 4.0635, 1.0763359, 4.0635, 2.3206108, 4.0635, -4.3206105
0.4788529, -0.0139315, 4.07025, 0.0176392, 4.07025, -1.0089111, 4.07025, -0.1530151, 4.07025, 1.2061069, 4.07025, 2.5267177, 4.07025, -4.2748094
0.4796471, -0.0115816, 4.077, 0.0181885, 4.077, -1.0083008, 4.077, -0.1546021, 4.077, 1.1450381, 4.077, 2.4122138, 4.077, -4.2671757
0.4804412, -0.0112459, 4.08375, 0.0184937, 4.08375, -1.0045776, 4.08375, -0.1541138, 4.08375, 1.1908396, 4.08375, 2.2977099, 4.08375, -4.4045801
0.4812353, -0.0099031, 4.0905, 0.0189209, 4.0905, -1.0032959, 4.0905, -0.1533203, 4.0905, 1.2061069, 4.0905, 2.2061069, 4.0905, -4.3587785
0.4820294, -0.0099031, 4.09725, 0.0167847, 4.09725, -1.0037231, 4.09725, -0.1531372, 4.09725, 1.1984733, 4.09725, 1.9770992, 4.09725, -4.3740458
0.4828235, -0.0099031, 4.104, 0.0204468, 4.104, -1.0081787, 4.104, -0.1532593, 4.104, 1.3129771, 4.104, 1.9847329, 4.104, -4.2442746
0.4836176, -0.0115816, 4.11075, 0.0176392, 4.11075, -1.0092163, 4.11075, -0.1514893, 4.11075, 1.221374, 4.11075, 1.8244275, 4.11075, -4.4503818
0.4844118, -0.0139315, 4.1175, 0.0204468, 4.1175, -1.0037842, 4.1175, -0.1556396, 4.1175, 1.2748091, 4.1175, 1.740458, 4.1175, -4.2290077
0.4852059, -0.0186313, 4.12425, 0.0203857, 4.12425, -1.0048828, 4.12425, -0.15625, 4.12425, 1.129771, 4.12425, 1.8015267, 4.12425, -4.259542
0.486, -0.0216526, 4.131, 0.0192261, 4.131, -1.0055542, 4.131, -0.1547241, 4.131, 1.038168, 4.131, 1.6946565, 4.131, -4.1832061
0.4867941, -0.0199741, 4.13775, 0.0188599, 4.13775, -1.0031738, 4.13775, -0.1564331, 4.13775, 1.2061069, 4.13775, 1.6183206, 4.13775, -4.221374
0.4875882, -0.0209812, 4.1445, 0.0170898, 4.1445, -1.0060425, 4.1445, -0.1578369, 4.1445, 1.2366412, 4.1445, 1.8015267, 4.1445, -4.1068702
0.4883824, -0.0182956, 4.15125, 0.0163574, 4.15125, -1.0053711, 4.15125, -0.1536255, 4.15125, 1.259542, 4.15125, 1.7328244, 4.15125, -4.2824426
0.4891765, -0.0172885, 4.158, 0.0157471, 4.158, -1.0040283, 4.158, -0.1540527, 4.158, 1.2061069, 4.158, 1.6259542, 4.158, -4.1679387
0.4899706, -0.0162814, 4.16475, 0.0153809, 4.16475, -1.0071411, 4.16475, -0.1542358, 4.16475, 1.3053435, 4.16475, 1.5114504, 4.16475, -4.2900763
0.4907647, -0.0159457, 4.1715, 0.0176392, 4.1715, -1.0097046, 4.1715, -0.1561279, 4.1715, 1.4732825, 4.1715, 1.5801526, 4.1715, -4.2671757
0.4915588, -0.0149386, 4.17825, 0.0209961, 4.17825, -1.0064697, 4.17825, -0.1577148, 4.17825, 1.3282443, 4.17825, 1.5496184, 4.17825, -4.1221375
0.4923529, -0.0117494, 4.185, 0.022583, 4.185, -1.0084839, 4.185, -0.1573486, 4.185, 1.221374, 4.185, 1.908397, 4.185, -4.0839696
0.4931471, -0.012253, 4.19175, 0.0249634, 4.19175, -1.0037842, 4.19175, -0.156311, 4.19175, 1.4045801, 4.19175, 2.1374047, 4.19175, -4.1603055
0.4939412, -0.0146029, 4.1985, 0.0220337, 4.1985, -1.0058594, 4.1985, -0.1578979, 4.1985, 1.4427481, 4.1985, 2.3969467, 4.1985, -3.9465649
0.4947353, -0.0149386, 4.20525, 0.0229492, 4.20525, -1.0083008, 4.20525, -0.1560669, 4.20525, 1.3664122, 4.20525, 2.4885497, 4.20525, -4.0992365
0.4955294, -0.0115816, 4.212, 0.022522, 4.212, -1.007019, 4.212, -0.15625, 4.212, 1.3969465, 4.212, 2.6793892, 4.212, -4.0610685
0.4963235, -0.0142672, 4.21875, 0.0211792, 4.21875, -1.0061646, 4.21875, -0.1532593, 4.21875, 1.3740458, 4.21875, 2.4427481, 4.21875, -3.9160306
0.4971176, -0.01561, 4.2255, 0.017334, 4.2255, -1.0024414, 4.2255, -0.1533203, 4.2255, 1.5267175, 4.2255, 1.9847329, 4.2255, -4.038168
0.4979118, -0.0115816, 4.23225, 0.0203857, 4.23225, -1.0014648, 4.23225, -0.1542969, 4.23225, 1.5572519, 4.23225, 1.8015267, 4.23225, -3.9007633
0.4987059, -0.0152743, 4.239, 0.0184326, 4.239, -1.0025024, 4.239, -0.1520996, 4.239, 1.3587786, 4.239, 1.6870229, 4.239, -3.8778627
0.4995, -0.0162814, 4.24575, 0.0216064, 4.24575, -1.0023804, 4.24575, -0.1500244, 4.24575, 1.4351145, 4.24575, 1.2824427, 4.24575, -3.961832
0.5002941, -0.0193027, 4.2525, 0.0189209, 4.2525, -1.0054321, 4.2525, -0.1555786, 4.2525, 1.3740458, 4.2525, 0.9236641, 4.2525, -4.1755724
0.5010882, -0.0196384, 4.25925, 0.0206909, 4.25925, -1.0046387, 4.25925, -0.1557007, 4.25925, 1.3053435, 4.25925, 0.9389313, 4.25925, -3.8015268
0.5018824, -0.018967, 4.266, 0.0231323, 4.266, -1.0060425, 4.266, -0.1569824, 4.266, 1.3435115, 4.266, 1.0305344, 4.266, -4.0305343
0.5026765, -0.0203098, 4.27275, 0.0222778, 4.27275, -1.0057983, 4.27275, -0.1552124, 4.27275, 1.2519084, 4.27275, 1.221374, 4.27275, -4.0229006
0.5034706, -0.0209812, 4.2795, 0.0192871, 4.2795, -1.0043335, 4.2795, -0.1537476, 4.2795, 1.3129771, 4.2795, 1.6183206, 4.2795, -4.0305343
0.5042647, -0.0226596, 4.28625, 0.0169678, 4.28625, -1.0064697, 4.28625, -0.1549683, 4.28625, 1.519084, 4.28625, 1.8091604, 4.28625, -3.8091602
0.5050588, -0.0216526, 4.293, 0.0160522, 4.293, -1.0075684, 4.293, -0.1572876, 4.293, 1.389313, 4.293, 1.8091604, 4.293, -3.8625953
0.5058529, -0.0203098, 4.29975, 0.0185547, 4.29975, -1.0064697, 4.29975, -0.152832, 4.29975, 1.5114504, 4.29975, 1.6793894, 4.29975, -3.8015268
0.5066471, -0.0193027, 4.3065, 0.0180054, 4.3065, -1.0088501, 4.3065, -0.1547852, 4.3065, 1.4656489, 4.3065, 1.7022901, 4.3065, -3.6335878
0.5074412, -0.0142672, 4.31325, 0.0194702, 4.31325, -1.0084229, 4.31325, -0.1502075, 4.31325, 1.4351145, 4.31325, 1.778626, 4.31325, -3.8549619
0.5082353, -0.0157778, 4.32, 0.0201416, 4.32, -1.0092773, 4.32, -0.1531982, 4.32, 1.4656489, 4.32, 1.7938931, 4.32, -3.8091602
0.5090294, -0.0179599, 4.32675, 0.0220337, 4.32675, -1.0060425, 4.32675, -0.1536255, 4.32675, 1.5496184, 4.32675, 1.8167939, 4.32675, -3.6793892
0.5098235, -0.0146029, 4.3335, 0.0241089, 4.3335, -1.007019, 4.3335, -0.1529541, 4.3335, 1.3587786, 4.3335, 1.6641221, 4.3335, -3.6793892
0.5106176, -0.0082246, 4.34025, 0.024353, 4.34025, -1.0060425, 4.34025, -0.1504517, 4.34025, 1.5496184, 4.34025, 1.778626, 4.34025, -3.8167939
0.5114118, -0.0078889, 4.347, 0.0251465, 4.347, -1.0060425, 4.347, -0.1502075, 4.347, 1.4961832, 4.347, 1.870229, 4.347, -3.8244274
0.5122059, -0.0078889, 4.35375, 0.0217896, 4.35375, -1.0040894, 4.35375, -0.1483154, 4.35375, 1.5877863, 4.35375, 1.5801526, 4.35375, -3.5572519
0.513, -0.0041962, 4.3605, 0.0234375, 4.3605, -1.005249, 4.3605, -0.1499023, 4.3605, 1.4503816, 4.3605, 1.5114504, 4.3605, -3.5419848
0.5137941, -0.0085603, 4.36725, 0.0194702, 4.36725, -1.0072021, 4.36725, -0.1491699, 4.36725, 1.5267175, 4.36725, 1.6946565, 4.36725, -3.4885497
0.5145882, -0.0092317, 4.374, 0.0167236, 4.374, -1.0065918, 4.374, -0.1497803, 4.374, 1.3587786, 4.374, 1.5877863, 4.374, -3.6793892
0.5153824, -0.0109102, 4.38075, 0.0176392, 4.38075, -1.0056152, 4.38075, -0.1484375, 4.38075, 1.4580153, 4.38075, 1.3435115, 4.38075, -3.5267177
0.5161765, -0.0132601, 4.3875, 0.0145264, 4.3875, -1.003479, 4.3875, -0.1489258, 4.3875, 1.3435115, 4.3875, 1.0763359, 4.3875, -3.6030533
0.5169706, -0.0125887, 4.39425, 0.0167847, 4.39425, -1.006897, 4.39425, -0.1518555, 4.39425, 1.2671756, 4.39425, 0.8778626, 4.39425, -3.7022901
0.5177647, -0.0129244, 4.401, 0.022583, 4.401, -1.0046997, 4.401, -0.1523438, 4.401, 1.2748091, 4.401, 0.5954198, 4.401, -3.648855
0.5185588, -0.018967, 4.40775, 0.0228271, 4.40775, -1.0055542, 4.40775, -0.1482544, 4.40775, 1.3587786, 4.40775, 0.7709923, 4.40775, -3.6564887
0.5193529, -0.0176242, 4.4145, 0.0259399, 4.4145, -1.0067139, 4.4145, -0.1495972, 4.4145, 1.4732825, 4.4145, 0.9389313, 4.4145, -3.648855
0.5201471, -0.0209812, 4.42125, 0.0267944, 4.42125, -1.0081787, 4.42125, -0.1536255, 4.42125, 1.2748091, 4.42125, 1.1908396, 4.42125, -3.5877862
0.5209412, -0.0206455, 4.428, 0.0236816, 4.428, -1.0081177, 4.428, -0.1528931, 4.428, 1.038168, 4.428, 1.3587786, 4.428, -3.7480917
0.5217353, -0.0196384, 4.43475, 0.0255737, 4.43475, -1.0100098, 4.43475, -0.1504517, 4.43475, 0.961832, 4.43475, 1.6946565, 4.43475, -3.610687
0.5225294, -0.0199741, 4.4415, 0.0189209, 4.4415, -1.0072021, 4.4415, -0.1494141, 4.4415, 1.038168, 4.4415, 1.5648855, 4.4415, -3.4274809
0.5233235, -0.0181277, 4.44825, 0.0181274, 4.44825, -1.0066528, 4.44825, -0.1509399, 4.44825, 1.1221374, 4.44825, 1.5648855, 4.44825, -3.4122138
0.5241176, -0.0203098, 4.455, 0.0151978, 4.455, -1.0049438, 4.455, -0.1484375, 4.455, 1.0076336, 4.455, 1.2824427, 4.455, -3.6412213
0.5249118, -0.017792, 4.46175, 0.0187378, 4.46175, -1.0050049, 4.46175, -0.1489868, 4.46175, 1.0458015, 4.46175, 1.1450381, 4.46175, -3.4961832
0.5257059, -0.0142672, 4.4685, 0.0194092, 4.4685, -1.0037231, 4.4685, -0.1495972, 4.4685, 0.9465649, 4.4685, 0.8778626, 4.4685, -3.4045801
0.5265, -0.0139315, 4.47525, 0.0215454, 4.47525, -1.0059814, 4.47525, -0.1486816, 4.47525, 1.0152671, 4.47525, 0.7022901, 4.47525, -3.4961832
0.5272941, -0.012253, 4.482, 0.0256348, 4.482, -1.0068359, 4.482, -0.1494751, 4.482, 0.7175573, 4.482, 0.7938932, 4.482, -3.4732823
0.5280882, -0.0062104, 4.48875, 0.026001, 4.48875, -1.00354, 4.48875, -0.1498413, 4.48875, 0.6946565, 4.48875, 0.9694657, 4.48875, -3.4656489
0.5288824, -0.0078889, 4.4955, 0.0244141, 4.4955, -1.0058594, 4.4955, -0.1525269, 4.4955, 0.8778626, 4.4955, 1.1374046, 4.4955, -3.4503818
0.5296765, -0.0115816, 4.50225, 0.020752, 4.50225, -1.0064697, 4.50225, -0.1517334, 4.50225, 0.5954198, 4.50225, 1.091603, 4.50225, -3.3740458
0.5304706, -0.0129244, 4.509, 0.019043, 4.509, -1.0074463, 4.509, -0.1505127, 4.509, 0.778626, 4.509, 1.1603054, 4.509, -3.5267177
0.5312647, -0.0125887, 4.51575, 0.0204468, 4.51575, -1.0026855, 4.51575, -0.1534424, 4.51575, 0.7022901, 4.51575, 0.9007633, 4.51575, -3.4427481
0.5320588, -0.0137636, 4.5225, 0.0193481, 4.5225, -1.005127, 4.5225, -0.1513062, 4.5225, 0.7022901, 4.5225, 0.6870229, 4.5225, -3.4580152
0.5328529, -0.0162814, 4.52925, 0.0241089, 4.52925, -1.0043945, 4.52925, -0.1508789, 4.52925, 0.7633588, 4.52925, 0.8625954, 4.52925, -3.5114503
0.5336471, -0.0142672, 4.536, 0.0249023, 4.536, -1.0023804, 4.536, -0.1541138, 4.536, 0.7480916, 4.536, 0.8091603, 4.536, -3.351145
0.5344412, -0.012253, 4.54275, 0.0273438, 4.54275, -1.0059814, 4.54275, -0.1560669, 4.54275, 0.7862595, 4.54275, 0.9160305, 4.54275, -3.1526718
0.5352353, -0.0166171, 4.5495, 0.0245361, 4.5495, -1.0062866, 4.5495, -0.1583252, 4.5495, 0.7328244, 4.5495, 0.8320611, 4.5495, -3.2977099
0.5360294, -0.0157778, 4.55625, 0.0280151, 4.55625, -1.0084839, 4.55625, -0.1566772, 4.55625, 0.9389313, 4.55625, 0.9694657, 4.55625, -3.2824428
0.5368235, -0.0206455, 4.563, 0.0233154, 4.563, -1.0055542, 4.563, -0.1596069, 4.563, 1.0229008, 4.563, 1.1374046, 4.563, -3.3129771
0.5376176, -0.017792, 4.56975, 0.0222778, 4.56975, -1.0064087, 4.56975, -0.1599121, 4.56975, 0.9465649, 4.56975, 1.0534351, 4.56975, -3.2442749
0.5384118, -0.0164492, 4.5765, 0.0222778, 4.5765, -1.0077515, 4.5765, -0.1577759, 4.5765, 1.0534351, 4.5765, 0.961832, 4.5765, -3.2137403
0.5392059, -0.0198062, 4.58325, 0.0252075, 4.58325, -1.0060425, 4.58325, -0.1560059, 4.58325, 1.1755725, 4.58325, 0.5267175, 4.58325, -3.0610688
0.54, -0.0169528, 4.59, 0.0256348, 4.59, -1.0056152, 4.59, -0.1548462, 4.59, 1.0076336, 4.59, 0.389313, 4.59, -3.129771
0.5407941, -0.0149386, 4.59675, 0.0244751, 4.59675, -1.0056152, 4.59675, -0.1530151, 4.59675, 1.2748091, 4.59675, 0.3969466, 4.59675, -3.2290077
0.5415882, -0.0186313, 4.6035, 0.0249634, 4.6035, -1.0063477, 4.6035, -0.1544189, 4.6035, 1.2671756, 4.6035, 0.4503817, 4.6035, -3.1221373
0.5423824, -0.0196384, 4.61025, 0.0244141, 4.61025, -1.0054932, 4.61025, -0.1542358, 4.61025, 1.038168, 4.61025, 0.519084, 4.61025, -3.1145039
0.5431765, -0.0172885, 4.617, 0.0204468, 4.617, -1.0079346, 4.617, -0.1517944, 4.617, 1.1221374, 4.617, 0.7175573, 4.617, -2.9770992
0.5439706, -0.0157778, 4.62375, 0.0203247, 4.62375, -1.006958, 4.62375, -0.1560059, 4.62375, 1.2290076, 4.62375, 0.6412213, 4.62375, -2.9312978
0.5447647, -0.0142672, 4.6305, 0.0241699, 4.6305, -1.0079346, 4.6305, -0.1520996, 4.6305, 1.2519084, 4.6305, 0.5725191, 4.6305, -3.1908398
0.5455588, -0.014435, 4.63725, 0.024292, 4.63725, -1.0061035, 4.63725, -0.1525269, 4.63725, 1.1603054, 4.63725, 0.6717557, 4.63725, -3.0534351
0.5463529, -0.0127565, 4.644, 0.0236206, 4.644, -1.0046997, 4.644, -0.1489868, 4.644, 1.1526718, 4.644, 0.7022901, 4.644, -3.0076337
0.5471471, -0.0115816, 4.65075, 0.0198975, 4.65075, -1.0061035, 4.65075, -0.1514893, 4.65075, 1.038168, 4.65075, 0.7557252, 4.65075, -3.0992367
0.5479412, -0.0117494, 4.6575, 0.0192871, 4.6575, -1.0053711, 4.6575, -0.1505737, 4.6575, 1.129771, 4.6575, 0.4885496, 4.6575, -2.9923663
0.5487353, -0.0134279, 4.66425, 0.0216064, 4.66425, -1.005127, 4.66425, -0.1507568, 4.66425, 1.1450381, 4.66425, 0.2366412, 4.66425, -2.9312978
0.5495294, -0.012253, 4.671, 0.0206909, 4.671, -1.0023193, 4.671, -0.152771, 4.671, 1.0305344, 4.671, 0.221374, 4.671, -3.129771
0.5503235, -0.0130922, 4.67775, 0.0203247, 4.67775, -1.0038452, 4.67775, -0.1499634, 4.67775, 1.2671756, 4.67775, 0.1984733, 4.67775, -3.0458016
0.5511176, -0.0109102, 4.6845, 0.0221558, 4.6845, -1.0060425, 4.6845, -0.1512451, 4.6845, 1.0458015, 4.6845, 0.1221374, 4.6845, -3.0152671
0.5519118, -0.0112459, 4.69125, 0.0200806, 4.69125, -1.0045776, 4.69125, -0.1526489, 4.69125, 1, 4.69125, 0.2671756, 4.69125, -3
0.5527059, -0.0115816, 4.698, 0.0233154, 4.698, -1.0084839, 4.698, -0.152771, 4.698, 1.0534351, 4.698, 0.3969466, 4.698, -3.091603
0.5535, -0.0149386, 4.70475, 0.0223999, 4.70475, -1.0072021, 4.70475, -0.1536255, 4.70475, 1, 4.70475, 0.3664122, 4.70475, -3.0992367
0.5542941, -0.0142672, 4.7115, 0.0216675, 4.7115, -1.0046997, 4.7115, -0.1501465, 4.7115, 1.1679389, 4.7115, 0.7175573, 4.7115, -3.0458016
0.5550882, -0.0142672, 4.71825, 0.0172729, 4.71825, -1.0036621, 4.71825, -0.1495972, 4.71825, 0.8625954, 4.71825, 0.8167939, 4.71825, -2.908397
0.5558824, -0.0130922, 4.725, 0.0167236, 4.725, -1.0064087, 4.725, -0.1516113, 4.725, 1.091603, 4.725, 0.8320611, 4.725, -2.961832
0.5566765, -0.0166171, 4.73175, 0.0175171, 4.73175, -1.0071411, 4.73175, -0.1511841, 4.73175, 1.0839695, 4.73175, 0.740458, 4.73175, -3.0534351
0.5574706, -0.0162814, 4.7385, 0.019165, 4.7385, -1.008728, 4.7385, -0.147522, 4.7385, 0.9541985, 4.7385, 0.7480916, 4.7385, -2.9770992
0.5582647, -0.0159457, 4.74525, 0.0196533, 4.74525, -1.0031128, 4.74525, -0.1461182, 4.74525, 1.038168, 4.74525, 0.6335878, 4.74525, -3.0839694
0.5590588, -0.0142672, 4.752, 0.020813, 4.752, -1.0025024, 4.752, -0.1464233, 4.752, 0.9847328, 4.752, 0.5954198, 4.752, -3.0229008
0.5598529, -0.0109102, 4.75875, 0.0203247, 4.75875, -1.0032959, 4.75875, -0.1489258, 4.75875, 1.1145039, 4.75875, 0.2671756, 4.75875, -3.0534351
0.5606471, -0.0149386, 4.7655, 0.0206299, 4.7655, -1.0083008, 4.7655, -0.1530762, 4.7655, 1.091603, 4.7655, -0.1374046, 4.7655, -3.0305343
0.5614412, -0.0125887, 4.77225, 0.0236206, 4.77225, -1.0081177, 4.77225, -0.1567993, 4.77225, 1.0534351, 4.77225, -0.129771, 4.77225, -3.0229008
0.5622353, -0.0099031, 4.779, 0.0238647, 4.779, -1.0065308, 4.779, -0.1550293, 4.779, 1.0458015, 4.779, -0.0610687, 4.779, -2.8473282
0.5630294, -0.0127565, 4.78575, 0.0231934, 4.78575, -1.0059814, 4.78575, -0.1557617, 4.78575, 0.9694657, 4.78575, 0.2290076, 4.78575, -3.0687022
0.5638235, -0.0132601, 4.7925, 0.019165, 4.7925, -1.006958, 4.7925, -0.1528931, 4.7925, 0.9312977, 4.7925, 0.4503817, 4.7925, -3.2748091
0.5646176, -0.0115816, 4.79925, 0.0202637, 4.79925, -1.0125732, 4.79925, -0.1508179, 4.79925, 1, 4.79925, 0.3587786, 4.79925, -2.8854961
0.5654118, -0.0095674, 4.806, 0.0217896, 4.806, -1.0072632, 4.806, -0.1571045, 4.806, 1.091603, 4.806, 0.2748092, 4.806, -2.9160306
0.5662059, -0.0142672, 4.81275, 0.0241089, 4.81275, -1.0064087, 4.81275, -0.1566162, 4.81275, 1.0458015, 4.81275, 0.4198473, 4.81275, -2.8854961
0.567, -0.0172885, 4.8195, 0.0252075, 4.8195, -1.0040894, 4.8195, -0.1567993, 4.8195, 1, 4.8195, 0.6335878, 4.8195, -2.8091602
0.5677941, -0.0196384, 4.82625, 0.022522, 4.82625, -1.0064087, 4.82625, -0.1567993, 4.82625, 1.0076336, 4.82625, 0.9236641, 4.82625, -2.9160306
0.5685882, -0.0213169, 4.833, 0.0194092, 4.833, -1.0066528, 4.833, -0.1538086, 4.833, 1.038168, 4.833, 1.1832061, 4.833, -2.9160306
0.5693824, -0.0209812, 4.83975, 0.0162964, 4.83975, -1.0097046, 4.83975, -0.1500854, 4.83975, 0.9694657, 4.83975, 1.091603, 4.83975, -2.908397
0.5701765, -0.0203098, 4.8465, 0.015686, 4.8465, -1.0097046, 4.8465, -0.1483765, 4.8465, 1.0076336, 4.8465, 0.610687, 4.8465, -2.8015268
0.5709706, -0.0199741, 4.85325, 0.0180664, 4.85325, -1.0078735, 4.85325, -0.1546631, 4.85325, 1.1221374, 4.85325, 0.2748092, 4.85325, -2.7633588
0.5717647, -0.0203098, 4.86, 0.0250854, 4.86, -1.0037842, 4.86, -0.1519775, 4.86, 1.1374046, 4.86, 0.0916031, 4.86, -2.870229
0.5725588, -0.0218204, 4.86675, 0.0263062, 4.86675, -1.0039673, 4.86675, -0.1502686, 4.86675, 1.0534351, 4.86675, 0.351145, 4.86675, -2.8396947
0.5733529, -0.0236667, 4.8735, 0.0233765, 4.8735, -1.0053711, 4.8735, -0.15271, 4.8735, 0.9923664, 4.8735, 0.6259542, 4.8735, -2.9389312
0.5741471, -0.0221561, 4.88025, 0.0197144, 4.88025, -1.0067139, 4.88025, -0.1501465, 4.88025, 0.961832, 4.88025, 0.908397, 4.88025, -2.9465649
0.5749412, -0.023331, 4.887, 0.0168457, 4.887, -1.008606, 4.887, -0.1523438, 4.887, 0.8625954, 4.887, 0.8244275, 4.887, -2.7480917
0.5757353, -0.0218204, 4.89375, 0.0159302, 4.89375, -1.003479, 4.89375, -0.1549683, 4.89375, 1.0534351, 4.89375, 0.2900763, 4.89375, -2.7709923
0.5765294, -0.0181277, 4.9005, 0.0212402, 4.9005, -1.0062256, 4.9005, -0.1558838, 4.9005, 1.1984733, 4.9005, 0.1374046, 4.9005, -2.8778627
0.5773235, -0.0162814, 4.90725, 0.0222168, 4.90725, -1.0075073, 4.90725, -0.15448, 4.90725, 0.9541985, 4.90725, 0.2061069, 4.90725, -2.8778627
0.5781176, -0.0132601, 4.914, 0.0180664, 4.914, -1.0050659, 4.914, -0.1535645, 4.914, 1.0839695, 4.914, 0.4656489, 4.914, -2.8931298
0.5789118, -0.0129244, 4.92075, 0.0187988, 4.92075, -1.008728, 4.92075, -0.1539307, 4.92075, 0.961832, 4.92075, 0.6183206, 4.92075, -2.961832
0.5797059, -0.0130922, 4.9275, 0.0193481, 4.9275, -1.0070801, 4.9275, -0.1548462, 4.9275, 1.1145039, 4.9275, 0.7557252, 4.9275, -2.8167939
0.5805, -0.0109102, 4.93425, 0.0185547, 4.93425, -1.0067139, 4.93425, -0.1558838, 4.93425, 1.0763359, 4.93425, 0.870229, 4.93425, -2.7633588
0.5812941, -0.012253, 4.941, 0.0184326, 4.941, -1.0055542, 4.941, -0.1541138, 4.941, 1.0687023, 4.941, 0.8244275, 4.941, -2.8931298
0.5820882, -0.014435, 4.94775, 0.0184326, 4.94775, -1.0048828, 4.94775, -0.1543579, 4.94775, 1.038168, 4.94775, 1.0687023, 4.94775, -2.9160306
0.5828824, -0.0154421, 4.9545, 0.0219727, 4.9545, -1.0075073, 4.9545, -0.1536255, 4.9545, 1.2824427, 4.9545, 1.0458015, 4.9545, -2.961832
0.5836765, -0.017792, 4.96125, 0.0209351, 4.96125, -1.0092163, 4.96125, -0.1558228, 4.96125, 1.1221374, 4.96125, 1.1984733, 4.96125, -3.0458016
0.5844706, -0.0149386, 4.968, 0.0216675, 4.968, -1.0049438, 4.968, -0.1537476, 4.968, 1.2442749, 4.968, 1.3435115, 4.968, -2.8854961
0.5852647, -0.0135958, 4.97475, 0.0189819, 4.97475, -1.0067139, 4.97475, -0.1543579, 4.97475, 1.1908396, 4.97475, 1.2366412, 4.97475, -2.7709923
0.5860588, -0.0182956, 4.9815, 0.0186768, 4.9815, -1.0066528, 4.9815, -0.1531372, 4.9815, 1.0839695, 4.9815, 1.3587786, 4.9815, -2.7480917
0.5868529, -0.023331, 4.98825, 0.0197754, 4.98825, -1.0064697, 4.98825, -0.1547852, 4.98825, 1.2519084, 4.98825, 1.1374046, 4.98825, -3.0305343
0.5876471, -0.023331, 4.995, 0.0181274, 4.995, -1.0082397, 4.995, -0.152832, 4.995, 1.3053435, 4.995, 1.0839695, 4.995, -2.908397
0.5884412, -0.0199741, 5.00175, 0.0206909, 5.00175, -1.0044556, 5.00175, -0.1494141, 5.00175, 1.1450381, 5.00175, 0.9770992, 5.00175, -2.7480917
0.5892353, -0.0203098, 5.0085, 0.0200806, 5.0085, -1.005188, 5.0085, -0.1526489, 5.0085, 1.091603, 5.0085, 0.5725191, 5.0085, -2.9541984
0.5900294, -0.0179599, 5.01525, 0.0183105, 5.01525, -1.0046387, 5.01525, -0.152771, 5.01525, 1.129771, 5.01525, 0.5954198, 5.01525, -3.0687022
0.5908235, -0.0152743, 5.022, 0.0201416, 5.022, -1.0049438, 5.022, -0.1540527, 5.022, 1.221374, 5.022, 0.5114504, 5.022, -3.1450381
0.5916176, -0.01561, 5.02875, 0.0211182, 5.02875, -1.0054321, 5.02875, -0.1535645, 5.02875, 1.2290076, 5.02875, 0.5114504, 5.02875, -3.0763359
0.5924118, -0.0135958, 5.0355, 0.0183716, 5.0355, -1.0065308, 5.0355, -0.1541748, 5.0355, 1.1526718, 5.0355, 0.4503817, 5.0355, -3.2519083
0.5932059, -0.0109102, 5.04225, 0.0139771, 5.04225, -1.0062256, 5.04225, -0.1550293, 5.04225, 1.129771, 5.04225, 0.4732825, 5.04225, -3.1984732
0.594, -0.0109102, 5.049, 0.0155029, 5.049, -1.0050049, 5.049, -0.1546021, 5.049, 1.1832061, 5.049, 0.3053435, 5.049, -3.1221373
0.5947941, -0.0109102, 5.05575, 0.0193481, 5.05575, -1.0082397, 5.05575, -0.1557007, 5.05575, 1.1908396, 5.05575, 0.0992366, 5.05575, -3.259542
0.5955882, -0.0082246, 5.0625, 0.0235596, 5.0625, -1.0067139, 5.0625, -0.1566772, 5.0625, 1.3129771, 5.0625, 0.2519084, 5.0625, -3.2442749
0.5963824, -0.0050355, 5.06925, 0.0234375, 5.06925, -1.0078125, 5.06925, -0.1564331, 5.06925, 1.3206106, 5.06925, 0.5496183, 5.06925, -3.1526718
0.5971765, -0.0082246, 5.076, 0.022522, 5.076, -1.007019, 5.076, -0.1556396, 5.076, 1.4351145, 5.076, 0.8015267, 5.076, -3.1526718
0.5979706, -0.0129244, 5.08275, 0.0199585, 5.08275, -1.0075684, 5.08275, -0.154541, 5.08275, 1.4885496, 5.08275, 1.1221374, 5.08275, -3.2442749
0.5987647, -0.012253, 5.0895, 0.0196533, 5.0895, -1.0076904, 5.0895, -0.1534424, 5.0895, 1.4274809, 5.0895, 1.0687023, 5.0895, -3.129771
0.5995588, -0.0125887, 5.09625, 0.0180054, 5.09625, -1.006958, 5.09625, -0.1502075, 5.09625, 1.4961832, 5.09625, 1.0687023, 5.09625, -3.0992367
0.6003529, -0.0130922, 5.103, 0.015686, 5.103, -1.008606, 5.103, -0.1507568, 5.103, 1.648855, 5.103, 0.9465649, 5.103, -3.2519083
0.6011471, -0.0125887, 5.10975, 0.0150757, 5.10975, -1.0071411, 5.10975, -0.1506958, 5.10975, 1.5267175, 5.10975, 0.7480916, 5.10975, -3.1221373
0.6019412, -0.0149386, 5.1165, 0.0165405, 5.1165, -1.0062866, 5.1165, -0.1511841, 5.1165, 1.5343511, 5.1165, 0.5343512, 5.1165, -3.3053436
0.6027353, -0.0157778, 5.12325, 0.0192871, 5.12325, -1.0064697, 5.12325, -0.1507568, 5.12325, 1.5038168, 5.12325, 0.4503817, 5.12325, -3.2061069
0.6035294, -0.0176242, 5.13, 0.0195312, 5.13, -1.006958, 5.13, -0.149231, 5.13, 1.4274809, 5.13, 0.5343512, 5.13, -3.3282442
0.6043235, -0.0176242, 5.13675, 0.0201416, 5.13675, -1.0066528, 5.13675, -0.1506958, 5.13675, 1.5343511, 5.13675, 0.6030535, 5.13675, -3.259542
0.6051176, -0.0172885, 5.1435, 0.0175171, 5.1435, -1.0055542, 5.1435, -0.1505127, 5.1435, 1.480916, 5.1435, 0.648855, 5.1435, -3.1755726
0.6059118, -0.0196384, 5.15025, 0.0166016, 5.15025, -1.0057983, 5.15025, -0.1489258, 5.15025, 1.5725191, 5.15025, 0.5572519, 5.15025, -3.2290077
0.6067059, -0.0208133, 5.157, 0.0165405, 5.157, -1.0096436, 5.157, -0.1514282, 5.157, 1.5572519, 5.157, 0.5801527, 5.157, -3.2824428
0.6075, -0.0206455, 5.16375, 0.0166626, 5.16375, -1.0075073, 5.16375, -0.1516724, 5.16375, 1.4656489, 5.16375, 0.5877863, 5.16375, -3.2900763
0.6082941, -0.0191348, 5.1705, 0.0205688, 5.1705, -1.0059814, 5.1705, -0.1524048, 5.1705, 1.6335878, 5.1705, 0.5877863, 5.1705, -3.3435113
0.6090882, -0.0172885, 5.17725, 0.0214844, 5.17725, -1.0090332, 5.17725, -0.1543579, 5.17725, 1.519084, 5.17725, 0.7022901, 5.17725, -3.2900763
0.6098824, -0.0142672, 5.184, 0.0210571, 5.184, -1.0100708, 5.184, -0.1537476, 5.184, 1.6641221, 5.184, 0.778626, 5.184, -3.1755726
0.6106765, -0.0135958, 5.19075, 0.0233765, 5.19075, -1.0064697, 5.19075, -0.1560059, 5.19075, 1.6335878, 5.19075, 1.0229008, 5.19075, -3.1603053
0.6114706, -0.0099031, 5.1975, 0.0227661, 5.1975, -1.0043335, 5.1975, -0.1541138, 5.1975, 1.6183206, 5.1975, 1.1068702, 5.1975, -3.2977099
0.6122647, -0.0112459, 5.20425, 0.0219727, 5.20425, -1.006897, 5.20425, -0.1540527, 5.20425, 1.648855, 5.20425, 1.2290076, 5.20425, -3.2519083
0.6130588, -0.0152743, 5.211, 0.0216675, 5.211, -1.0078735, 5.211, -0.1536255, 5.211, 1.778626, 5.211, 1.2977099, 5.211, -3.2824428
0.6138529, -0.0137636, 5.21775, 0.0205078, 5.21775, -1.0057373, 5.21775, -0.1541138, 5.21775, 1.7633588, 5.21775, 1.2748091, 5.21775, -3.2519083
0.6146471, -0.0115816, 5.2245, 0.0219116, 5.2245, -1.0042114, 5.2245, -0.1553345, 5.2245, 1.8320611, 5.2245, 1.351145, 5.2245, -3.259542
0.6154412, -0.0117494, 5.23125, 0.0193481, 5.23125, -1.0041504, 5.23125, -0.1538696, 5.23125, 1.7328244, 5.23125, 1.3740458, 5.23125, -3.1450381
0.6162353, -0.0135958, 5.238, 0.0172729, 5.238, -1.0046387, 5.238, -0.1536865, 5.238, 1.8320611, 5.238, 1.3282443, 5.238, -3.3664122
0.6170294, -0.0146029, 5.24475, 0.0151367, 5.24475, -1.0067139, 5.24475, -0.1543579, 5.24475, 1.6564885, 5.24475, 1.0763359, 5.24475, -3.3816793
0.6178235, -0.0169528, 5.2515, 0.0184326, 5.2515, -1.0046387, 5.2515, -0.1530762, 5.2515, 1.8091604, 5.2515, 1.091603, 5.2515, -3.3358779
0.6186176, -0.0209812, 5.25825, 0.0169678, 5.25825, -1.0072021, 5.25825, -0.1490479, 5.25825, 1.7938931, 5.25825, 1.1755725, 5.25825, -3.1603053
0.6194118, -0.0193027, 5.265, 0.0172119, 5.265, -1.0043335, 5.265, -0.1500244, 5.265, 1.8931298, 5.265, 0.8015267, 5.265, -3.2442749
0.6202059, -0.018967, 5.27175, 0.019165, 5.27175, -1.0055542, 5.27175, -0.1491089, 5.27175, 1.778626, 5.27175, 0.7633588, 5.27175, -3.3206108
0.621, -0.0198062, 5.2785, 0.0165405, 5.2785, -1.0044556, 5.2785, -0.1474609, 5.2785, 1.8320611, 5.2785, 1.038168, 5.2785, -3.1832061
0.6217941, -0.0203098, 5.28525, 0.0187988, 5.28525, -1.0087891, 5.28525, -0.1448364, 5.28525, 1.7099236, 5.28525, 0.8091603, 5.28525, -3.3435113
0.6225882, -0.0206455, 5.292, 0.015564, 5.292, -1.005188, 5.292, -0.1479492, 5.292, 1.5648855, 5.292, 0.7862595, 5.292, -3.2290077
0.6233824, -0.017792, 5.29875, 0.0154419, 5.29875, -1.0063477, 5.29875, -0.1461182, 5.29875, 1.648855, 5.29875, 0.778626, 5.29875, -3.4045801
0.6241765, -0.0169528, 5.3055, 0.0134277, 5.3055, -1.0075073, 5.3055, -0.1448364, 5.3055, 1.4503816, 5.3055, 0.8549618, 5.3055, -3.2748091
0.6249706, -0.0176242, 5.31225, 0.0111694, 5.31225, -1.0064697, 5.31225, -0.145813, 5.31225, 1.480916, 5.31225, 0.6183206, 5.31225, -3.3053436
0.6257647, -0.0129244, 5.319, 0.0150146, 5.319, -1.0054321, 5.319, -0.1470947, 5.319, 1.4122137, 5.319, 0.5496183, 5.319, -3.3358779
0.6265588, -0.0124208, 5.32575, 0.0169678, 5.32575, -1.0055542, 5.32575, -0.1477051, 5.32575, 1.5343511, 5.32575, 0.5038168, 5.32575, -3.519084
0.6273529, -0.011078, 5.3325, 0.0205078, 5.3325, -1.0058594, 5.3325, -0.1502075, 5.3325, 1.4045801, 5.3325, 0.7709923, 5.3325, -3.351145
0.6281471, -0.0109102, 5.33925, 0.0198975, 5.33925, -1.0103149, 5.33925, -0.1489258, 5.33925, 1.3740458, 5.33925, 0.9389313, 5.33925, -3.3206108
0.6289412, -0.0102388, 5.346, 0.0195923, 5.346, -1.0058594, 5.346, -0.147583, 5.346, 1.2442749, 5.346, 1.1221374, 5.346, -3.4198472
0.6297353, -0.0112459, 5.35275, 0.0186157, 5.35275, -1.0068359, 5.35275, -0.1489258, 5.35275, 1.2137405, 5.35275, 1.221374, 5.35275, -3.5648854
0.6305294, -0.0090639, 5.3595, 0.0182495, 5.3595, -1.0037231, 5.3595, -0.1470337, 5.3595, 1.2366412, 5.3595, 1.1526718, 5.3595, -3.5496182
0.6313235, -0.0082246, 5.36625, 0.0183716, 5.36625, -1.0072632, 5.36625, -0.1473999, 5.36625, 1.0610687, 5.36625, 1.2137405, 5.36625, -3.4122138
0.6321176, -0.0068818, 5.373, 0.0168457, 5.373, -1.0039062, 5.373, -0.1445923, 5.373, 1.2977099, 5.373, 1.0305344, 5.373, -3.3129771
0.6329118, -0.0105745, 5.37975, 0.0166626, 5.37975, -1.0058594, 5.37975, -0.1461182, 5.37975, 1.1755725, 5.37975, 0.7633588, 5.37975, -3.480916
0.6337059, -0.0112459, 5.3865, 0.0187378, 5.3865, -1.0037231, 5.3865, -0.1480713, 5.3865, 1.221374, 5.3865, 0.7022901, 5.3865, -3.3129771
0.6345, -0.0102388, 5.39325, 0.0186157, 5.39325, -1.003418, 5.39325, -0.1496582, 5.39325, 1.1679389, 5.39325, 0.5725191, 5.39325, -3.4961832
0.6352941, -0.0112459, 5.4, 0.0192261, 5.4, -1.00354, 5.4, -0.1494141, 5.4, 1.1145039, 5.4, 0.5496183, 5.4, -3.4122138
0.6360882, -0.0124208, 5.40675, 0.0176392, 5.40675, -1.0058594, 5.40675, -0.1491089, 5.40675, 1.2442749, 5.40675, 0.7175573, 5.40675, -3.5343511
0.6368824, -0.0109102, 5.4135, 0.0150146, 5.4135, -1.0067749, 5.4135, -0.1469116, 5.4135, 1.1068702, 5.4135, 0.4961832, 5.4135, -3.4885497
0.6376765, -0.011078, 5.42025, 0.0192871, 5.42025, -1.0066528, 5.42025, -0.1494141, 5.42025, 0.961832, 5.42025, 0.3053435, 5.42025, -3.3816793
0.6384706, -0.0132601, 5.427, 0.0223389, 5.427, -1.0074463, 5.427, -0.1502686, 5.427, 1.091603, 5.427, 0.351145, 5.427, -3.480916
0.6392647, -0.0152743, 5.43375, 0.020752, 5.43375, -1.005249, 5.43375, -0.1479492, 5.43375, 1.0305344, 5.43375, 0.3816794, 5.43375, -3.519084
0.6400588, -0.0119173, 5.4405, 0.0177612, 5.4405, -1.0092773, 5.4405, -0.1448364, 5.4405, 0.9465649, 5.4405, 0.5954198, 5.4405, -3.4580152
0.6408529, -0.0140993, 5.44725, 0.0194702, 5.44725, -1.0059814, 5.44725, -0.1507568, 5.44725, 1.0610687, 5.44725, 0.4961832, 5.44725, -3.2442749
0.6416471, -0.0176242, 5.454, 0.0201416, 5.454, -1.0076294, 5.454, -0.1524048, 5.454, 1.0839695, 5.454, 0.4503817, 5.454, -3.4351146
0.6424412, -0.0162814, 5.46075, 0.0213623, 5.46075, -1.0054932, 5.46075, -0.1508179, 5.46075, 0.961832, 5.46075, 0.6564885, 5.46075, -3.3969467
0.6432353, -0.0125887, 5.4675, 0.0230103, 5.4675, -1.0065918, 5.4675, -0.1481323, 5.4675, 1.0992366, 5.4675, 0.648855, 5.4675, -3.3282442
0.6440294, -0.0132601, 5.47425, 0.0222168, 5.47425, -1.0046387, 5.47425, -0.1482544, 5.47425, 0.9389313, 5.47425, 0.7099237, 5.47425, -3.2137403
0.6448235, -0.0115816, 5.481, 0.0187378, 5.481, -1.005127, 5.481, -0.1484375, 5.481, 1.0229008, 5.481, 0.8167939, 5.481, -3.3358779
0.6456176, -0.0129244, 5.48775, 0.0187378, 5.48775, -1.0072632, 5.48775, -0.1490479, 5.48775, 1.1221374, 5.48775, 0.6870229, 5.48775, -3.3816793
0.6464118, -0.0129244, 5.4945, 0.0198975, 5.4945, -1.0040894, 5.4945, -0.1489258, 5.4945, 1.1221374, 5.4945, 0.6412213, 5.4945, -3.4351146
0.6472059, -0.0129244, 5.50125, 0.0202637, 5.50125, -1.0054932, 5.50125, -0.1490479, 5.50125, 1.0229008, 5.50125, 0.6259542, 5.50125, -3.5725191
0.648, -0.0169528, 5.508, 0.0201416, 5.508, -1.0043945, 5.508, -0.1495972, 5.508, 0.9541985, 5.508, 0.4427481, 5.508, -3.4732823
0.6487941, -0.0149386, 5.51475, 0.0182495, 5.51475, -1.0024414, 5.51475, -0.1495361, 5.51475, 1.1374046, 5.51475, 0.3664122, 5.51475, -3.4427481
0.6495882, -0.0172885, 5.5215, 0.020813, 5.5215, -1.0054321, 5.5215, -0.1481934, 5.5215, 0.908397, 5.5215, 0.3053435, 5.5215, -3.4198472
0.6503824, -0.0196384, 5.52825, 0.0217285, 5.52825, -1.0057373, 5.52825, -0.147583, 5.52825, 1.0610687, 5.52825, 0.221374, 5.52825, -3.2977099
0.6511765, -0.0181277, 5.535, 0.0240479, 5.535, -1.0025024, 5.535, -0.1499023, 5.535, 0.9847328, 5.535, 0.351145, 5.535, -3.4045801
0.6519706, -0.01561, 5.54175, 0.026062, 5.54175, -1.0031128, 5.54175, -0.1537476, 5.54175, 1.1374046, 5.54175, 0.5801527, 5.54175, -3.4122138
0.6527647, -0.0149386, 5.5485, 0.024353, 5.5485, -1.0093994, 5.5485, -0.1520386, 5.5485, 1.038168, 5.5485, 0.7480916, 5.5485, -3.3664122
0.6535588, -0.0149386, 5.55525, 0.0247192, 5.55525, -1.0074463, 5.55525, -0.1508789, 5.55525, 1.0229008, 5.55525, 0.9389313, 5.55525, -3.3435113
0.6543529, -0.0146029, 5.562, 0.0203247, 5.562, -1.0092773, 5.562, -0.1489868, 5.562, 1.1832061, 5.562, 1.0305344, 5.562, -3.1908398
0.6551471, -0.0149386, 5.56875, 0.0203247, 5.56875, -1.0109863, 5.56875, -0.1486206, 5.56875, 1.0992366, 5.56875, 0.9236641, 5.56875, -3.2519083
0.6559412, -0.0146029, 5.5755, 0.019165, 5.5755, -1.0066528, 5.5755, -0.1497803, 5.5755, 1.0610687, 5.5755, 0.6412213, 5.5755, -3.2442749
0.6567353, -0.0182956, 5.58225, 0.0206909, 5.58225, -1.0077515, 5.58225, -0.1481934, 5.58225, 1.1221374, 5.58225, 0.5343512, 5.58225, -3.0839694
0.6575294, -0.0176242, 5.589, 0.0227051, 5.589, -1.0050049, 5.589, -0.1481323, 5.589, 1.2366412, 5.589, 0.2748092, 5.589, -3.1526718
0.6583235, -0.0149386, 5.59575, 0.0228271, 5.59575, -1.0057373, 5.59575, -0.1494751, 5.59575, 1.1908396, 5.59575, 0.1526718, 5.59575, -3.2061069
0.6591176, -0.0112459, 5.6025, 0.0231934, 5.6025, -1.0073242, 5.6025, -0.1489868, 5.6025, 1.2519084, 5.6025, 0.2671756, 5.6025, -3.2366412
0.6599118, -0.0135958, 5.60925, 0.0266113, 5.60925, -1.007019, 5.60925, -0.1478271, 5.60925, 1.038168, 5.60925, 0.3358779, 5.60925, -3.221374
0.6607059, -0.0135958, 5.616, 0.0254517, 5.616, -1.0084229, 5.616, -0.1474609, 5.616, 1.1526718, 5.616, 0.5496183, 5.616, -3.0763359
0.6615, -0.0146029, 5.62275, 0.0204468, 5.62275, -1.0053711, 5.62275, -0.1482544, 5.62275, 1.2442749, 5.62275, 0.6335878, 5.62275, -2.9923663
0.6622941, -0.012253, 5.6295, 0.0214844, 5.6295, -1.0037842, 5.6295, -0.1484375, 5.6295, 1.1145039, 5.6295, 0.6717557, 5.6295, -3.0687022
0.6630882, -0.0125887, 5.63625, 0.0209351, 5.63625, -1.0015869, 5.63625, -0.1511841, 5.63625, 1.259542, 5.63625, 0.6641222, 5.63625, -3.1755726
0.6638824, -0.0139315, 5.643, 0.0197754, 5.643, -1.0032349, 5.643, -0.149231, 5.643, 1.2442749, 5.643, 0.6259542, 5.643, -3.1145039
0.6646765, -0.0119173, 5.64975, 0.0151978, 5.64975, -1.0029297, 5.64975, -0.151123, 5.64975, 1.0839695, 5.64975, 0.870229, 5.64975, -3.091603
0.6654706, -0.0135958, 5.6565, 0.0146484, 5.6565, -1.0039673, 5.6565, -0.1473999, 5.6565, 0.908397, 5.6565, 0.6564885, 5.6565, -3.0992367
0.6662647, -0.01561, 5.66325, 0.0167847, 5.66325, -1.0050659, 5.66325, -0.1466064, 5.66325, 0.9923664, 5.66325, 0.6030535, 5.66325, -2.9847329
0.6670588, -0.0171206, 5.67, 0.0183105, 5.67, -1.006958, 5.67, -0.1480713, 5.67, 1.0305344, 5.67, 0.3969466, 5.67, -3.1908398
0.6678529, -0.018967, 5.67675, 0.0183105, 5.67675, -1.0059814, 5.67675, -0.1451416, 5.67675, 1.2290076, 5.67675, 0.3587786, 5.67675, -3.2137403
0.6686471, -0.0226596, 5.6835, 0.0209351, 5.6835, -1.0095825, 5.6835, -0.1501465, 5.6835, 1.1221374, 5.6835, 0.2366412, 5.6835, -2.961832
0.6694412, -0.0209812, 5.69025, 0.0195312, 5.69025, -1.0085449, 5.69025, -0.1505127, 5.69025, 1.1221374, 5.69025, 0.480916, 5.69025, -3.1068702
0.6702353, -0.0238346, 5.697, 0.0196533, 5.697, -1.0079346, 5.697, -0.1459961, 5.697, 1.1145039, 5.697, 0.5877863, 5.697, -3.0458016
0.6710294, -0.0236667, 5.70375, 0.0210571, 5.70375, -1.0061646, 5.70375, -0.1464844, 5.70375, 0.9236641, 5.70375, 0.6946565, 5.70375, -2.8778627
0.6718235, -0.0243381, 5.7105, 0.0140991, 5.7105, -1.0037231, 5.7105, -0.1439209, 5.7105, 1.0458015, 5.7105, 0.6412213, 5.7105, -3.0839694
0.6726176, -0.0213169, 5.71725, 0.0148926, 5.71725, -1.0040894, 5.71725, -0.1446533, 5.71725, 1, 5.71725, 0.6793893, 5.71725, -2.9923663
0.6734118, -0.0206455, 5.724, 0.0151367, 5.724, -1.0073242, 5.724, -0.1439209, 5.724, 0.8778626, 5.724, 0.3587786, 5.724, -2.9389312
0.6742059, -0.0182956, 5.73075, 0.0166626, 5.73075, -1.0090942, 5.73075, -0.1488647, 5.73075, 0.8473282, 5.73075, 0.2671756, 5.73075, -3.1603053
0.675, -0.0162814, 5.7375, 0.0200195, 5.7375, -1.0065308, 5.7375, -0.1478882, 5.7375, 0.8167939, 5.7375, 0.2137405, 5.7375, -3.0458016
0.6757941, -0.018967, 5.74425, 0.0219727, 5.74425, -1.003418, 5.74425, -0.1459961, 5.74425, 0.7709923, 5.74425, 0.3435115, 5.74425, -3.1832061
0.6765882, -0.0176242, 5.751, 0.0222778, 5.751, -1.0083008, 5.751, -0.1477051, 5.751, 0.6412213, 5.751, 0.389313, 5.751, -3.1450381
0.6773824, -0.0162814, 5.75775, 0.0186157, 5.75775, -1.0075684, 5.75775, -0.1482544, 5.75775, 0.5496183, 5.75775, 0.4961832, 5.75775, -3.2442749
0.6781765, -0.01561, 5.7645, 0.0202026, 5.7645, -1.0067139, 5.7645, -0.1467896, 5.7645, 0.5877863, 5.7645, 0.259542, 5.7645, -3.0992367
0.6789706, -0.0149386, 5.77125, 0.0166626, 5.77125, -1.0031128, 5.77125, -0.1489868, 5.77125, 0.7022901, 5.77125, 0.4122137, 5.77125, -3.0305343
