Application:, Trigno Discover (1.7.0)
Date/Time:, 2026/9/9 上午 10:19:17
Collection Length (seconds):, 43.8885
Avanti Sensor 11 (69574)
sensor mode: 50
EMG 1 Time Series (s), EMG 1 (mV), ACC X Time Series (s), ACC X (G), ACC Y Time Series (s), ACC Y (G), ACC Z Time Series (s), ACC Z (G), GYRO X Time Series (s), GYRO X (deg/s), GYRO Y Time Series (s), GYRO Y (deg/s), GYRO Z Time Series (s), GYRO Z (deg/s)
, 1259.2593 Hz, , 148.1481 Hz, , 148.1481 Hz, , 148.1481 Hz, , 148.1481 Hz, , 148.1481 Hz, , 148.1481 Hz
0, -0.0166171, 0, -0.0040894, 0, -1.0091553, 0, -0.0771484, 0, 0.0381679, 0, 3.0076337, 0, -4.2366414
0.0007941, -0.0166171, 0.00675, -0.0016479, 0.00675, -1.0062256, 0.00675, -0.0790405, 0.00675, 0.1526718, 0.00675, 2.7709923, 0.00675, -4.2137403
0.0015882, -0.0172885, 0.0135, 0.0010376, 0.0135, -1.008667, 0.0135, -0.0783081, 0.0135, -0.1145038, 0.0135, 2.6564887, 0.0135, -4.1221375
0.0023824, -0.0187991, 0.02025, 0.0016479, 0.02025, -1.0093384, 0.02025, -0.0776978, 0.02025, -0.1603053, 0.02025, 2.778626, 0.02025, -3.8931298
0.0031765, -0.0176242, 0.027, 0.0075073, 0.027, -1.0094604, 0.027, -0.0787964, 0.027, -0.259542, 0.027, 2.9312978, 0.027, -3.9694657
0.0039706, -0.0196384, 0.03375, 0.0088501, 0.03375, -1.0123901, 0.03375, -0.0767212, 0.03375, -0.0839695, 0.03375, 2.9312978, 0.03375, -3.908397
0.0047647, -0.0186313, 0.0405, 0.0073242, 0.0405, -1.0112915, 0.0405, -0.0795898, 0.0405, -0.1374046, 0.0405, 3.0458016, 0.0405, -3.8549619
0.0055588, -0.0176242, 0.04725, 0.0036621, 0.04725, -1.0089722, 0.04725, -0.0812378, 0.04725, -0.1068702, 0.04725, 3.0152671, 0.04725, -3.8854961
0.0063529, -0.01561, 0.054, -0.00177, 0.054, -1.0088501, 0.054, -0.085083, 0.054, -0.2824427, 0.054, 2.7175572, 0.054, -3.8625953
0.0071471, -0.0179599, 0.06075, -0.0099487, 0.06075, -1.010376, 0.06075, -0.085144, 0.06075, -0.0839695, 0.06075, 2.2061069, 0.06075, -3.7480917
0.0079412, -0.0162814, 0.0675, -0.0141602, 0.0675, -1.0076904, 0.0675, -0.0853271, 0.0675, -0.1984733, 0.0675, 1.6335878, 0.0675, -3.6564887
0.0087353, -0.0114137, 0.07425, -0.0089111, 0.07425, -1.0061646, 0.07425, -0.0858765, 0.07425, -0.2061069, 0.07425, 0.7938932, 0.07425, -3.7022901
0.0095294, -0.0115816, 0.081, -0.0047607, 0.081, -1.0098267, 0.081, -0.0890503, 0.081, -0.1068702, 0.081, 0.5648855, 0.081, -3.7709923
0.0103235, -0.0146029, 0.08775, 0.0032349, 0.08775, -1.0098877, 0.08775, -0.0847778, 0.08775, -0.0381679, 0.08775, 0.4656489, 0.08775, -3.6717558
0.0111176, -0.0146029, 0.0945, 0.0064087, 0.0945, -1.0092773, 0.0945, -0.0866089, 0.0945, 0.0152672, 0.0945, 0.8015267, 0.0945, -3.5725191
0.0119118, -0.0109102, 0.10125, 0.0090942, 0.10125, -1.0058594, 0.10125, -0.0853271, 0.10125, 0.2290076, 0.10125, 1.0992366, 0.10125, -3.6335878
0.0127059, -0.012253, 0.108, 0.0066528, 0.108, -1.0081787, 0.108, -0.0838013, 0.108, 0.2977099, 0.108, 1.259542, 0.108, -3.5648854
0.0135, -0.0109102, 0.11475, -0.0006104, 0.11475, -1.0077515, 0.11475, -0.0830688, 0.11475, 0.4045801, 0.11475, 1.3358779, 0.11475, -3.5801528
0.0142941, -0.0119173, 0.1215, 0.0004883, 0.1215, -1.0075073, 0.1215, -0.085022, 0.1215, 0.4503817, 0.1215, 1.2824427, 0.1215, -3.4427481
0.0150882, -0.014435, 0.12825, 0.0010986, 0.12825, -1.0073242, 0.12825, -0.0847168, 0.12825, 0.519084, 0.12825, 1.0763359, 0.12825, -3.4961832
0.0158824, -0.0166171, 0.135, 0.0009155, 0.135, -1.0081177, 0.135, -0.0849609, 0.135, 0.5038168, 0.135, 1.1526718, 0.135, -3.4351146
0.0166765, -0.018967, 0.14175, 0.0015259, 0.14175, -1.0072021, 0.14175, -0.083374, 0.14175, 0.6259542, 0.14175, 1.1221374, 0.14175, -3.7175572
0.0174706, -0.0152743, 0.1485, -0.0013428, 0.1485, -1.0084229, 0.1485, -0.0831299, 0.1485, 0.5801527, 0.1485, 1, 0.1485, -3.4122138
0.0182647, -0.0135958, 0.15525, 0.0026245, 0.15525, -1.0127563, 0.15525, -0.0856323, 0.15525, 0.7175573, 0.15525, 0.7633588, 0.15525, -3.4045801
0.0190588, -0.0139315, 0.162, 0.0078735, 0.162, -1.013916, 0.162, -0.0856934, 0.162, 0.7862595, 0.162, 0.7099237, 0.162, -3.389313
0.0198529, -0.0149386, 0.16875, 0.0040283, 0.16875, -1.0106201, 0.16875, -0.0842285, 0.16875, 0.7862595, 0.16875, 0.8320611, 0.16875, -3.389313
0.0206471, -0.0157778, 0.1755, 0.0028076, 0.1755, -1.0115967, 0.1755, -0.086731, 0.1755, 0.8320611, 0.1755, 1.1603054, 0.1755, -3.3206108
0.0214412, -0.0162814, 0.18225, -0.0010986, 0.18225, -1.0122681, 0.18225, -0.0905151, 0.18225, 0.8778626, 0.18225, 1.0305344, 0.18225, -3.2290077
0.0222353, -0.0152743, 0.189, -0.0032349, 0.189, -1.0089722, 0.189, -0.0864258, 0.189, 0.8320611, 0.189, 1.1068702, 0.189, -3.1603053
0.0230294, -0.014435, 0.19575, -0.0018311, 0.19575, -1.0059814, 0.19575, -0.0842896, 0.19575, 0.9541985, 0.19575, 0.6412213, 0.19575, -3.1755726
0.0238235, -0.0152743, 0.2025, -0.0019531, 0.2025, -1.0067139, 0.2025, -0.0837402, 0.2025, 1.038168, 0.2025, 0.480916, 0.2025, -3.129771
0.0246176, -0.0139315, 0.20925, -0.005249, 0.20925, -1.0059814, 0.20925, -0.0842285, 0.20925, 0.9007633, 0.20925, 0.3282443, 0.20925, -3.2366412
0.0254118, -0.0109102, 0.216, -0.0033569, 0.216, -1.0077515, 0.216, -0.0883789, 0.216, 1.1450381, 0.216, 0.3740458, 0.216, -3.1068702
0.0262059, -0.012253, 0.22275, -0.0007935, 0.22275, -1.0053101, 0.22275, -0.0864258, 0.22275, 1.221374, 0.22275, 0.2061069, 0.22275, -2.9694657
0.027, -0.0125887, 0.2295, 0.0070801, 0.2295, -1.0063477, 0.2295, -0.0845337, 0.2295, 1.1221374, 0.2295, -0.0229008, 0.2295, -3
0.0277941, -0.0132601, 0.23625, 0.0085449, 0.23625, -1.0032959, 0.23625, -0.0836182, 0.23625, 1.0305344, 0.23625, -0.0305344, 0.23625, -2.8778627
0.0285882, -0.0182956, 0.243, 0.0078125, 0.243, -1.0056763, 0.243, -0.0841064, 0.243, 1.1450381, 0.243, 0.3816794, 0.243, -2.8549619
0.0293824, -0.0129244, 0.24975, 0.0066528, 0.24975, -1.0071411, 0.24975, -0.0839233, 0.24975, 1.1908396, 0.24975, 0.5419847, 0.24975, -2.8854961
0.0301765, -0.0132601, 0.2565, 0.005127, 0.2565, -1.0053711, 0.2565, -0.0806274, 0.2565, 1.1145039, 0.2565, 0.7862595, 0.2565, -2.8167939
0.0309706, -0.0166171, 0.26325, 0.0018311, 0.26325, -1.0065308, 0.26325, -0.0801392, 0.26325, 0.8931298, 0.26325, 0.8854962, 0.26325, -2.7557251
0.0317647, -0.0186313, 0.27, -6.1E-05, 0.27, -1.0064087, 0.27, -0.0810547, 0.27, 0.9541985, 0.27, 0.6030535, 0.27, -2.7175572
0.0325588, -0.0152743, 0.27675, -0.0012817, 0.27675, -1.0073242, 0.27675, -0.081665, 0.27675, 0.8320611, 0.27675, 0.4274809, 0.27675, -2.870229
0.0333529, -0.0139315, 0.2835, -0.0025024, 0.2835, -1.0083008, 0.2835, -0.0794067, 0.2835, 0.7709923, 0.2835, 0.4351145, 0.2835, -2.9236641
0.0341471, -0.0162814, 0.29025, -0.0021362, 0.29025, -1.0083008, 0.29025, -0.0823975, 0.29025, 0.740458, 0.29025, 0.3358779, 0.29025, -2.8244274
0.0349412, -0.0193027, 0.297, 0.0016479, 0.297, -1.0098877, 0.297, -0.0792847, 0.297, 0.6564885, 0.297, 0.351145, 0.297, -2.740458
0.0357353, -0.0186313, 0.30375, 0.0037231, 0.30375, -1.0091553, 0.30375, -0.0794678, 0.30375, 0.6183206, 0.30375, 0.3282443, 0.30375, -2.7099237
0.0365294, -0.0171206, 0.3105, 0.0059204, 0.3105, -1.0072632, 0.3105, -0.0796509, 0.3105, 0.389313, 0.3105, 0.5496183, 0.3105, -2.6412213
0.0373235, -0.0152743, 0.31725, 0.0054932, 0.31725, -1.0080566, 0.31725, -0.0804443, 0.31725, 0.480916, 0.31725, 0.648855, 0.31725, -2.480916
0.0381176, -0.0171206, 0.324, -0.0001221, 0.324, -1.0081787, 0.324, -0.0797119, 0.324, 1.0076336, 0.324, 0.5419847, 0.324, -2.5648854
0.0389118, -0.0149386, 0.33075, 6.1E-05, 0.33075, -1.0055542, 0.33075, -0.079834, 0.33075, 1.0610687, 0.33075, 0.4122137, 0.33075, -2.2442749
0.0397059, -0.0139315, 0.3375, -0.0012207, 0.3375, -1.005188, 0.3375, -0.079895, 0.3375, 1.038168, 0.3375, 0.4885496, 0.3375, -2.4503818
0.0405, -0.0142672, 0.34425, -0.0031738, 0.34425, -1.0060425, 0.34425, -0.0813599, 0.34425, 1.0534351, 0.34425, 0.5038168, 0.34425, -2.4503818
0.0412941, -0.0125887, 0.351, 0.0002441, 0.351, -1.0078735, 0.351, -0.0827637, 0.351, 0.8854962, 0.351, 0.2061069, 0.351, -2.5725191
0.0420882, -0.0092317, 0.35775, -0.0007324, 0.35775, -1.0110474, 0.35775, -0.0789185, 0.35775, 0.9541985, 0.35775, 0.1374046, 0.35775, -2.6259542
0.0428824, -0.0085603, 0.3645, 0.0004272, 0.3645, -1.0128174, 0.3645, -0.0802002, 0.3645, 1.2442749, 0.3645, 0.1450382, 0.3645, -2.648855
0.0436765, -0.012253, 0.37125, -0.0004883, 0.37125, -1.010498, 0.37125, -0.0821533, 0.37125, 1.2290076, 0.37125, 0.2442748, 0.37125, -2.6793892
0.0444706, -0.0142672, 0.378, -0.0003662, 0.378, -1.0106201, 0.378, -0.0842896, 0.378, 1.1374046, 0.378, 0.389313, 0.378, -2.7938931
0.0452647, -0.0130922, 0.38475, 0.0026245, 0.38475, -1.0112915, 0.38475, -0.0834351, 0.38475, 0.8854962, 0.38475, 0.4198473, 0.38475, -2.5801528
0.0460588, -0.0130922, 0.3915, -0.0007935, 0.3915, -1.0101318, 0.3915, -0.0830688, 0.3915, 0.9694657, 0.3915, 0.480916, 0.3915, -2.6259542
0.0468529, -0.012253, 0.39825, -0.0039673, 0.39825, -1.0103149, 0.39825, -0.0814209, 0.39825, 1.1908396, 0.39825, 0.9770992, 0.39825, -2.519084
0.0476471, -0.0139315, 0.405, -0.0047607, 0.405, -1.0118408, 0.405, -0.0806885, 0.405, 1.091603, 0.405, 1.0687023, 0.405, -2.6259542
0.0484412, -0.0129244, 0.41175, -0.0043335, 0.41175, -1.0123291, 0.41175, -0.0789795, 0.41175, 1.1603054, 0.41175, 1.259542, 0.41175, -2.7251909
0.0492353, -0.0139315, 0.4185, -0.0067749, 0.4185, -1.0145874, 0.4185, -0.0780029, 0.4185, 1.091603, 0.4185, 1.4351145, 0.4185, -2.5954199
0.0500294, -0.0149386, 0.42525, -0.0090332, 0.42525, -1.0126343, 0.42525, -0.0796509, 0.42525, 1.1984733, 0.42525, 1.2366412, 0.42525, -2.5877862
0.0508235, -0.0169528, 0.432, -0.0114746, 0.432, -1.0132446, 0.432, -0.0792847, 0.432, 0.8015267, 0.432, 1.1450381, 0.432, -2.7328243
0.0516176, -0.0184634, 0.43875, -0.008606, 0.43875, -1.0131226, 0.43875, -0.0784302, 0.43875, 0.870229, 0.43875, 1.038168, 0.43875, -2.648855
0.0524118, -0.017792, 0.4455, -0.0064697, 0.4455, -1.0095215, 0.4455, -0.074707, 0.4455, 0.8778626, 0.4455, 0.8625954, 0.4455, -2.8244274
0.0532059, -0.0166171, 0.45225, -0.0032349, 0.45225, -1.0043945, 0.45225, -0.0744019, 0.45225, 0.8625954, 0.45225, 1.0610687, 0.45225, -2.610687
0.054, -0.0162814, 0.459, -0.0023193, 0.459, -1.0048828, 0.459, -0.0769653, 0.459, 0.6335878, 0.459, 1.2366412, 0.459, -2.7175572
0.0547941, -0.0162814, 0.46575, 0.0040894, 0.46575, -1.0015869, 0.46575, -0.0754395, 0.46575, 0.5648855, 0.46575, 1.4580153, 0.46575, -2.6641221
0.0555882, -0.0166171, 0.4725, 0.0025024, 0.4725, -1.0061646, 0.4725, -0.0799561, 0.4725, 0.4580153, 0.4725, 1.5114504, 0.4725, -2.6259542
0.0563824, -0.01561, 0.47925, 0.0043945, 0.47925, -1.0068359, 0.47925, -0.0797729, 0.47925, 0.5114504, 0.47925, 1.5419847, 0.47925, -2.5572519
0.0571765, -0.012253, 0.486, 0.0037231, 0.486, -1.0093384, 0.486, -0.0807495, 0.486, 0.4580153, 0.486, 1.9007634, 0.486, -2.7099237
0.0579706, -0.012253, 0.49275, 0.0015259, 0.49275, -1.008728, 0.49275, -0.0819702, 0.49275, 0.3435115, 0.49275, 1.961832, 0.49275, -2.6870229
0.0587647, -0.0102388, 0.4995, -0.0028687, 0.4995, -1.0099487, 0.4995, -0.0812988, 0.4995, 0.3129771, 0.4995, 2.1221373, 0.4995, -2.7557251
0.0595588, -0.0127565, 0.50625, -0.0085449, 0.50625, -1.0093994, 0.50625, -0.0837402, 0.50625, 0.2671756, 0.50625, 1.9770992, 0.50625, -2.7557251
0.0603529, -0.0152743, 0.513, -0.0088501, 0.513, -1.0075684, 0.513, -0.083313, 0.513, 0.2900763, 0.513, 1.8320611, 0.513, -2.6793892
0.0611471, -0.0135958, 0.51975, -0.0124512, 0.51975, -1.0043945, 0.51975, -0.0811157, 0.51975, 0.3129771, 0.51975, 1.3435115, 0.51975, -2.7251909
0.0619412, -0.0112459, 0.5265, -0.0065918, 0.5265, -1.0058594, 0.5265, -0.0831909, 0.5265, 0.1755725, 0.5265, 1, 0.5265, -2.7862597
0.0627353, -0.0130922, 0.53325, 0.00354, 0.53325, -1.0026855, 0.53325, -0.0802612, 0.53325, 0.2061069, 0.53325, 0.9541985, 0.53325, -2.8091602
0.0635294, -0.0171206, 0.54, 0.0057983, 0.54, -1.0011597, 0.54, -0.0803833, 0.54, -0.0152672, 0.54, 1.4580153, 0.54, -2.7557251
0.0643235, -0.0186313, 0.54675, 0.0098267, 0.54675, -1.0053101, 0.54675, -0.0811768, 0.54675, 0.0687023, 0.54675, 2.1603053, 0.54675, -2.8244274
0.0651176, -0.0186313, 0.5535, 0.0091553, 0.5535, -1.0033569, 0.5535, -0.0835571, 0.5535, -0.0763359, 0.5535, 2.8167939, 0.5535, -2.6793892
0.0659118, -0.0172885, 0.56025, 0.0071411, 0.56025, -1.0013428, 0.56025, -0.0838623, 0.56025, -0.1450382, 0.56025, 3.3816793, 0.56025, -2.648855
0.0667059, -0.0196384, 0.567, 0.0043335, 0.567, -1.0055542, 0.567, -0.0817261, 0.567, -0.351145, 0.567, 3.351145, 0.567, -2.6564887
0.0675, -0.0166171, 0.57375, -0.0014038, 0.57375, -1.0056152, 0.57375, -0.0830688, 0.57375, -0.3969466, 0.57375, 3.7709923, 0.57375, -2.4732823
0.0682941, -0.0152743, 0.5805, -0.0053711, 0.5805, -1.0056152, 0.5805, -0.0895386, 0.5805, -0.4122137, 0.5805, 3.778626, 0.5805, -2.6259542
0.0690882, -0.0149386, 0.58725, -0.0071411, 0.58725, -1.0073853, 0.58725, -0.0845947, 0.58725, -0.5267175, 0.58725, 3.4732823, 0.58725, -2.5725191
0.0698824, -0.012253, 0.594, -0.0098877, 0.594, -1.0061035, 0.594, -0.0838013, 0.594, -0.4427481, 0.594, 3.0839694, 0.594, -2.610687
0.0706765, -0.0129244, 0.60075, -0.0095825, 0.60075, -1.0045166, 0.60075, -0.0839844, 0.60075, -0.4732825, 0.60075, 2.740458, 0.60075, -2.9236641
0.0714706, -0.011078, 0.6075, -0.008728, 0.6075, -1.0039673, 0.6075, -0.0880127, 0.6075, -0.480916, 0.6075, 2.480916, 0.6075, -2.961832
0.0722647, -0.0095674, 0.61425, -0.0064697, 0.61425, -1.0046387, 0.61425, -0.088623, 0.61425, -0.2442748, 0.61425, 1.9541985, 0.61425, -2.9541984
0.0730588, -0.008896, 0.621, 0.0004272, 0.621, -1.0075684, 0.621, -0.0899048, 0.621, -0.1526718, 0.621, 2.0534351, 0.621, -2.9694657
0.0738529, -0.0083925, 0.62775, 0.0026855, 0.62775, -1.0091553, 0.62775, -0.0844116, 0.62775, -0.129771, 0.62775, 2.0305343, 0.62775, -2.8778627
0.0746471, -0.0119173, 0.6345, 0.0027466, 0.6345, -1.0083618, 0.6345, -0.0852661, 0.6345, 0.1068702, 0.6345, 2.1526718, 0.6345, -3.1068702
0.0754412, -0.0104067, 0.64125, 0.0031738, 0.64125, -1.0075684, 0.64125, -0.0909424, 0.64125, 0.1450382, 0.64125, 2.5038168, 0.64125, -3.0076337
0.0762353, -0.0090639, 0.648, -0.0018921, 0.648, -1.0038452, 0.648, -0.0840454, 0.648, 0.0076336, 0.648, 2.1832061, 0.648, -2.9389312
0.0770294, -0.0109102, 0.65475, -0.0058594, 0.65475, -1.0028076, 0.65475, -0.085022, 0.65475, 0.0687023, 0.65475, 1.9923664, 0.65475, -3.1679389
0.0778235, -0.0075532, 0.6615, -0.0061646, 0.6615, -1.0064697, 0.6615, -0.0829468, 0.6615, -0.1068702, 0.6615, 1.961832, 0.6615, -3.1145039
0.0786176, -0.0065461, 0.66825, -0.0030518, 0.66825, -1.005188, 0.66825, -0.0900879, 0.66825, -0.0839695, 0.66825, 1.8167939, 0.66825, -3.0229008
0.0794118, -0.0095674, 0.675, -0.0038452, 0.675, -1.0042725, 0.675, -0.081543, 0.675, -0.3358779, 0.675, 1.6946565, 0.675, -3.129771
0.0802059, -0.0102388, 0.68175, -0.0031738, 0.68175, -1.0079956, 0.68175, -0.0844727, 0.68175, -0.4503817, 0.68175, 1.2290076, 0.68175, -3.1374047
0.081, -0.0119173, 0.6885, -0.0071411, 0.6885, -1.0018311, 0.6885, -0.0890503, 0.6885, -0.5725191, 0.6885, 1.7633588, 0.6885, -3.0992367
0.0817941, -0.0152743, 0.69525, -0.0098267, 0.69525, -1.0029907, 0.69525, -0.0911255, 0.69525, -0.6641222, 0.69525, 1.9160305, 0.69525, -3.3816793
0.0825882, -0.0157778, 0.702, -0.0056152, 0.702, -1.0050659, 0.702, -0.0875854, 0.702, -0.480916, 0.702, 1.961832, 0.702, -3.351145
0.0833824, -0.0149386, 0.70875, -0.0080566, 0.70875, -1.0073242, 0.70875, -0.0843506, 0.70875, -0.3358779, 0.70875, 1.648855, 0.70875, -3.5496182
0.0841765, -0.0176242, 0.7155, -0.012085, 0.7155, -1.0096436, 0.7155, -0.0870972, 0.7155, -0.2366412, 0.7155, 1.648855, 0.7155, -3.4351146
0.0849706, -0.0169528, 0.72225, -0.0120239, 0.72225, -1.0078735, 0.72225, -0.0914917, 0.72225, -0.3053435, 0.72225, 1.5648855, 0.72225, -3.5419848
0.0857647, -0.01561, 0.729, -0.0126953, 0.729, -1.0098267, 0.729, -0.0925903, 0.729, -0.2977099, 0.729, 1.4198474, 0.729, -3.6259542
0.0865588, -0.0159457, 0.73575, -0.0136719, 0.73575, -1.0108032, 0.73575, -0.095459, 0.73575, -0.2061069, 0.73575, 1.0305344, 0.73575, -3.7328243
0.0873529, -0.0196384, 0.7425, -0.0130615, 0.7425, -1.012207, 0.7425, -0.0916748, 0.7425, -0.2671756, 0.7425, 0.6946565, 0.7425, -3.7022901
0.0881471, -0.0184634, 0.74925, -0.0140991, 0.74925, -1.0114746, 0.74925, -0.0913696, 0.74925, -0.3206107, 0.74925, 0.5801527, 0.74925, -3.8854961
0.0889412, -0.0179599, 0.756, -0.0166626, 0.756, -1.0116577, 0.756, -0.090271, 0.756, -0.0763359, 0.756, 0.1908397, 0.756, -4.0534353
0.0897353, -0.0193027, 0.76275, -0.0124512, 0.76275, -1.008667, 0.76275, -0.088501, 0.76275, 0.2519084, 0.76275, -0.0534351, 0.76275, -4.1297708
0.0905294, -0.018967, 0.7695, -0.0144043, 0.7695, -1.0059204, 0.7695, -0.0844116, 0.7695, 0.3358779, 0.7695, -0.2824427, 0.7695, -4.1755724
0.0913235, -0.0179599, 0.77625, -0.0113525, 0.77625, -1.0087891, 0.77625, -0.0860596, 0.77625, 0.1984733, 0.77625, -0.1603053, 0.77625, -4.1374044
0.0921176, -0.0135958, 0.783, -0.0109863, 0.783, -1.0037842, 0.783, -0.0907593, 0.783, 0.3740458, 0.783, -0.2137405, 0.783, -4.3129773
0.0929118, -0.0152743, 0.78975, -0.0107422, 0.78975, -1.0012817, 0.78975, -0.0927734, 0.78975, 0.4961832, 0.78975, -0.1832061, 0.78975, -4.2824426
0.0937059, -0.0162814, 0.7965, -0.0092163, 0.7965, -1.0006104, 0.7965, -0.0933228, 0.7965, 0.3816794, 0.7965, -0.2977099, 0.7965, -4.5343513
0.0945, -0.0152743, 0.80325, -0.0060425, 0.80325, -0.9984741, 0.80325, -0.0946655, 0.80325, 0.4732825, 0.80325, -0.4351145, 0.80325, -4.4580154
0.0952941, -0.0142672, 0.81, -0.0050049, 0.81, -1.0032959, 0.81, -0.0978394, 0.81, 0.4580153, 0.81, -0.2671756, 0.81, -4.4351144
0.0960882, -0.0172885, 0.81675, 0.0029297, 0.81675, -1.0021362, 0.81675, -0.0985718, 0.81675, 0.5954198, 0.81675, -0.1832061, 0.81675, -4.5572519
0.0968824, -0.01561, 0.8235, 0.0001221, 0.8235, -1.0031128, 0.8235, -0.0941162, 0.8235, 0.4732825, 0.8235, -0.1145038, 0.8235, -4.5496182
0.0976765, -0.0149386, 0.83025, -0.0022583, 0.83025, -1.0056763, 0.83025, -0.090271, 0.83025, 0.3282443, 0.83025, -0.2977099, 0.83025, -4.6946564
0.0984706, -0.018967, 0.837, -0.0066528, 0.837, -1.0042114, 0.837, -0.0892944, 0.837, 0.1984733, 0.837, -0.3816794, 0.837, -4.6717558
0.0992647, -0.0193027, 0.84375, -0.0100098, 0.84375, -1.007019, 0.84375, -0.0876465, 0.84375, 0.0305344, 0.84375, -0.5572519, 0.84375, -4.6335878
0.1000588, -0.018967, 0.8505, -0.0102539, 0.8505, -1.0059204, 0.8505, -0.0877686, 0.8505, 0.1832061, 0.8505, -0.6259542, 0.8505, -4.8320613
0.1008529, -0.0184634, 0.85725, -0.0061035, 0.85725, -1.0048828, 0.85725, -0.0844727, 0.85725, 0.259542, 0.85725, -0.9465649, 0.85725, -4.9312978
0.1016471, -0.0162814, 0.864, -0.005188, 0.864, -1.0054321, 0.864, -0.0839844, 0.864, 0.1984733, 0.864, -0.9541985, 0.864, -4.8396945
0.1024412, -0.0132601, 0.87075, -0.0023193, 0.87075, -1.0067139, 0.87075, -0.0822144, 0.87075, 0.1374046, 0.87075, -0.7633588, 0.87075, -4.9389315
0.1032353, -0.01561, 0.8775, -0.0003052, 0.8775, -1.0050049, 0.8775, -0.0872192, 0.8775, 0, 0.8775, -0.4122137, 0.8775, -5.0458016
0.1040294, -0.0115816, 0.88425, 0.0031738, 0.88425, -1.0061646, 0.88425, -0.0837402, 0.88425, 0.0763359, 0.88425, -0.9389313, 0.88425, -4.7175574
0.1048235, -0.0099031, 0.891, -0.0032349, 0.891, -1.0047607, 0.891, -0.0883179, 0.891, -0.2061069, 0.891, -0.5267175, 0.891, -4.6335878
0.1056176, -0.0115816, 0.89775, -0.0010986, 0.89775, -1.0026245, 0.89775, -0.0957031, 0.89775, -0.129771, 0.89775, 0.1908397, 0.89775, -4.9847326
0.1064118, -0.0142672, 0.9045, 0.0002441, 0.9045, -1.0020752, 0.9045, -0.0981445, 0.9045, -0.0687023, 0.9045, 0.1679389, 0.9045, -4.8396945
0.1072059, -0.0125887, 0.91125, -0.0015259, 0.91125, -1.0046997, 0.91125, -0.0930176, 0.91125, -0.0229008, 0.91125, 0.1374046, 0.91125, -4.8931298
0.108, -0.012253, 0.918, -0.0012817, 0.918, -1.006958, 0.918, -0.090332, 0.918, -0.2519084, 0.918, 0.1603053, 0.918, -4.7938933
0.1087941, -0.0139315, 0.92475, -0.0003052, 0.92475, -1.0100708, 0.92475, -0.0939941, 0.92475, -0.2519084, 0.92475, 0.3129771, 0.92475, -5.0076337
0.1095882, -0.01561, 0.9315, 0.0001221, 0.9315, -1.008667, 0.9315, -0.0861206, 0.9315, -0.3053435, 0.9315, 0.0763359, 0.9315, -5.2366414
0.1103824, -0.0142672, 0.93825, 0.0046997, 0.93825, -1.0103149, 0.93825, -0.0839233, 0.93825, -0.5572519, 0.93825, -0.3969466, 0.93825, -5.0992365
0.1111765, -0.0129244, 0.945, 0.0037842, 0.945, -1.0090332, 0.945, -0.0817871, 0.945, -0.5419847, 0.945, -0.4732825, 0.945, -5.0992365
0.1119706, -0.0125887, 0.95175, 0.0027466, 0.95175, -1.0073853, 0.95175, -0.0831299, 0.95175, -0.6183206, 0.95175, 0.221374, 0.95175, -5.1450381
0.1127647, -0.0152743, 0.9585, 0.0009766, 0.9585, -1.0054321, 0.9585, -0.0884399, 0.9585, -0.6870229, 0.9585, 0.648855, 0.9585, -4.9923663
0.1135588, -0.0135958, 0.96525, 0.0005493, 0.96525, -1.0065308, 0.96525, -0.0866699, 0.96525, -0.6030535, 0.96525, 0.9160305, 0.96525, -5.0610685
0.1143529, -0.0132601, 0.972, 0.0077515, 0.972, -1.0063477, 0.972, -0.0820312, 0.972, -0.8473282, 0.972, 0.961832, 0.972, -5.1603055
0.1151471, -0.0125887, 0.97875, 0.006897, 0.97875, -1.0045776, 0.97875, -0.081665, 0.97875, -0.8625954, 0.97875, 1.0305344, 0.97875, -5.1984735
0.1159412, -0.0109102, 0.9855, 0.0075684, 0.9855, -1.0068359, 0.9855, -0.0852051, 0.9855, -0.7251908, 0.9855, 1.7862595, 0.9855, -5.0229006
0.1167353, -0.0162814, 0.99225, 0.0067139, 0.99225, -1.0078125, 0.99225, -0.0829468, 0.99225, -1.1603054, 0.99225, 2.221374, 0.99225, -4.9541984
0.1175294, -0.0159457, 0.999, 0.0025024, 0.999, -1.0098267, 0.999, -0.0887451, 0.999, -0.9923664, 0.999, 2.4122138, 0.999, -4.9923663
0.1183235, -0.0139315, 1.00575, -0.0007324, 1.00575, -1.0112305, 1.00575, -0.0927734, 1.00575, -1, 1.00575, 2.7633588, 1.00575, -5.0076337
0.1191176, -0.01561, 1.0125, -0.0023193, 1.0125, -1.0111694, 1.0125, -0.0941162, 1.0125, -1.091603, 1.0125, 2.7251909, 1.0125, -4.9923663
0.1199118, -0.0151064, 1.01925, -0.0028687, 1.01925, -1.0113525, 1.01925, -0.0918579, 1.01925, -1.0305344, 1.01925, 2.1679389, 1.01925, -5.0992365
0.1207059, -0.0169528, 1.026, -0.003479, 1.026, -1.0079956, 1.026, -0.0918579, 1.026, -1.1832061, 1.026, 1.6412214, 1.026, -5.2442746
0.1215, -0.0152743, 1.03275, -0.0011597, 1.03275, -1.0078735, 1.03275, -0.0944824, 1.03275, -1.2748091, 1.03275, 1.1755725, 1.03275, -5.4274807
0.1222941, -0.0137636, 1.0395, 0.0003662, 1.0395, -1.005249, 1.0395, -0.0914307, 1.0395, -1.4198474, 1.0395, 1.6564885, 1.0395, -5.5038166
0.1230882, -0.0142672, 1.04625, 0.003479, 1.04625, -1.0031128, 1.04625, -0.0931396, 1.04625, -1.3358779, 1.04625, 1.9923664, 1.04625, -5.6183205
0.1238824, -0.0151064, 1.053, 0.0061035, 1.053, -1.0004272, 1.053, -0.0922241, 1.053, -1.610687, 1.053, 2.1221373, 1.053, -5.7022901
0.1246765, -0.0149386, 1.05975, 0.0085449, 1.05975, -1.0068359, 1.05975, -0.0900269, 1.05975, -1.5648855, 1.05975, 2.3206108, 1.05975, -5.6106873
0.1254706, -0.0142672, 1.0665, 0.0112915, 1.0665, -1.0071411, 1.0665, -0.0884399, 1.0665, -1.480916, 1.0665, 2.9923663, 1.0665, -5.5496182
0.1262647, -0.0120851, 1.07325, 0.0077515, 1.07325, -1.0076294, 1.07325, -0.0878296, 1.07325, -1.6946565, 1.07325, 3.4732823, 1.07325, -5.4656487
0.1270588, -0.0125887, 1.08, 0.0037231, 1.08, -1.0065918, 1.08, -0.0886841, 1.08, -1.9465649, 1.08, 3.8244274, 1.08, -5.5267177
0.1278529, -0.01561, 1.08675, -0.0003052, 1.08675, -1.0033569, 1.08675, -0.0911255, 1.08675, -2.0229008, 1.08675, 4.1526718, 1.08675, -5.5801525
0.1286471, -0.0146029, 1.0935, -0.0026855, 1.0935, -1.0070801, 1.0935, -0.0944824, 1.0935, -2.2900763, 1.0935, 4.3740458, 1.0935, -5.6183205
0.1294412, -0.012253, 1.10025, -0.0032959, 1.10025, -1.0038452, 1.10025, -0.0941772, 1.10025, -2.1374047, 1.10025, 4.3358779, 1.10025, -5.8931298
0.1302353, -0.0142672, 1.107, -0.00177, 1.107, -1.0066528, 1.107, -0.0953979, 1.107, -2.0229008, 1.107, 4.1221375, 1.107, -5.961832
0.1310294, -0.0174563, 1.11375, 0.0001221, 1.11375, -1.006958, 1.11375, -0.0964355, 1.11375, -2.1908398, 1.11375, 3.5954199, 1.11375, -5.9389315
0.1318235, -0.0186313, 1.1205, 0.0046997, 1.1205, -1.0062866, 1.1205, -0.0964355, 1.1205, -2.2824428, 1.1205, 3.480916, 1.1205, -5.9541984
0.1326176, -0.0176242, 1.12725, 0.0105591, 1.12725, -1.0026855, 1.12725, -0.1001587, 1.12725, -2.2748091, 1.12725, 3.6335878, 1.12725, -6.0992365
0.1334118, -0.0162814, 1.134, 0.0096436, 1.134, -1.0002441, 1.134, -0.1013794, 1.134, -2.3129771, 1.134, 3.5877862, 1.134, -6.0610685
0.1342059, -0.0152743, 1.14075, 0.0130005, 1.14075, -1.0062256, 1.14075, -0.0984497, 1.14075, -2.2137403, 1.14075, 3.5801528, 1.14075, -6.0763359
0.135, -0.0129244, 1.1475, 0.0133057, 1.1475, -1.005127, 1.1475, -0.0947266, 1.1475, -2.3053436, 1.1475, 3.6793892, 1.1475, -6.1145039
0.1357941, -0.0135958, 1.15425, 0.0097046, 1.15425, -1.0043945, 1.15425, -0.1048584, 1.15425, -2.4885497, 1.15425, 3.0610688, 1.15425, -6.0305343
0.1365882, -0.0142672, 1.161, 0.0019531, 1.161, -1.0045776, 1.161, -0.1038208, 1.161, -2.610687, 1.161, 3.480916, 1.161, -6.3587785
0.1373824, -0.0139315, 1.16775, 0.00177, 1.16775, -1.0060425, 1.16775, -0.1065063, 1.16775, -2.7022901, 1.16775, 3.6259542, 1.16775, -6.6335878
0.1381765, -0.0179599, 1.1745, 0.001709, 1.1745, -1.0054932, 1.1745, -0.0957031, 1.1745, -2.8549619, 1.1745, 3.2061069, 1.1745, -6.5572519
0.1389706, -0.0176242, 1.18125, 0.0043945, 1.18125, -1.006958, 1.18125, -0.0956421, 1.18125, -2.7709923, 1.18125, 2.6870229, 1.18125, -6.7175574
0.1397647, -0.0169528, 1.188, 0.00177, 1.188, -1.008606, 1.188, -0.1053467, 1.188, -2.6870229, 1.188, 3.1221373, 1.188, -6.5725193
0.1405588, -0.0169528, 1.19475, 0.0037842, 1.19475, -1.005127, 1.19475, -0.1092529, 1.19475, -2.7022901, 1.19475, 3.4045801, 1.19475, -6.9770994
0.1413529, -0.01561, 1.2015, 0.0040283, 1.2015, -1.0101929, 1.2015, -0.1035156, 1.2015, -2.648855, 1.2015, 3.4580152, 1.2015, -6.9389315
0.1421471, -0.0176242, 1.20825, 0.0109863, 1.20825, -1.0043945, 1.20825, -0.1028442, 1.20825, -2.5267177, 1.20825, 3.6030533, 1.20825, -6.9923663
0.1429412, -0.0162814, 1.215, 0.0125732, 1.215, -1.0054321, 1.215, -0.1038208, 1.215, -2.5648854, 1.215, 3.9389312, 1.215, -6.9312978
0.1437353, -0.0135958, 1.22175, 0.0117798, 1.22175, -1.007019, 1.22175, -0.1075439, 1.22175, -2.7938931, 1.22175, 4.3816795, 1.22175, -6.9312978
0.1445294, -0.0135958, 1.2285, 0.0113525, 1.2285, -1.0063477, 1.2285, -0.1050415, 1.2285, -2.7862597, 1.2285, 4.7099237, 1.2285, -7.1068702
0.1453235, -0.0129244, 1.23525, 0.0119019, 1.23525, -1.0040283, 1.23525, -0.1051636, 1.23525, -2.5038168, 1.23525, 5.0305343, 1.23525, -7.2671757
0.1461176, -0.0115816, 1.242, 0.015564, 1.242, -1.0054321, 1.242, -0.1021118, 1.242, -2.6259542, 1.242, 4.5419846, 1.242, -7.0992365
0.1469118, -0.0102388, 1.24875, 0.0090942, 1.24875, -1.0068359, 1.24875, -0.1052246, 1.24875, -2.9541984, 1.24875, 4.8778625, 1.24875, -7.259542
0.1477059, -0.0109102, 1.2555, 0.0097656, 1.2555, -1.0064087, 1.2555, -0.1103516, 1.2555, -2.7557251, 1.2555, 5.5801525, 1.2555, -7.3511453
0.1485, -0.0139315, 1.26225, 0.0151367, 1.26225, -1.0078125, 1.26225, -0.1109009, 1.26225, -2.7633588, 1.26225, 5.259542, 1.26225, -7.3969464
0.1492941, -0.0129244, 1.269, 0.0180054, 1.269, -1.0083618, 1.269, -0.1049194, 1.269, -2.7099237, 1.269, 5.1450381, 1.269, -7.3664122
0.1500882, -0.0125887, 1.27575, 0.019165, 1.27575, -1.0074463, 1.27575, -0.1034546, 1.27575, -2.6641221, 1.27575, 5.4274807, 1.27575, -7.3893127
0.1508824, -0.0135958, 1.2825, 0.0244141, 1.2825, -1.0065918, 1.2825, -0.109314, 1.2825, -2.6564887, 1.2825, 5.6793895, 1.2825, -7.4580154
0.1516765, -0.0137636, 1.28925, 0.0224609, 1.28925, -1.0054321, 1.28925, -0.105835, 1.28925, -2.7175572, 1.28925, 5.778626, 1.28925, -7.4961834
0.1524706, -0.0142672, 1.296, 0.0202637, 1.296, -1.0049438, 1.296, -0.1040649, 1.296, -2.7175572, 1.296, 6.0839696, 1.296, -7.4885497
0.1532647, -0.0109102, 1.30275, 0.0162964, 1.30275, -1.0062256, 1.30275, -0.1080933, 1.30275, -2.480916, 1.30275, 6.4580154, 1.30275, -7.7328243
0.1540588, -0.0104067, 1.3095, 0.0113525, 1.3095, -1.0045166, 1.3095, -0.1090088, 1.3095, -2.4198472, 1.3095, 6.221374, 1.3095, -7.6870227
0.1548529, -0.0142672, 1.31625, 0.0050049, 1.31625, -1.0028687, 1.31625, -0.1122437, 1.31625, -2.2900763, 1.31625, 6.1068702, 1.31625, -7.7557254
0.1556471, -0.0139315, 1.323, 0.0092773, 1.323, -1.0053101, 1.323, -0.1129761, 1.323, -2.1526718, 1.323, 5.5419846, 1.323, -7.8244276
0.1564412, -0.0109102, 1.32975, 0.0153809, 1.32975, -1.0076904, 1.32975, -0.1089478, 1.32975, -2.3435113, 1.32975, 5.0610685, 1.32975, -7.7328243
0.1572353, -0.0125887, 1.3365, 0.0216064, 1.3365, -1.0100098, 1.3365, -0.1038818, 1.3365, -2.4045801, 1.3365, 4.7633586, 1.3365, -7.6641221
0.1580294, -0.0151064, 1.34325, 0.0341187, 1.34325, -1.010376, 1.34325, -0.0977173, 1.34325, -2.5038168, 1.34325, 4.5038166, 1.34325, -7.9312978
0.1588235, -0.0132601, 1.35, 0.0384521, 1.35, -1.0147095, 1.35, -0.0911255, 1.35, -2.2900763, 1.35, 4.3587785, 1.35, -7.9541984
0.1596176, -0.010071, 1.35675, 0.0415649, 1.35675, -1.0128174, 1.35675, -0.0852051, 1.35675, -2.1908398, 1.35675, 4.3664122, 1.35675, -8.2213745
0.1604118, -0.0095674, 1.3635, 0.0380249, 1.3635, -1.0090332, 1.3635, -0.0878906, 1.3635, -2.3053436, 1.3635, 4.6259542, 1.3635, -7.9694657
0.1612059, -0.0125887, 1.37025, 0.0305786, 1.37025, -1.0054321, 1.37025, -0.0992432, 1.37025, -2.3053436, 1.37025, 4.9007635, 1.37025, -7.8931298
0.162, -0.0119173, 1.377, 0.0330811, 1.377, -1.0042725, 1.377, -0.098938, 1.377, -2.480916, 1.377, 5.2900763, 1.377, -7.519084
0.1627941, -0.0132601, 1.38375, 0.0362549, 1.38375, -1.0050659, 1.38375, -0.1010132, 1.38375, -2.6870229, 1.38375, 5.5572519, 1.38375, -7.4427481
0.1635882, -0.0146029, 1.3905, 0.0420532, 1.3905, -1.0057373, 1.3905, -0.1036987, 1.3905, -2.8015268, 1.3905, 5.8396945, 1.3905, -7.221374
0.1643824, -0.0159457, 1.39725, 0.0450439, 1.39725, -1.0029907, 1.39725, -0.1114502, 1.39725, -2.8854961, 1.39725, 5.7633586, 1.39725, -7.2061067
0.1651765, -0.0162814, 1.404, 0.0449829, 1.404, -1.0045166, 1.404, -0.1139526, 1.404, -3.091603, 1.404, 6.4122138, 1.404, -6.961832
0.1659706, -0.017792, 1.41075, 0.0470581, 1.41075, -1.0066528, 1.41075, -0.1190186, 1.41075, -3.221374, 1.41075, 6.5648856, 1.41075, -6.7557254
0.1667647, -0.0181277, 1.4175, 0.0457764, 1.4175, -1.0074463, 1.4175, -0.1210327, 1.4175, -3.5648854, 1.4175, 6.6030536, 1.4175, -6.8702292
0.1675588, -0.018967, 1.42425, 0.0465698, 1.42425, -1.0057983, 1.42425, -0.1168213, 1.42425, -3.3587787, 1.42425, 6.4961834, 1.42425, -6.7557254
0.1683529, -0.0176242, 1.431, 0.0474243, 1.431, -1.0063477, 1.431, -0.1143188, 1.431, -3.3587787, 1.431, 6.6412215, 1.431, -6.778626
0.1691471, -0.0172885, 1.43775, 0.0463867, 1.43775, -1.005249, 1.43775, -0.1208496, 1.43775, -3.5419848, 1.43775, 7.2824426, 1.43775, -6.5725193
0.1699412, -0.0169528, 1.4445, 0.0415649, 1.4445, -1.0021973, 1.4445, -0.1236572, 1.4445, -3.6641221, 1.4445, 7.5954199, 1.4445, -6.4503818
0.1707353, -0.0179599, 1.45125, 0.0343018, 1.45125, -1.0048218, 1.45125, -0.1234741, 1.45125, -3.9770992, 1.45125, 7.6335878, 1.45125, -6.0610685
0.1715294, -0.0186313, 1.458, 0.0335693, 1.458, -1.0079956, 1.458, -0.1169434, 1.458, -3.908397, 1.458, 7.3893127, 1.458, -6.3053436
0.1723235, -0.0154421, 1.46475, 0.0457153, 1.46475, -1.0112305, 1.46475, -0.1081543, 1.46475, -3.7862597, 1.46475, 6.6488547, 1.46475, -6.3282442
0.1731176, -0.0129244, 1.4715, 0.0542603, 1.4715, -1.0159302, 1.4715, -0.1055908, 1.4715, -3.7022901, 1.4715, 6.3282442, 1.4715, -6.480916
0.1739118, -0.0137636, 1.47825, 0.0669556, 1.47825, -1.006958, 1.47825, -0.1098022, 1.47825, -3.6183207, 1.47825, 7.3435116, 1.47825, -6.3511453
0.1747059, -0.01561, 1.485, 0.0620728, 1.485, -1.005249, 1.485, -0.1174316, 1.485, -3.9847329, 1.485, 8.7633591, 1.485, -5.9083967
0.1755, -0.0129244, 1.49175, 0.0571289, 1.49175, -1.0065308, 1.49175, -0.1159668, 1.49175, -4.3664122, 1.49175, 9.839695, 1.49175, -5.5877862
0.1762941, -0.01561, 1.4985, 0.0393677, 1.4985, -1.0106812, 1.4985, -0.1204834, 1.4985, -4.519084, 1.4985, 10.5725193, 1.4985, -5.4351144
0.1770882, -0.0152743, 1.50525, 0.0279541, 1.50525, -1.0095825, 1.50525, -0.1210938, 1.50525, -4.5496182, 1.50525, 10.2900763, 1.50525, -5.4656487
0.1778824, -0.0115816, 1.512, 0.020874, 1.512, -1.0123901, 1.512, -0.1258545, 1.512, -4.5801525, 1.512, 9.3053436, 1.512, -5.1832061
0.1786765, -0.0109102, 1.51875, 0.0202637, 1.51875, -1.0100098, 1.51875, -0.1268921, 1.51875, -4.5648856, 1.51875, 8.0458012, 1.51875, -5.1679387
0.1794706, -0.0112459, 1.5255, 0.0293579, 1.5255, -1.0089722, 1.5255, -0.1322021, 1.5255, -4.3816795, 1.5255, 7.6793895, 1.5255, -5.1984735
0.1802647, -0.0105745, 1.53225, 0.0391235, 1.53225, -1.0099487, 1.53225, -0.1356201, 1.53225, -4.3816795, 1.53225, 6.8931298, 1.53225, -5.1679387
0.1810588, -0.0132601, 1.539, 0.0474243, 1.539, -1.0073242, 1.539, -0.1377563, 1.539, -4.1603055, 1.539, 6.8320613, 1.539, -5.221374
0.1818529, -0.0130922, 1.54575, 0.0509644, 1.54575, -1.0109863, 1.54575, -0.135498, 1.54575, -4.3358779, 1.54575, 7.1679387, 1.54575, -5.038168
0.1826471, -0.0130922, 1.5525, 0.0386353, 1.5525, -1.0057373, 1.5525, -0.1427612, 1.5525, -3.6946564, 1.5525, 8.0152674, 1.5525, -5.0076337
0.1834412, -0.0157778, 1.55925, 0.0272827, 1.55925, -1.0057373, 1.55925, -0.1442871, 1.55925, -3.9541984, 1.55925, 8.3053436, 1.55925, -5.0229006
0.1842353, -0.0162814, 1.566, 0.0147705, 1.566, -1.0098877, 1.566, -0.1414185, 1.566, -3.778626, 1.566, 7.6641221, 1.566, -4.8625956
0.1850294, -0.0166171, 1.57275, 0.0113525, 1.57275, -1.0119629, 1.57275, -0.138916, 1.57275, -3.2290077, 1.57275, 6.6030536, 1.57275, -4.8473282
0.1858235, -0.0171206, 1.5795, 0.0148926, 1.5795, -1.0061646, 1.5795, -0.144104, 1.5795, -3.2290077, 1.5795, 5.5877862, 1.5795, -4.9847326
0.1866176, -0.0166171, 1.58625, 0.024231, 1.58625, -1.0092773, 1.58625, -0.1419067, 1.58625, -3.0687022, 1.58625, 4.7862597, 1.58625, -4.8625956
0.1874118, -0.0176242, 1.593, 0.0415039, 1.593, -1.0096436, 1.593, -0.1453247, 1.593, -3.1603053, 1.593, 4.8015265, 1.593, -4.8854961
0.1882059, -0.0199741, 1.59975, 0.0495605, 1.59975, -1.012146, 1.59975, -0.140625, 1.59975, -3.1145039, 1.59975, 4.8473282, 1.59975, -4.7099237
0.189, -0.0169528, 1.6065, 0.0537109, 1.6065, -1.0134888, 1.6065, -0.1402588, 1.6065, -3.0076337, 1.6065, 5.4351144, 1.6065, -4.7862597
0.1897941, -0.012253, 1.61325, 0.0552979, 1.61325, -1.008606, 1.61325, -0.1382446, 1.61325, -2.8167939, 1.61325, 6.0992365, 1.61325, -4.5419846
0.1905882, -0.0124208, 1.62, 0.0524902, 1.62, -1.0079956, 1.62, -0.1364136, 1.62, -2.9389312, 1.62, 6.6564884, 1.62, -4.6641221
0.1913824, -0.0132601, 1.62675, 0.0482788, 1.62675, -1.0072632, 1.62675, -0.1356201, 1.62675, -2.9847329, 1.62675, 7.4274807, 1.62675, -4.5114503
0.1921765, -0.012253, 1.6335, 0.0426636, 1.6335, -1.0075684, 1.6335, -0.1442871, 1.6335, -2.7709923, 1.6335, 7.8931298, 1.6335, -4.4732823
0.1929706, -0.014435, 1.64025, 0.032959, 1.64025, -1.0075073, 1.64025, -0.1467896, 1.64025, -2.7709923, 1.64025, 7.7938933, 1.64025, -4.2748094
0.1937647, -0.0125887, 1.647, 0.0297241, 1.647, -1.008728, 1.647, -0.1484375, 1.647, -2.6183207, 1.647, 7.4580154, 1.647, -4.2442746
0.1945588, -0.0125887, 1.65375, 0.0314331, 1.65375, -1.0067139, 1.65375, -0.1511841, 1.65375, -2.5572519, 1.65375, 7.0229006, 1.65375, -4.3816795
0.1953529, -0.0154421, 1.6605, 0.0317993, 1.6605, -1.0099487, 1.6605, -0.1538696, 1.6605, -2.5114503, 1.6605, 6.6717558, 1.6605, -4.5343513
0.1961471, -0.0135958, 1.66725, 0.0330811, 1.66725, -1.0111084, 1.66725, -0.151062, 1.66725, -2.3053436, 1.66725, 6.2366414, 1.66725, -4.519084
0.1969412, -0.0125887, 1.674, 0.026123, 1.674, -1.0053711, 1.674, -0.1533813, 1.674, -2.1908398, 1.674, 5.9541984, 1.674, -4.6106873
0.1977353, -0.0132601, 1.68075, 0.0269775, 1.68075, -1.0044556, 1.68075, -0.1575317, 1.68075, -1.9312977, 1.68075, 5.5877862, 1.68075, -4.4503818
0.1985294, -0.0159457, 1.6875, 0.0274048, 1.6875, -1.0074463, 1.6875, -0.1526489, 1.6875, -1.7709924, 1.6875, 4.7328243, 1.6875, -4.6335878
0.1993235, -0.01561, 1.69425, 0.0348511, 1.69425, -1.0039673, 1.69425, -0.1516113, 1.69425, -1.4351145, 1.69425, 4.3358779, 1.69425, -4.7099237
0.2001176, -0.0176242, 1.701, 0.0320435, 1.701, -1.0058594, 1.701, -0.1552734, 1.701, -1.2671756, 1.701, 4.1832061, 1.701, -4.7633586
0.2009118, -0.0182956, 1.70775, 0.0327148, 1.70775, -1.010376, 1.70775, -0.1528931, 1.70775, -1.0763359, 1.70775, 4.0152674, 1.70775, -4.8091602
0.2017059, -0.0169528, 1.7145, 0.0290527, 1.7145, -1.0093994, 1.7145, -0.1484985, 1.7145, -0.961832, 1.7145, 3.8931298, 1.7145, -4.6870227
0.2025, -0.0159457, 1.72125, 0.0269775, 1.72125, -1.0112305, 1.72125, -0.1496582, 1.72125, -0.7099237, 1.72125, 3.4961832, 1.72125, -4.7480917
0.2032941, -0.0149386, 1.728, 0.0266113, 1.728, -1.0116577, 1.728, -0.1494751, 1.728, -0.3129771, 1.728, 2.9923663, 1.728, -4.9083967
0.2040882, -0.0162814, 1.73475, 0.0227051, 1.73475, -1.0107422, 1.73475, -0.1550903, 1.73475, -0.2137405, 1.73475, 2.7633588, 1.73475, -4.7251906
0.2048824, -0.0159457, 1.7415, 0.0219116, 1.7415, -1.0070801, 1.7415, -0.1561279, 1.7415, 0.0076336, 1.7415, 1.870229, 1.7415, -4.9007635
0.2056765, -0.0169528, 1.74825, 0.0272217, 1.74825, -1.0108643, 1.74825, -0.1509399, 1.74825, 0.2366412, 1.74825, 1.0992366, 1.74825, -4.8473282
0.2064706, -0.0139315, 1.755, 0.0422974, 1.755, -1.0123291, 1.755, -0.151123, 1.755, 0.4885496, 1.755, 0.9465649, 1.755, -4.778626
0.2072647, -0.0152743, 1.76175, 0.0460815, 1.76175, -1.0098267, 1.76175, -0.1489258, 1.76175, 0.5801527, 1.76175, 0.5343512, 1.76175, -4.8854961
0.2080588, -0.0149386, 1.7685, 0.048584, 1.7685, -1.010437, 1.7685, -0.1472168, 1.7685, 0.5114504, 1.7685, 0.6870229, 1.7685, -4.5725193
0.2088529, -0.0142672, 1.77525, 0.0504761, 1.77525, -1.0081787, 1.77525, -0.1473389, 1.77525, 0.7633588, 1.77525, 0.5648855, 1.77525, -4.6183205
0.2096471, -0.0149386, 1.782, 0.0515747, 1.782, -1.0074463, 1.782, -0.145874, 1.782, 0.870229, 1.782, 0.5038168, 1.782, -4.7251906
0.2104412, -0.0135958, 1.78875, 0.053894, 1.78875, -1.0057373, 1.78875, -0.1401367, 1.78875, 0.8854962, 1.78875, 0.3358779, 1.78875, -4.5419846
0.2112353, -0.0115816, 1.7955, 0.0533447, 1.7955, -1.0090332, 1.7955, -0.1408081, 1.7955, 0.7557252, 1.7955, 0.1832061, 1.7955, -4.4656487
0.2120294, -0.0139315, 1.80225, 0.0532837, 1.80225, -1.0089111, 1.80225, -0.1403198, 1.80225, 0.870229, 1.80225, -0.1832061, 1.80225, -4.2442746
0.2128235, -0.0112459, 1.809, 0.0513916, 1.809, -1.0058594, 1.809, -0.1436157, 1.809, 0.9389313, 1.809, -0.3969466, 1.809, -4.2290077
0.2136176, -0.0135958, 1.81575, 0.0516968, 1.81575, -1.0041504, 1.81575, -0.1431274, 1.81575, 0.9465649, 1.81575, -0.7557252, 1.81575, -4
0.2144118, -0.017792, 1.8225, 0.0559692, 1.8225, -1.0028076, 1.8225, -0.1376953, 1.8225, 0.7709923, 1.8225, -0.778626, 1.8225, -3.8549619
0.2152059, -0.0157778, 1.82925, 0.0532227, 1.82925, -1.0053101, 1.82925, -0.1381836, 1.82925, 0.8396947, 1.82925, -0.4045801, 1.82925, -3.9770992
0.216, -0.0142672, 1.836, 0.0544434, 1.836, -1.0041504, 1.836, -0.1437378, 1.836, 0.8244275, 1.836, -0.0916031, 1.836, -3.7099237
0.2167941, -0.0149386, 1.84275, 0.0548706, 1.84275, -1.0043945, 1.84275, -0.1411133, 1.84275, 0.8091603, 1.84275, 0.0152672, 1.84275, -3.3129771
0.2175882, -0.0149386, 1.8495, 0.0556641, 1.8495, -1.0079956, 1.8495, -0.1429443, 1.8495, 0.908397, 1.8495, 0.259542, 1.8495, -3.0305343
0.2183824, -0.0149386, 1.85625, 0.0527954, 1.85625, -1.0029907, 1.85625, -0.1452026, 1.85625, 0.9389313, 1.85625, 0.648855, 1.85625, -2.961832
0.2191765, -0.0149386, 1.863, 0.0534058, 1.863, -1.0020752, 1.863, -0.1452637, 1.863, 0.7557252, 1.863, 0.7862595, 1.863, -2.9007633
0.2199706, -0.0152743, 1.86975, 0.0505371, 1.86975, -1.0048218, 1.86975, -0.1444702, 1.86975, 0.9389313, 1.86975, 1.0839695, 1.86975, -2.6870229
0.2207647, -0.0159457, 1.8765, 0.0489502, 1.8765, -1.006897, 1.8765, -0.1477051, 1.8765, 1.091603, 1.8765, 1.2671756, 1.8765, -2.4732823
0.2215588, -0.0152743, 1.88325, 0.0499878, 1.88325, -1.0079956, 1.88325, -0.1470947, 1.88325, 0.9389313, 1.88325, 1.0763359, 1.88325, -2.6335878
0.2223529, -0.0154421, 1.89, 0.0488281, 1.89, -1.0084839, 1.89, -0.1443481, 1.89, 1.0534351, 1.89, 0.9541985, 1.89, -2.3358779
0.2231471, -0.0149386, 1.89675, 0.0511475, 1.89675, -1.0115967, 1.89675, -0.1394043, 1.89675, 1.1755725, 1.89675, 0.9541985, 1.89675, -2.3358779
0.2239412, -0.0152743, 1.9035, 0.0514526, 1.9035, -1.0140381, 1.9035, -0.1390991, 1.9035, 1.1755725, 1.9035, 0.961832, 1.9035, -2.1221373
0.2247353, -0.0130922, 1.91025, 0.0501099, 1.91025, -1.0113525, 1.91025, -0.1429443, 1.91025, 1.3358779, 1.91025, 1.1145039, 1.91025, -2.1755726
0.2255294, -0.0132601, 1.917, 0.0493774, 1.917, -1.010498, 1.917, -0.1416016, 1.917, 1.1603054, 1.917, 1.2137405, 1.917, -1.9541985
0.2263235, -0.0129244, 1.92375, 0.0444946, 1.92375, -1.0095825, 1.92375, -0.1362915, 1.92375, 1.1450381, 1.92375, 1.3282443, 1.92375, -1.8244275
0.2271176, -0.0082246, 1.9305, 0.0397339, 1.9305, -1.0140991, 1.9305, -0.135376, 1.9305, 1.2977099, 1.9305, 1.3664122, 1.9305, -1.8091604
0.2279118, -0.0109102, 1.93725, 0.036377, 1.93725, -1.0098877, 1.93725, -0.1398315, 1.93725, 1.4427481, 1.93725, 1.351145, 1.93725, -1.740458
0.2287059, -0.0125887, 1.944, 0.0368652, 1.944, -1.0090332, 1.944, -0.1405029, 1.944, 1.4122137, 1.944, 1.2671756, 1.944, -1.5877863
0.2295, -0.012253, 1.95075, 0.0447388, 1.95075, -1.0099487, 1.95075, -0.1362915, 1.95075, 1.3053435, 1.95075, 1.129771, 1.95075, -1.5114504
0.2302941, -0.0115816, 1.9575, 0.0464478, 1.9575, -1.010498, 1.9575, -0.1377563, 1.9575, 1.4351145, 1.9575, 0.961832, 1.9575, -1.3816794
0.2310882, -0.012253, 1.96425, 0.0475464, 1.96425, -1.007019, 1.96425, -0.1398315, 1.96425, 1.5572519, 1.96425, 0.9770992, 1.96425, -1.3816794
0.2318824, -0.0139315, 1.971, 0.0406494, 1.971, -1.0081177, 1.971, -0.1432495, 1.971, 1.6717557, 1.971, 0.8854962, 1.971, -1.5496184
0.2326765, -0.0142672, 1.97775, 0.0401611, 1.97775, -1.0041504, 1.97775, -0.1410522, 1.97775, 1.5648855, 1.97775, 0.5954198, 1.97775, -1.4885496
0.2334706, -0.0162814, 1.9845, 0.0374756, 1.9845, -1.0038452, 1.9845, -0.1375732, 1.9845, 1.7175573, 1.9845, 0.3740458, 1.9845, -1.6717557
0.2342647, -0.0149386, 1.99125, 0.0355835, 1.99125, -1.0024414, 1.99125, -0.1392822, 1.99125, 1.7938931, 1.99125, 0.2366412, 1.99125, -1.5801526
0.2350588, -0.0176242, 1.998, 0.0291138, 1.998, -1.0057983, 1.998, -0.1414185, 1.998, 1.8396946, 1.998, -0.0839695, 1.998, -1.5496184
0.2358529, -0.018967, 2.00475, 0.0320435, 2.00475, -1.0046997, 2.00475, -0.1469727, 2.00475, 1.8320611, 2.00475, -0.7251908, 2.00475, -1.7328244
0.2366471, -0.0162814, 2.0115, 0.0337524, 2.0115, -1.0040894, 2.0115, -0.1420898, 2.0115, 1.9389313, 2.0115, -1.0687023, 2.0115, -1.7480916
0.2374412, -0.0146029, 2.01825, 0.03125, 2.01825, -1.0064087, 2.01825, -0.144043, 2.01825, 2.0152671, 2.01825, -1.4274809, 2.01825, -1.908397
0.2382353, -0.0142672, 2.025, 0.0368652, 2.025, -1.0065918, 2.025, -0.1428223, 2.025, 2.2366412, 2.025, -1.6793894, 2.025, -1.8015267
0.2390294, -0.0151064, 2.03175, 0.0368652, 2.03175, -1.0073242, 2.03175, -0.1413574, 2.03175, 2.259542, 2.03175, -1.519084, 2.03175, -1.8473282
0.2398235, -0.0169528, 2.0385, 0.0388794, 2.0385, -1.0080566, 2.0385, -0.1397705, 2.0385, 2.259542, 2.0385, -1.3129771, 2.0385, -1.9847329
0.2406176, -0.0162814, 2.04525, 0.0333252, 2.04525, -1.0062256, 2.04525, -0.1398315, 2.04525, 2.2061069, 2.04525, -1.5038168, 2.04525, -2.038168
0.2414118, -0.0129244, 2.052, 0.0333862, 2.052, -1.007019, 2.052, -0.1352539, 2.052, 2.1603053, 2.052, -1.778626, 2.052, -2.0152671
0.2422059, -0.0149386, 2.05875, 0.0324707, 2.05875, -1.0081787, 2.05875, -0.1351929, 2.05875, 2.4198472, 2.05875, -1.8778626, 2.05875, -2.0534351
0.243, -0.0149386, 2.0655, 0.0352783, 2.0655, -1.0083618, 2.0655, -0.1360474, 2.0655, 2.3435113, 2.0655, -1.7862595, 2.0655, -2.2442749
0.2437941, -0.0115816, 2.07225, 0.0344238, 2.07225, -1.0072021, 2.07225, -0.1383057, 2.07225, 2.4503818, 2.07225, -1.8015267, 2.07225, -2.3282442
0.2445882, -0.011078, 2.079, 0.0321045, 2.079, -1.0078125, 2.079, -0.135498, 2.079, 2.5114503, 2.079, -1.8778626, 2.079, -2.4198472
0.2453824, -0.0115816, 2.08575, 0.0302734, 2.08575, -1.0108643, 2.08575, -0.1407471, 2.08575, 2.6946564, 2.08575, -1.4045801, 2.08575, -2.2290077
0.2461765, -0.0117494, 2.0925, 0.0223999, 2.0925, -1.0076904, 2.0925, -0.1403198, 2.0925, 2.8778627, 2.0925, -1.5572519, 2.0925, -2.3206108
0.2469706, -0.0135958, 2.09925, 0.0220947, 2.09925, -1.0054932, 2.09925, -0.1386719, 2.09925, 2.9541984, 2.09925, -2.389313, 2.09925, -2.2290077
0.2477647, -0.0142672, 2.106, 0.0303345, 2.106, -1.0044556, 2.106, -0.1394653, 2.106, 3.091603, 2.106, -2.7633588, 2.106, -2.2748091
0.2485588, -0.0149386, 2.11275, 0.0303345, 2.11275, -1.0044556, 2.11275, -0.1428223, 2.11275, 3.0763359, 2.11275, -3.0992367, 2.11275, -2.3740458
0.2493529, -0.0169528, 2.1195, 0.0272217, 2.1195, -1.0061646, 2.1195, -0.1408081, 2.1195, 3.1603053, 2.1195, -3.2977099, 2.1195, -2.480916
0.2501471, -0.0164492, 2.12625, 0.0354004, 2.12625, -1.0025635, 2.12625, -0.1418457, 2.12625, 3.1603053, 2.12625, -3.4351146, 2.12625, -2.5267177
0.2509412, -0.0149386, 2.133, 0.0421143, 2.133, -1.0012207, 2.133, -0.135498, 2.133, 3.1755726, 2.133, -3.7480917, 2.133, -2.5725191
0.2517353, -0.0129244, 2.13975, 0.0531616, 2.13975, -1.0039673, 2.13975, -0.1334839, 2.13975, 3.0687022, 2.13975, -3.2824428, 2.13975, -2.5801528
0.2525294, -0.0139315, 2.1465, 0.0583496, 2.1465, -1.0026855, 2.1465, -0.1303711, 2.1465, 2.9847329, 2.1465, -2.8931298, 2.1465, -2.4732823
0.2533235, -0.0135958, 2.15325, 0.0540161, 2.15325, -0.9995728, 2.15325, -0.1291504, 2.15325, 2.6641221, 2.15325, -2.129771, 2.15325, -2.3587787
0.2541176, -0.0142672, 2.16, 0.0446167, 2.16, -1.0029907, 2.16, -0.1282959, 2.16, 2.6412213, 2.16, -1.4961832, 2.16, -2.3816793
0.2549118, -0.0149386, 2.16675, 0.0426636, 2.16675, -1.0026855, 2.16675, -0.1268311, 2.16675, 2.3969467, 2.16675, -1.3358779, 2.16675, -2.1755726
0.2557059, -0.014435, 2.1735, 0.0375977, 2.1735, -1.0062256, 2.1735, -0.1244507, 2.1735, 2.2137403, 2.1735, -1.3740458, 2.1735, -2.2977099
0.2565, -0.0142672, 2.18025, 0.043457, 2.18025, -1.0048828, 2.18025, -0.1292114, 2.18025, 2.0458016, 2.18025, -1.1755725, 2.18025, -2.2748091
0.2572941, -0.0139315, 2.187, 0.0419312, 2.187, -1.0058594, 2.187, -0.1264648, 2.187, 2.0305343, 2.187, -0.6717557, 2.187, -2.2137403
0.2580882, -0.0129244, 2.19375, 0.0418701, 2.19375, -1.0053711, 2.19375, -0.1268311, 2.19375, 1.6793894, 2.19375, -0.4045801, 2.19375, -2.1450381
0.2588824, -0.0132601, 2.2005, 0.0462036, 2.2005, -1.0088501, 2.2005, -0.1242676, 2.2005, 1.7480916, 2.2005, -0.0763359, 2.2005, -2.0839694
0.2596765, -0.0135958, 2.20725, 0.0460205, 2.20725, -1.0038452, 2.20725, -0.1254883, 2.20725, 1.9465649, 2.20725, 0.4045801, 2.20725, -2.0687022
0.2604706, -0.0172885, 2.214, 0.0407715, 2.214, -1.0038452, 2.214, -0.1230469, 2.214, 1.610687, 2.214, 0.8625954, 2.214, -2.0992367
0.2612647, -0.0162814, 2.22075, 0.0384521, 2.22075, -1.0039062, 2.22075, -0.1311035, 2.22075, 1.4961832, 2.22075, 0.9389313, 2.22075, -2.091603
0.2620588, -0.0142672, 2.2275, 0.0337524, 2.2275, -1.0046387, 2.2275, -0.1330566, 2.2275, 1.5419847, 2.2275, 1.1908396, 2.2275, -1.9160305
0.2628529, -0.0135958, 2.23425, 0.0281982, 2.23425, -1.0057983, 2.23425, -0.1343384, 2.23425, 1.3358779, 2.23425, 0.8015267, 2.23425, -1.9694656
0.2636471, -0.0130922, 2.241, 0.029541, 2.241, -1.007019, 2.241, -0.1415405, 2.241, 1.5648855, 2.241, 0.7251908, 2.241, -2.038168
0.2644412, -0.0132601, 2.24775, 0.0314941, 2.24775, -1.0040894, 2.24775, -0.1390991, 2.24775, 1.5114504, 2.24775, 0.4351145, 2.24775, -2.1832061
0.2652353, -0.011078, 2.2545, 0.0322876, 2.2545, -1.0029297, 2.2545, -0.1363525, 2.2545, 1.389313, 2.2545, -0.0305344, 2.2545, -2.1450381
0.2660294, -0.0129244, 2.26125, 0.0368652, 2.26125, -1.0061646, 2.26125, -0.1348877, 2.26125, 1.5572519, 2.26125, 0.0534351, 2.26125, -2.351145
0.2668235, -0.0146029, 2.268, 0.0341187, 2.268, -1.0045166, 2.268, -0.1374512, 2.268, 1.648855, 2.268, 0.3664122, 2.268, -2.4656489
0.2676176, -0.0146029, 2.27475, 0.0316772, 2.27475, -1.0056763, 2.27475, -0.1362305, 2.27475, 1.7251909, 2.27475, 0.5496183, 2.27475, -2.5496182
0.2684118, -0.0171206, 2.2815, 0.0309448, 2.2815, -1.0037231, 2.2815, -0.1369019, 2.2815, 1.6183206, 2.2815, 0.6335878, 2.2815, -2.221374
0.2692059, -0.0162814, 2.28825, 0.0291748, 2.28825, -1.007019, 2.28825, -0.1364136, 2.28825, 1.8015267, 2.28825, 0.5114504, 2.28825, -2.5114503
0.27, -0.0172885, 2.295, 0.0297852, 2.295, -1.0067139, 2.295, -0.1351318, 2.295, 1.7175573, 2.295, 0.5114504, 2.295, -2.5877862
0.2707941, -0.0164492, 2.30175, 0.0297241, 2.30175, -1.0084229, 2.30175, -0.1352539, 2.30175, 1.7862595, 2.30175, 0.4045801, 2.30175, -2.4580152
0.2715882, -0.0152743, 2.3085, 0.0358887, 2.3085, -1.0085449, 2.3085, -0.1345825, 2.3085, 1.7099236, 2.3085, 0.4656489, 2.3085, -2.5954199
0.2723824, -0.0176242, 2.31525, 0.0376587, 2.31525, -1.0093384, 2.31525, -0.1276855, 2.31525, 1.6641221, 2.31525, 0.6793893, 2.31525, -2.5419848
0.2731765, -0.018967, 2.322, 0.0332642, 2.322, -1.0079346, 2.322, -0.1326904, 2.322, 1.6183206, 2.322, 0.6564885, 2.322, -2.6412213
0.2739706, -0.0194705, 2.32875, 0.0282593, 2.32875, -1.0049438, 2.32875, -0.1321411, 2.32875, 1.6717557, 2.32875, 0.5496183, 2.32875, -2.7022901
0.2747647, -0.0172885, 2.3355, 0.0301514, 2.3355, -1.0064087, 2.3355, -0.1303711, 2.3355, 1.6335878, 2.3355, 0.0992366, 2.3355, -2.7709923
0.2755588, -0.0159457, 2.34225, 0.031311, 2.34225, -1.0058594, 2.34225, -0.128418, 2.34225, 1.6030535, 2.34225, -0.1068702, 2.34225, -2.7175572
0.2763529, -0.0149386, 2.349, 0.0340576, 2.349, -1.0055542, 2.349, -0.1308594, 2.349, 1.7938931, 2.349, -0.0610687, 2.349, -2.7175572
0.2771471, -0.0135958, 2.35575, 0.0354004, 2.35575, -1.0061035, 2.35575, -0.130127, 2.35575, 1.961832, 2.35575, 0.2977099, 2.35575, -2.8625953
0.2779412, -0.0135958, 2.3625, 0.0310059, 2.3625, -1.0063477, 2.3625, -0.135498, 2.3625, 1.9007634, 2.3625, 0.2442748, 2.3625, -2.8396947
0.2787353, -0.0119173, 2.36925, 0.0327148, 2.36925, -1.006958, 2.36925, -0.135498, 2.36925, 1.9312977, 2.36925, 0.1984733, 2.36925, -2.740458
0.2795294, -0.0142672, 2.376, 0.0341797, 2.376, -1.0059814, 2.376, -0.1312866, 2.376, 1.8396946, 2.376, 0.2290076, 2.376, -2.8931298
0.2803235, -0.012253, 2.38275, 0.0320435, 2.38275, -1.0070801, 2.38275, -0.1328125, 2.38275, 1.9160305, 2.38275, 0.4503817, 2.38275, -2.7480917
0.2811176, -0.0109102, 2.3895, 0.0288696, 2.3895, -1.0062866, 2.3895, -0.135498, 2.3895, 1.9694656, 2.3895, 0.7175573, 2.3895, -2.8396947
0.2819118, -0.0115816, 2.39625, 0.0296021, 2.39625, -1.0087891, 2.39625, -0.131958, 2.39625, 1.9847329, 2.39625, 0.610687, 2.39625, -2.9465649
0.2827059, -0.0139315, 2.403, 0.0276489, 2.403, -1.0087891, 2.403, -0.1315918, 2.403, 1.9694656, 2.403, 0.4580153, 2.403, -2.9770992
0.2835, -0.0132601, 2.40975, 0.0307007, 2.40975, -1.0100708, 2.40975, -0.1281128, 2.40975, 1.9007634, 2.40975, 0.2519084, 2.40975, -3.0610688
0.2842941, -0.0135958, 2.4165, 0.0333862, 2.4165, -1.0071411, 2.4165, -0.1311646, 2.4165, 2.1526718, 2.4165, 0.3740458, 2.4165, -3.0687022
0.2850882, -0.0152743, 2.42325, 0.034668, 2.42325, -1.005188, 2.42325, -0.128479, 2.42325, 2, 2.42325, 0.389313, 2.42325, -3.221374
0.2858824, -0.0176242, 2.43, 0.0390015, 2.43, -1.0039062, 2.43, -0.1317749, 2.43, 1.961832, 2.43, 0.6946565, 2.43, -2.9160306
0.2866765, -0.014435, 2.43675, 0.041748, 2.43675, -1.0053101, 2.43675, -0.1295166, 2.43675, 1.9312977, 2.43675, 1, 2.43675, -3.0458016
0.2874706, -0.0127565, 2.4435, 0.0385132, 2.4435, -1.0031128, 2.4435, -0.131897, 2.4435, 1.9694656, 2.4435, 1.1755725, 2.4435, -3
0.2882647, -0.0157778, 2.45025, 0.0293579, 2.45025, -1.0054321, 2.45025, -0.135376, 2.45025, 1.8931298, 2.45025, 1.2900764, 2.45025, -3.0534351
0.2890588, -0.0162814, 2.457, 0.0273438, 2.457, -1.0043945, 2.457, -0.1340332, 2.457, 1.7480916, 2.457, 1.1374046, 2.457, -2.9389312
0.2898529, -0.0162814, 2.46375, 0.0310669, 2.46375, -1.0029297, 2.46375, -0.1316528, 2.46375, 1.740458, 2.46375, 0.6793893, 2.46375, -3.0305343
0.2906471, -0.0142672, 2.4705, 0.0390625, 2.4705, -1.0087891, 2.4705, -0.1313477, 2.4705, 1.8091604, 2.4705, 0.5572519, 2.4705, -3.1145039
0.2914412, -0.011078, 2.47725, 0.0408325, 2.47725, -1.0078735, 2.47725, -0.1294556, 2.47725, 1.870229, 2.47725, 0.4885496, 2.47725, -3.1450381
0.2922353, -0.0151064, 2.484, 0.0374146, 2.484, -1.0082397, 2.484, -0.1265869, 2.484, 1.7022901, 2.484, 0.5801527, 2.484, -3.0992367
0.2930294, -0.0176242, 2.49075, 0.0319824, 2.49075, -1.0048218, 2.49075, -0.130127, 2.49075, 1.7709924, 2.49075, 1.0534351, 2.49075, -3.0458016
0.2938235, -0.0162814, 2.4975, 0.0325317, 2.4975, -1.0060425, 2.4975, -0.1316528, 2.4975, 1.5419847, 2.4975, 1.2442749, 2.4975, -2.9770992
0.2946176, -0.0152743, 2.50425, 0.0318604, 2.50425, -1.007019, 2.50425, -0.131897, 2.50425, 1.6946565, 2.50425, 1.0763359, 2.50425, -3.2366412
0.2954118, -0.0179599, 2.511, 0.0287476, 2.511, -1.0077515, 2.511, -0.1294556, 2.511, 1.5801526, 2.511, 0.9770992, 2.511, -3.0152671
0.2962059, -0.0149386, 2.51775, 0.0290527, 2.51775, -1.0084839, 2.51775, -0.1298828, 2.51775, 1.6717557, 2.51775, 0.7480916, 2.51775, -3.0763359
0.297, -0.0129244, 2.5245, 0.0285034, 2.5245, -1.003418, 2.5245, -0.1345825, 2.5245, 1.5877863, 2.5245, 0.6717557, 2.5245, -3.0839694
0.2977941, -0.0129244, 2.53125, 0.0282593, 2.53125, -1.0031738, 2.53125, -0.1351929, 2.53125, 1.740458, 2.53125, 0.6946565, 2.53125, -2.9847329
0.2985882, -0.0176242, 2.538, 0.0322876, 2.538, -1.0064697, 2.538, -0.1312866, 2.538, 1.5572519, 2.538, 0.4656489, 2.538, -3.1603053
0.2993824, -0.0171206, 2.54475, 0.0310059, 2.54475, -1.0087891, 2.54475, -0.1303101, 2.54475, 1.519084, 2.54475, 0.3587786, 2.54475, -3.2137403
0.3001765, -0.0149386, 2.5515, 0.0328369, 2.5515, -1.0098267, 2.5515, -0.1298828, 2.5515, 1.6259542, 2.5515, 0.1526718, 2.5515, -3.2137403
0.3009706, -0.0199741, 2.55825, 0.0302734, 2.55825, -1.0070801, 2.55825, -0.1326294, 2.55825, 1.7862595, 2.55825, 0.0839695, 2.55825, -3.3053436
0.3017647, -0.018967, 2.565, 0.0330811, 2.565, -1.0055542, 2.565, -0.133667, 2.565, 1.8396946, 2.565, -0.1221374, 2.565, -3.351145
0.3025588, -0.0129244, 2.57175, 0.034668, 2.57175, -1.0068359, 2.57175, -0.1278687, 2.57175, 1.7709924, 2.57175, -0.351145, 2.57175, -3.2900763
0.3033529, -0.008896, 2.5785, 0.0361328, 2.5785, -1.0064697, 2.5785, -0.1263428, 2.5785, 1.8854961, 2.5785, -0.1603053, 2.5785, -3.3435113
0.3041471, -0.0102388, 2.58525, 0.0338135, 2.58525, -1.005127, 2.58525, -0.1270752, 2.58525, 1.8473282, 2.58525, -0.0381679, 2.58525, -3.4427481
0.3049412, -0.0135958, 2.592, 0.031189, 2.592, -1.006897, 2.592, -0.1263428, 2.592, 1.7862595, 2.592, 0.0610687, 2.592, -3.5343511
0.3057353, -0.0095674, 2.59875, 0.0307617, 2.59875, -1.0057373, 2.59875, -0.1278076, 2.59875, 1.8625954, 2.59875, 0.0229008, 2.59875, -3.3282442
0.3065294, -0.0082246, 2.6055, 0.0308838, 2.6055, -1.0040894, 2.6055, -0.1271973, 2.6055, 1.9007634, 2.6055, -0.1374046, 2.6055, -3.2061069
0.3073235, -0.0085603, 2.61225, 0.0299072, 2.61225, -1.0054321, 2.61225, -0.1293335, 2.61225, 1.7709924, 2.61225, -0.1450382, 2.61225, -3.4656489
0.3081176, -0.0095674, 2.619, 0.0284424, 2.619, -1.0083618, 2.619, -0.1323853, 2.619, 1.8244275, 2.619, 0.0152672, 2.619, -3.4122138
0.3089118, -0.012253, 2.62575, 0.0299683, 2.62575, -1.0087891, 2.62575, -0.1298218, 2.62575, 1.7022901, 2.62575, -0.0687023, 2.62575, -3.5648854
0.3097059, -0.0125887, 2.6325, 0.0328369, 2.6325, -1.0076904, 2.6325, -0.1281738, 2.6325, 1.5954199, 2.6325, -0.1374046, 2.6325, -3.5572519
0.3105, -0.0162814, 2.63925, 0.0332031, 2.63925, -1.0066528, 2.63925, -0.1296387, 2.63925, 1.6946565, 2.63925, -0.2290076, 2.63925, -3.5648854
0.3112941, -0.0162814, 2.646, 0.0306396, 2.646, -1.0029297, 2.646, -0.130249, 2.646, 1.8396946, 2.646, -0.3969466, 2.646, -3.5343511
0.3120882, -0.0134279, 2.65275, 0.0328369, 2.65275, -1.0046387, 2.65275, -0.1306152, 2.65275, 1.6717557, 2.65275, -0.3816794, 2.65275, -3.5801528
0.3128824, -0.0135958, 2.6595, 0.0325317, 2.6595, -1.0031128, 2.6595, -0.1330566, 2.6595, 1.8091604, 2.6595, -0.1603053, 2.6595, -3.7480917
0.3136765, -0.0135958, 2.66625, 0.0322876, 2.66625, -1.003418, 2.66625, -0.1320801, 2.66625, 1.6183206, 2.66625, -0.2977099, 2.66625, -3.7251909
0.3144706, -0.0132601, 2.673, 0.0335083, 2.673, -1.0073853, 2.673, -0.1304932, 2.673, 1.5877863, 2.673, -0.2977099, 2.673, -3.7099237
0.3152647, -0.017792, 2.67975, 0.0343628, 2.67975, -1.0031128, 2.67975, -0.1333618, 2.67975, 1.4580153, 2.67975, -0.3435115, 2.67975, -3.5343511
0.3160588, -0.0203098, 2.6865, 0.0358887, 2.6865, -1.005249, 2.6865, -0.128418, 2.6865, 1.519084, 2.6865, -0.480916, 2.6865, -3.5267177
0.3168529, -0.0191348, 2.69325, 0.0358887, 2.69325, -1.00177, 2.69325, -0.1310425, 2.69325, 1.5725191, 2.69325, -0.2748092, 2.69325, -3.5343511
0.3176471, -0.01561, 2.7, 0.0366821, 2.7, -1.0037842, 2.7, -0.1327515, 2.7, 1.4427481, 2.7, -0.2977099, 2.7, -3.519084
0.3184412, -0.0142672, 2.70675, 0.0400391, 2.70675, -1.0032349, 2.70675, -0.1264648, 2.70675, 1.5343511, 2.70675, -0.4122137, 2.70675, -3.5343511
0.3192353, -0.0149386, 2.7135, 0.0408936, 2.7135, -1.0032349, 2.7135, -0.1238403, 2.7135, 1.2977099, 2.7135, -0.2442748, 2.7135, -3.4732823
0.3200294, -0.0130922, 2.72025, 0.0429688, 2.72025, -1.0073242, 2.72025, -0.125, 2.72025, 1.1450381, 2.72025, -0.1221374, 2.72025, -3.6793892
0.3208235, -0.0132601, 2.727, 0.0415039, 2.727, -1.0061646, 2.727, -0.1209717, 2.727, 1.0076336, 2.727, 0.1603053, 2.727, -3.4351146
0.3216176, -0.0149386, 2.73375, 0.039917, 2.73375, -1.0039062, 2.73375, -0.1204224, 2.73375, 0.9923664, 2.73375, 0.6030535, 2.73375, -3.5419848
0.3224118, -0.0167849, 2.7405, 0.0372925, 2.7405, -1.0064087, 2.7405, -0.1199341, 2.7405, 1.0610687, 2.7405, 0.6641222, 2.7405, -3.4961832
0.3232059, -0.0149386, 2.74725, 0.0358276, 2.74725, -1.0066528, 2.74725, -0.124939, 2.74725, 0.8473282, 2.74725, 0.908397, 2.74725, -3.4503818
0.324, -0.0115816, 2.754, 0.03302, 2.754, -1.0084839, 2.754, -0.1218262, 2.754, 0.870229, 2.754, 1.221374, 2.754, -3.3740458
0.3247941, -0.0115816, 2.76075, 0.0358887, 2.76075, -1.0062866, 2.76075, -0.1260986, 2.76075, 0.9236641, 2.76075, 1.1908396, 2.76075, -3.4198472
0.3255882, -0.0112459, 2.7675, 0.0333862, 2.7675, -1.0067139, 2.7675, -0.1306763, 2.7675, 0.908397, 2.7675, 1.2977099, 2.7675, -3.3969467
0.3263824, -0.0125887, 2.77425, 0.0354614, 2.77425, -1.0026855, 2.77425, -0.128418, 2.77425, 1.0229008, 2.77425, 1.3282443, 2.77425, -3.2824428
0.3271765, -0.0137636, 2.781, 0.0350342, 2.781, -1.007019, 2.781, -0.1320801, 2.781, 0.9312977, 2.781, 1.5877863, 2.781, -3.4427481
0.3279706, -0.0169528, 2.78775, 0.0341797, 2.78775, -1.007019, 2.78775, -0.1299438, 2.78775, 1.1374046, 2.78775, 1.6335878, 2.78775, -3.2977099
0.3287647, -0.0204776, 2.7945, 0.0326538, 2.7945, -1.0061646, 2.7945, -0.1334839, 2.7945, 1.1450381, 2.7945, 1.6030535, 2.7945, -3.6030533
0.3295588, -0.0179599, 2.80125, 0.0302124, 2.80125, -1.0082397, 2.80125, -0.1337891, 2.80125, 1.1603054, 2.80125, 1.5877863, 2.80125, -3.5877862
0.3303529, -0.0172885, 2.808, 0.0340576, 2.808, -1.0091553, 2.808, -0.1342163, 2.808, 1.1450381, 2.808, 1.6870229, 2.808, -3.4122138
0.3311471, -0.0171206, 2.81475, 0.0317993, 2.81475, -1.0106812, 2.81475, -0.1330566, 2.81475, 1.3129771, 2.81475, 1.5343511, 2.81475, -3.3969467
0.3319412, -0.0162814, 2.8215, 0.0288696, 2.8215, -1.0099487, 2.8215, -0.1333618, 2.8215, 1.5496184, 2.8215, 1.5801526, 2.8215, -3.4961832
0.3327353, -0.0159457, 2.82825, 0.0292969, 2.82825, -1.0068359, 2.82825, -0.1322021, 2.82825, 1.7480916, 2.82825, 1.4427481, 2.82825, -3.4122138
0.3335294, -0.0203098, 2.835, 0.0332031, 2.835, -1.0056763, 2.835, -0.1312256, 2.835, 1.5877863, 2.835, 1.2977099, 2.835, -3.3053436
0.3343235, -0.021149, 2.84175, 0.0385742, 2.84175, -1.0064697, 2.84175, -0.1263428, 2.84175, 1.5343511, 2.84175, 1.4274809, 2.84175, -3.3664122
0.3351176, -0.0203098, 2.8485, 0.0394287, 2.8485, -1.0074463, 2.8485, -0.1251831, 2.8485, 1.7022901, 2.8485, 1.8778626, 2.8485, -3.4656489
0.3359118, -0.0209812, 2.85525, 0.041748, 2.85525, -1.0050049, 2.85525, -0.1237183, 2.85525, 1.6030535, 2.85525, 2.0839694, 2.85525, -3.2671757
0.3367059, -0.0176242, 2.862, 0.0383911, 2.862, -1.0044556, 2.862, -0.1240234, 2.862, 1.6564885, 2.862, 2.2671757, 2.862, -3.2671757
0.3375, -0.0176242, 2.86875, 0.0344238, 2.86875, -1.0060425, 2.86875, -0.1245117, 2.86875, 1.5725191, 2.86875, 2.4580152, 2.86875, -3.3129771
0.3382941, -0.0176242, 2.8755, 0.0296021, 2.8755, -1.0059814, 2.8755, -0.1243286, 2.8755, 1.4122137, 2.8755, 2.1603053, 2.8755, -3.2900763
0.3390882, -0.0172885, 2.88225, 0.0322266, 2.88225, -1.0067139, 2.88225, -0.1271973, 2.88225, 1.5725191, 2.88225, 1.8473282, 2.88225, -3.5038168
0.3398824, -0.0146029, 2.889, 0.0309448, 2.889, -1.0058594, 2.889, -0.1293335, 2.889, 1.4656489, 2.889, 1.6183206, 2.889, -3.3664122
0.3406765, -0.0097353, 2.89575, 0.0353394, 2.89575, -1.0044556, 2.89575, -0.1325073, 2.89575, 1.3664122, 2.89575, 1.3053435, 2.89575, -3.2671757
0.3414706, -0.0109102, 2.9025, 0.0425415, 2.9025, -1.0080566, 2.9025, -0.1260986, 2.9025, 1.3816794, 2.9025, 1.519084, 2.9025, -3.4274809
0.3422647, -0.0135958, 2.90925, 0.0415649, 2.90925, -1.0078125, 2.90925, -0.1253662, 2.90925, 1.4045801, 2.90925, 1.6641221, 2.90925, -3.3129771
0.3430588, -0.012253, 2.916, 0.0395508, 2.916, -1.0056152, 2.916, -0.1251221, 2.916, 1.5343511, 2.916, 1.8549619, 2.916, -3.4122138
0.3438529, -0.0135958, 2.92275, 0.0341797, 2.92275, -1.0057373, 2.92275, -0.1268311, 2.92275, 1.4122137, 2.92275, 1.6412214, 2.92275, -3.4122138
0.3446471, -0.0151064, 2.9295, 0.03125, 2.9295, -1.0045776, 2.9295, -0.1268311, 2.9295, 1.4122137, 2.9295, 1.5877863, 2.9295, -3.4961832
0.3454412, -0.0142672, 2.93625, 0.0259399, 2.93625, -1.0059204, 2.93625, -0.1320801, 2.93625, 1.2366412, 2.93625, 1.3435115, 2.93625, -3.4961832
0.3462353, -0.0135958, 2.943, 0.0285034, 2.943, -1.0090942, 2.943, -0.1278076, 2.943, 1.2824427, 2.943, 0.8473282, 2.943, -3.3664122
0.3470294, -0.0137636, 2.94975, 0.0324097, 2.94975, -1.0092773, 2.94975, -0.1271973, 2.94975, 1.3435115, 2.94975, 0.6641222, 2.94975, -3.3129771
0.3478235, -0.0135958, 2.9565, 0.0335083, 2.9565, -1.0057373, 2.9565, -0.1314087, 2.9565, 1.519084, 2.9565, 0.5038168, 2.9565, -3.5038168
0.3486176, -0.0119173, 2.96325, 0.0350952, 2.96325, -1.0067749, 2.96325, -0.130249, 2.96325, 1.4427481, 2.96325, 0.8015267, 2.96325, -3.4885497
0.3494118, -0.0146029, 2.97, 0.0353394, 2.97, -1.0094604, 2.97, -0.1298218, 2.97, 1.3740458, 2.97, 0.9847328, 2.97, -3.4656489
0.3502059, -0.01561, 2.97675, 0.0324707, 2.97675, -1.0050659, 2.97675, -0.1296997, 2.97675, 1.3435115, 2.97675, 1.129771, 2.97675, -3.4274809
0.351, -0.0162814, 2.9835, 0.0341797, 2.9835, -1.0077515, 2.9835, -0.1308594, 2.9835, 1.5343511, 2.9835, 1.091603, 2.9835, -3.4427481
0.3517941, -0.0159457, 2.99025, 0.0352173, 2.99025, -1.005127, 2.99025, -0.1295776, 2.99025, 1.519084, 2.99025, 1.1526718, 2.99025, -3.4656489
0.3525882, -0.0162814, 2.997, 0.0317383, 2.997, -1.0084229, 2.997, -0.1322632, 2.997, 1.519084, 2.997, 1.1755725, 2.997, -3.4122138
0.3533824, -0.0198062, 3.00375, 0.0332031, 3.00375, -1.0084229, 3.00375, -0.1326294, 3.00375, 1.6030535, 3.00375, 0.870229, 3.00375, -3.6030533
0.3541765, -0.017792, 3.0105, 0.0343628, 3.0105, -1.0050049, 3.0105, -0.1291504, 3.0105, 1.6946565, 3.0105, 0.7251908, 3.0105, -3.4732823
0.3549706, -0.0147707, 3.01725, 0.0325928, 3.01725, -1.0048828, 3.01725, -0.1266479, 3.01725, 1.5954199, 3.01725, 0.6870229, 3.01725, -3.5267177
0.3557647, -0.0139315, 3.024, 0.0363159, 3.024, -1.0046387, 3.024, -0.1296387, 3.024, 1.7633588, 3.024, 0.5877863, 3.024, -3.4580152
0.3565588, -0.0132601, 3.03075, 0.0385742, 3.03075, -1.0056763, 3.03075, -0.1305542, 3.03075, 1.6335878, 3.03075, 0.4045801, 3.03075, -3.6030533
0.3573529, -0.0137636, 3.0375, 0.0355225, 3.0375, -1.0076294, 3.0375, -0.1277466, 3.0375, 1.610687, 3.0375, 0.4580153, 3.0375, -3.5496182
0.3581471, -0.011078, 3.04425, 0.0339966, 3.04425, -1.0083618, 3.04425, -0.1264648, 3.04425, 1.5954199, 3.04425, 0.4351145, 3.04425, -3.4961832
0.3589412, -0.0099031, 3.051, 0.0326538, 3.051, -1.0059814, 3.051, -0.1248169, 3.051, 1.648855, 3.051, 0.3587786, 3.051, -3.4274809
0.3597353, -0.011078, 3.05775, 0.0339966, 3.05775, -1.0067749, 3.05775, -0.1217651, 3.05775, 1.5954199, 3.05775, 0.4274809, 3.05775, -3.5343511
0.3605294, -0.0109102, 3.0645, 0.0333252, 3.0645, -1.0061646, 3.0645, -0.1209106, 3.0645, 1.6183206, 3.0645, 0.4885496, 3.0645, -3.5648854
0.3613235, -0.008896, 3.07125, 0.0332642, 3.07125, -1.0045776, 3.07125, -0.1231689, 3.07125, 1.5725191, 3.07125, 0.6412213, 3.07125, -3.5725191
0.3621176, -0.0075532, 3.078, 0.0338745, 3.078, -1.0071411, 3.078, -0.1258545, 3.078, 1.519084, 3.078, 0.7557252, 3.078, -3.4427481
0.3629118, -0.0102388, 3.08475, 0.0346069, 3.08475, -1.0078125, 3.08475, -0.1271362, 3.08475, 1.4122137, 3.08475, 0.6564885, 3.08475, -3.5877862
0.3637059, -0.011078, 3.0915, 0.0355835, 3.0915, -1.0073853, 3.0915, -0.1265259, 3.0915, 1.519084, 3.0915, 0.7709923, 3.0915, -3.5114503
0.3645, -0.0109102, 3.09825, 0.0328369, 3.09825, -1.0050659, 3.09825, -0.1295776, 3.09825, 1.7099236, 3.09825, 0.648855, 3.09825, -3.4885497
0.3652941, -0.0132601, 3.105, 0.0354004, 3.105, -1.0046997, 3.105, -0.1310425, 3.105, 1.6030535, 3.105, 0.5801527, 3.105, -3.4351146
0.3660882, -0.01561, 3.11175, 0.0372925, 3.11175, -1.0062256, 3.11175, -0.1293335, 3.11175, 1.3740458, 3.11175, 0.2824427, 3.11175, -3.4885497
0.3668824, -0.0149386, 3.1185, 0.0408325, 3.1185, -1.0061035, 3.1185, -0.128418, 3.1185, 1.389313, 3.1185, 0.1526718, 3.1185, -3.480916
0.3676765, -0.0124208, 3.12525, 0.0415039, 3.12525, -1.0070801, 3.12525, -0.1271362, 3.12525, 1.3969465, 3.12525, 0.1832061, 3.12525, -3.4503818
0.3684706, -0.0137636, 3.132, 0.0394287, 3.132, -1.0084229, 3.132, -0.1231689, 3.132, 1.5267175, 3.132, 0.3587786, 3.132, -3.3587787
0.3692647, -0.0167849, 3.13875, 0.034729, 3.13875, -1.0071411, 3.13875, -0.1258545, 3.13875, 1.5877863, 3.13875, 0.3129771, 3.13875, -3.2977099
0.3700588, -0.0169528, 3.1455, 0.0328369, 3.1455, -1.0064087, 3.1455, -0.1264648, 3.1455, 1.5038168, 3.1455, 0.2137405, 3.1455, -3.4732823
0.3708529, -0.0132601, 3.15225, 0.0308838, 3.15225, -1.0072632, 3.15225, -0.1246338, 3.15225, 1.5954199, 3.15225, 0.0229008, 3.15225, -3.2900763
0.3716471, -0.0124208, 3.159, 0.0372314, 3.159, -1.0092773, 3.159, -0.1221313, 3.159, 1.3969465, 3.159, -0.3740458, 3.159, -3.2977099
0.3724412, -0.0157778, 3.16575, 0.0405884, 3.16575, -1.0099487, 3.16575, -0.1213989, 3.16575, 1.4122137, 3.16575, -0.3435115, 3.16575, -3.389313
0.3732353, -0.0176242, 3.1725, 0.0400391, 3.1725, -1.0100098, 3.1725, -0.12146, 3.1725, 1.5954199, 3.1725, -0.1221374, 3.1725, -3.3435113
0.3740294, -0.0151064, 3.17925, 0.0403442, 3.17925, -1.0047607, 3.17925, -0.12323, 3.17925, 1.8015267, 3.17925, 0.2671756, 3.17925, -3.3282442
0.3748235, -0.0114137, 3.186, 0.0411987, 3.186, -1.0044556, 3.186, -0.1245728, 3.186, 1.648855, 3.186, 0.648855, 3.186, -3.3206108
0.3756176, -0.0125887, 3.19275, 0.0420532, 3.19275, -1.0065918, 3.19275, -0.1251221, 3.19275, 1.648855, 3.19275, 0.7251908, 3.19275, -3.0839694
0.3764118, -0.0132601, 3.1995, 0.043335, 3.1995, -1.0089722, 3.1995, -0.1222534, 3.1995, 1.7557251, 3.1995, 0.8854962, 3.1995, -3.1221373
0.3772059, -0.0130922, 3.20625, 0.0349121, 3.20625, -1.0090942, 3.20625, -0.1221313, 3.20625, 1.8549619, 3.20625, 1.1221374, 3.20625, -3.2061069
0.378, -0.0142672, 3.213, 0.0339355, 3.213, -1.0059814, 3.213, -0.1278076, 3.213, 1.7633588, 3.213, 0.9923664, 3.213, -3.2748091
0.3787941, -0.0164492, 3.21975, 0.031189, 3.21975, -1.0057373, 3.21975, -0.1289673, 3.21975, 1.6641221, 3.21975, 0.6335878, 3.21975, -3.1526718
0.3795882, -0.0182956, 3.2265, 0.0304565, 3.2265, -1.006958, 3.2265, -0.1300049, 3.2265, 1.5419847, 3.2265, 0.4503817, 3.2265, -3.1374047
0.3803824, -0.0149386, 3.23325, 0.034729, 3.23325, -1.008728, 3.23325, -0.1278076, 3.23325, 1.5419847, 3.23325, 0.129771, 3.23325, -3.1526718
0.3811765, -0.0127565, 3.24, 0.0359497, 3.24, -1.0082397, 3.24, -0.1273193, 3.24, 1.5648855, 3.24, 0.0458015, 3.24, -3.1984732
0.3819706, -0.0142672, 3.24675, 0.0405273, 3.24675, -1.0062866, 3.24675, -0.1259155, 3.24675, 1.6335878, 3.24675, -0.2519084, 3.24675, -3.0229008
0.3827647, -0.0149386, 3.2535, 0.0366211, 3.2535, -1.0073242, 3.2535, -0.12323, 3.2535, 1.5725191, 3.2535, -0.0687023, 3.2535, -3.129771
0.3835588, -0.0139315, 3.26025, 0.0383301, 3.26025, -1.0057983, 3.26025, -0.1260376, 3.26025, 1.648855, 3.26025, -0.1450382, 3.26025, -3.1984732
0.3843529, -0.0179599, 3.267, 0.0388184, 3.267, -1.0060425, 3.267, -0.12146, 3.267, 1.5419847, 3.267, -0.1450382, 3.267, -3.129771
0.3851471, -0.0149386, 3.27375, 0.0330811, 3.27375, -1.0042114, 3.27375, -0.121582, 3.27375, 1.3816794, 3.27375, -0.0763359, 3.27375, -3.0305343
0.3859412, -0.0129244, 3.2805, 0.0319824, 3.2805, -1.0037842, 3.2805, -0.1208496, 3.2805, 1.3358779, 3.2805, -0.2366412, 3.2805, -3.1221373
0.3867353, -0.0137636, 3.28725, 0.0361328, 3.28725, -1.0055542, 3.28725, -0.1171265, 3.28725, 1.4198474, 3.28725, -0.2748092, 3.28725, -2.961832
0.3875294, -0.0139315, 3.294, 0.0390625, 3.294, -1.0043945, 3.294, -0.1183472, 3.294, 1.4045801, 3.294, -0.0992366, 3.294, -3.0992367
0.3883235, -0.0142672, 3.30075, 0.0395508, 3.30075, -1.005188, 3.30075, -0.1199951, 3.30075, 1.2442749, 3.30075, 0.0305344, 3.30075, -3.1374047
0.3891176, -0.0151064, 3.3075, 0.0393066, 3.3075, -1.0048218, 3.3075, -0.1227417, 3.3075, 1.1755725, 3.3075, 0.1450382, 3.3075, -3.129771
0.3899118, -0.0135958, 3.31425, 0.0379639, 3.31425, -1.005127, 3.31425, -0.1231079, 3.31425, 1.1984733, 3.31425, 0.1221374, 3.31425, -3.259542
0.3907059, -0.0109102, 3.321, 0.0336914, 3.321, -1.0047607, 3.321, -0.1240845, 3.321, 1.4122137, 3.321, 0.4045801, 3.321, -3.351145
0.3915, -0.0124208, 3.32775, 0.031311, 3.32775, -1.0041504, 3.32775, -0.1283569, 3.32775, 1.4274809, 3.32775, 0.4198473, 3.32775, -3.0839694
0.3922941, -0.0112459, 3.3345, 0.0307617, 3.3345, -1.0060425, 3.3345, -0.1291504, 3.3345, 1.3664122, 3.3345, 0.5496183, 3.3345, -3.1068702
0.3930882, -0.0127565, 3.34125, 0.0339355, 3.34125, -1.0092773, 3.34125, -0.1271973, 3.34125, 1.4580153, 3.34125, 0.5419847, 3.34125, -3.0152671
0.3938824, -0.0117494, 3.348, 0.0335693, 3.348, -1.0066528, 3.348, -0.1292114, 3.348, 1.5267175, 3.348, 0.5801527, 3.348, -3.2061069
0.3946765, -0.0124208, 3.35475, 0.0338135, 3.35475, -1.007019, 3.35475, -0.128418, 3.35475, 1.4351145, 3.35475, 0.480916, 3.35475, -3.1221373
0.3954706, -0.0135958, 3.3615, 0.03125, 3.3615, -1.0054321, 3.3615, -0.1282349, 3.3615, 1.351145, 3.3615, 0.5038168, 3.3615, -3.0763359
0.3962647, -0.0130922, 3.36825, 0.0349731, 3.36825, -1.0081177, 3.36825, -0.1251221, 3.36825, 1.5877863, 3.36825, 0.4885496, 3.36825, -3.038168
0.3970588, -0.012253, 3.375, 0.0355225, 3.375, -1.007019, 3.375, -0.126709, 3.375, 1.5343511, 3.375, 0.3816794, 3.375, -3.0839694
0.3978529, -0.0152743, 3.38175, 0.0341797, 3.38175, -1.005127, 3.38175, -0.128479, 3.38175, 1.4045801, 3.38175, 0.2748092, 3.38175, -3.1603053
0.3986471, -0.01561, 3.3885, 0.0374756, 3.3885, -1.0055542, 3.3885, -0.1248169, 3.3885, 1.2748091, 3.3885, 0.3206107, 3.3885, -3.1603053
0.3994412, -0.0162814, 3.39525, 0.0369873, 3.39525, -1.006897, 3.39525, -0.1205444, 3.39525, 1.5496184, 3.39525, 0.0992366, 3.39525, -3.091603
0.4002353, -0.0162814, 3.402, 0.0376587, 3.402, -1.0031738, 3.402, -0.119751, 3.402, 1.6412214, 3.402, 0.1832061, 3.402, -3.1221373
0.4010294, -0.0182956, 3.40875, 0.0394287, 3.40875, -1.0025635, 3.40875, -0.1207275, 3.40875, 1.4045801, 3.40875, 0.4045801, 3.40875, -3.3129771
0.4018235, -0.0167849, 3.4155, 0.0402832, 3.4155, -1.001709, 3.4155, -0.1266479, 3.4155, 1.2748091, 3.4155, 0.5877863, 3.4155, -3.2290077
0.4026176, -0.0151064, 3.42225, 0.0368652, 3.42225, -1.0047607, 3.42225, -0.1252441, 3.42225, 1.1908396, 3.42225, 0.7480916, 3.42225, -3.0992367
0.4034118, -0.0146029, 3.429, 0.0385132, 3.429, -1.0045776, 3.429, -0.1220093, 3.429, 1.2900764, 3.429, 0.778626, 3.429, -3.1145039
0.4042059, -0.0139315, 3.43575, 0.0342407, 3.43575, -1.0041504, 3.43575, -0.1240234, 3.43575, 1.389313, 3.43575, 0.8320611, 3.43575, -3.2671757
0.405, -0.0152743, 3.4425, 0.0291748, 3.4425, -1.0045166, 3.4425, -0.1276245, 3.4425, 1.2442749, 3.4425, 0.7633588, 3.4425, -3.2366412
0.4057941, -0.01561, 3.44925, 0.0288086, 3.44925, -1.0078735, 3.44925, -0.1256714, 3.44925, 1.2366412, 3.44925, 0.7328244, 3.44925, -3.3282442
0.4065882, -0.0149386, 3.456, 0.0305786, 3.456, -1.0070801, 3.456, -0.1224976, 3.456, 1.3053435, 3.456, 0.5114504, 3.456, -3.259542
0.4073824, -0.0149386, 3.46275, 0.0281982, 3.46275, -1.0076294, 3.46275, -0.128418, 3.46275, 1.4427481, 3.46275, 0.5267175, 3.46275, -3.4732823
0.4081765, -0.0152743, 3.4695, 0.0291748, 3.4695, -1.0072021, 3.4695, -0.130127, 3.4695, 1.3969465, 3.4695, 0.2519084, 3.4695, -3.4427481
0.4089706, -0.0152743, 3.47625, 0.0316772, 3.47625, -1.0078735, 3.47625, -0.1247559, 3.47625, 1.3816794, 3.47625, 0.0152672, 3.47625, -3.389313
0.4097647, -0.0142672, 3.483, 0.0355835, 3.483, -1.0094604, 3.483, -0.1288452, 3.483, 1.3053435, 3.483, 0.0839695, 3.483, -3.519084
0.4105588, -0.0152743, 3.48975, 0.0343018, 3.48975, -1.0067139, 3.48975, -0.1306763, 3.48975, 1.6030535, 3.48975, 0.480916, 3.48975, -3.5343511
0.4113529, -0.01561, 3.4965, 0.0305176, 3.4965, -1.0061646, 3.4965, -0.1308594, 3.4965, 1.5954199, 3.4965, 0.7557252, 3.4965, -3.5801528
0.4121471, -0.0157778, 3.50325, 0.0279541, 3.50325, -1.0022583, 3.50325, -0.1291504, 3.50325, 1.6259542, 3.50325, 0.778626, 3.50325, -3.5877862
0.4129412, -0.0166171, 3.51, 0.0288086, 3.51, -1.0046387, 3.51, -0.1265259, 3.51, 1.7480916, 3.51, 0.5343512, 3.51, -3.648855
0.4137353, -0.0176242, 3.51675, 0.0336914, 3.51675, -1.0067139, 3.51675, -0.1220703, 3.51675, 1.6564885, 3.51675, 0.3587786, 3.51675, -3.8015268
0.4145294, -0.0171206, 3.5235, 0.0300293, 3.5235, -1.0065308, 3.5235, -0.1208496, 3.5235, 1.8015267, 3.5235, 0.4274809, 3.5235, -3.9007633
0.4153235, -0.0172885, 3.53025, 0.027832, 3.53025, -1.0049438, 3.53025, -0.1260986, 3.53025, 1.9923664, 3.53025, 0.2900763, 3.53025, -3.8473282
0.4161176, -0.0159457, 3.537, 0.0337524, 3.537, -1.00354, 3.537, -0.1255493, 3.537, 1.9770992, 3.537, 0.3358779, 3.537, -4.038168
0.4169118, -0.0169528, 3.54375, 0.0360718, 3.54375, -1.0050049, 3.54375, -0.1224365, 3.54375, 2.0076337, 3.54375, 0.3740458, 3.54375, -4.0687022
0.4177059, -0.0169528, 3.5505, 0.0395508, 3.5505, -1.0117188, 3.5505, -0.1210327, 3.5505, 1.8473282, 3.5505, 0.4656489, 3.5505, -4
0.4185, -0.0176242, 3.55725, 0.0402832, 3.55725, -1.0093384, 3.55725, -0.1192017, 3.55725, 1.8091604, 3.55725, 0.5343512, 3.55725, -3.778626
0.4192941, -0.0193027, 3.564, 0.0393677, 3.564, -1.0072021, 3.564, -0.1184082, 3.564, 1.9694656, 3.564, 1.1450381, 3.564, -3.7862597
0.4200882, -0.0151064, 3.57075, 0.0388794, 3.57075, -1.0098267, 3.57075, -0.1177979, 3.57075, 1.9541985, 3.57075, 1.129771, 3.57075, -3.7099237
0.4208824, -0.012253, 3.5775, 0.0368042, 3.5775, -1.0090942, 3.5775, -0.1182861, 3.5775, 1.7938931, 3.5775, 1.4580153, 3.5775, -3.740458
0.4216765, -0.0149386, 3.58425, 0.036377, 3.58425, -1.0075073, 3.58425, -0.1205444, 3.58425, 1.5572519, 3.58425, 1.5877863, 3.58425, -3.8625953
0.4224706, -0.0162814, 3.591, 0.0341797, 3.591, -1.0078735, 3.591, -0.1227417, 3.591, 1.1374046, 3.591, 1.5648855, 3.591, -3.9923663
0.4232647, -0.0147707, 3.59775, 0.0376587, 3.59775, -1.0108643, 3.59775, -0.1174927, 3.59775, 1.2671756, 3.59775, 1.6412214, 3.59775, -3.9312978
0.4240588, -0.0152743, 3.6045, 0.0336304, 3.6045, -1.0066528, 3.6045, -0.1210327, 3.6045, 1.2137405, 3.6045, 1.5725191, 3.6045, -4.0152674
0.4248529, -0.0149386, 3.61125, 0.0337524, 3.61125, -1.00177, 3.61125, -0.1230469, 3.61125, 1.4198474, 3.61125, 1.2671756, 3.61125, -4.1603055
0.4256471, -0.0132601, 3.618, 0.0374756, 3.618, -1.0061646, 3.618, -0.1210327, 3.618, 1.5114504, 3.618, 1.2061069, 3.618, -3.9465649
0.4264412, -0.0129244, 3.62475, 0.041748, 3.62475, -1.0115967, 3.62475, -0.1211548, 3.62475, 1.5954199, 3.62475, 1.2824427, 3.62475, -3.961832
0.4272353, -0.0146029, 3.6315, 0.0402832, 3.6315, -1.0082397, 3.6315, -0.1193848, 3.6315, 1.870229, 3.6315, 1.5801526, 3.6315, -4
0.4280294, -0.01561, 3.63825, 0.0415649, 3.63825, -1.0021973, 3.63825, -0.1196899, 3.63825, 2.038168, 3.63825, 1.9007634, 3.63825, -3.8244274
0.4288235, -0.0157778, 3.645, 0.0394287, 3.645, -1.0076294, 3.645, -0.1181641, 3.645, 1.9465649, 3.645, 1.9541985, 3.645, -3.961832
0.4296176, -0.0152743, 3.65175, 0.0393066, 3.65175, -1.006958, 3.65175, -0.1195679, 3.65175, 1.8549619, 3.65175, 2.0229008, 3.65175, -3.9007633
0.4304118, -0.014435, 3.6585, 0.0344238, 3.6585, -1.0059204, 3.6585, -0.1252441, 3.6585, 2.0687022, 3.6585, 2.1526718, 3.6585, -3.6946564
0.4312059, -0.0135958, 3.66525, 0.0344849, 3.66525, -1.0049438, 3.66525, -0.1228638, 3.66525, 2.0458016, 3.66525, 2.2366412, 3.66525, -3.8473282
0.432, -0.0149386, 3.672, 0.0346069, 3.672, -1.0032349, 3.672, -0.119812, 3.672, 2, 3.672, 2.0992367, 3.672, -3.7938931
0.4327941, -0.0169528, 3.67875, 0.0405884, 3.67875, -1.0039062, 3.67875, -0.1186523, 3.67875, 1.9160305, 3.67875, 2.1603053, 3.67875, -3.8549619
0.4335882, -0.0159457, 3.6855, 0.0401611, 3.6855, -1.0059204, 3.6855, -0.1181641, 3.6855, 1.8854961, 3.6855, 2.3587787, 3.6855, -3.7251909
0.4343824, -0.0130922, 3.69225, 0.0407104, 3.69225, -1.0073853, 3.69225, -0.12146, 3.69225, 1.9160305, 3.69225, 2.5572519, 3.69225, -3.740458
0.4351765, -0.01561, 3.699, 0.0361938, 3.699, -1.0041504, 3.699, -0.1212158, 3.699, 2.0076337, 3.699, 2.5725191, 3.699, -3.908397
0.4359706, -0.0176242, 3.70575, 0.0366821, 3.70575, -1.0066528, 3.70575, -0.1239624, 3.70575, 1.9236641, 3.70575, 2.3664122, 3.70575, -3.870229
0.4367647, -0.0169528, 3.7125, 0.0351562, 3.7125, -1.007019, 3.7125, -0.1195679, 3.7125, 1.9007634, 3.7125, 2.1908398, 3.7125, -3.8091602
0.4375588, -0.0137636, 3.71925, 0.0371094, 3.71925, -1.0057983, 3.71925, -0.1205444, 3.71925, 1.8931298, 3.71925, 2.1679389, 3.71925, -3.8167939
0.4383529, -0.01561, 3.726, 0.0386963, 3.726, -1.0098877, 3.726, -0.1228638, 3.726, 2.1832061, 3.726, 2.0305343, 3.726, -3.9770992
0.4391471, -0.0132601, 3.73275, 0.0411987, 3.73275, -1.0079346, 3.73275, -0.1213379, 3.73275, 2.221374, 3.73275, 2.1221373, 3.73275, -3.8854961
0.4399412, -0.012253, 3.7395, 0.0352783, 3.7395, -1.0048828, 3.7395, -0.1217651, 3.7395, 2.038168, 3.7395, 2.4122138, 3.7395, -3.961832
0.4407353, -0.0135958, 3.74625, 0.0375366, 3.74625, -1.0072632, 3.74625, -0.1207886, 3.74625, 2.0229008, 3.74625, 2.4656489, 3.74625, -3.8320611
0.4415294, -0.0129244, 3.753, 0.0370483, 3.753, -1.0067749, 3.753, -0.1213989, 3.753, 2.0152671, 3.753, 2.4427481, 3.753, -3.9312978
0.4423235, -0.0125887, 3.75975, 0.034668, 3.75975, -1.0059204, 3.75975, -0.1226807, 3.75975, 1.8778626, 3.75975, 2.1908398, 3.75975, -3.9007633
0.4431176, -0.0149386, 3.7665, 0.0388184, 3.7665, -1.007019, 3.7665, -0.1243286, 3.7665, 2.0152671, 3.7665, 2.0534351, 3.7665, -4
0.4439118, -0.0154421, 3.77325, 0.0387573, 3.77325, -1.0083618, 3.77325, -0.1216431, 3.77325, 1.9465649, 3.77325, 1.9312977, 3.77325, -3.8931298
0.4447059, -0.0152743, 3.78, 0.0362549, 3.78, -1.0071411, 3.78, -0.1203613, 3.78, 1.9312977, 3.78, 2.1984732, 3.78, -3.9694657
0.4455, -0.0129244, 3.78675, 0.031311, 3.78675, -1.0054321, 3.78675, -0.1216431, 3.78675, 1.8549619, 3.78675, 2.2290077, 3.78675, -3.9465649
0.4462941, -0.0105745, 3.7935, 0.0368042, 3.7935, -1.0083618, 3.7935, -0.1244507, 3.7935, 2.1068702, 3.7935, 1.7175573, 3.7935, -4.0916033
0.4470882, -0.0105745, 3.80025, 0.0383911, 3.80025, -1.0078735, 3.80025, -0.1199951, 3.80025, 2.0229008, 3.80025, 1.4885496, 3.80025, -4.1221375
0.4478824, -0.0125887, 3.807, 0.0394287, 3.807, -1.0060425, 3.807, -0.1191406, 3.807, 2.1450381, 3.807, 1.7557251, 3.807, -3.9847329
0.4486765, -0.0139315, 3.81375, 0.0403442, 3.81375, -1.0083618, 3.81375, -0.1195068, 3.81375, 2.2137403, 3.81375, 1.9465649, 3.81375, -3.9312978
0.4494706, -0.0157778, 3.8205, 0.0385132, 3.8205, -1.0055542, 3.8205, -0.1207886, 3.8205, 2.2671757, 3.8205, 2.1374047, 3.8205, -4.0076337
0.4502647, -0.0159457, 3.82725, 0.0409546, 3.82725, -1.0084229, 3.82725, -0.1221313, 3.82725, 2.3435113, 3.82725, 2.1374047, 3.82725, -3.8625953
0.4510588, -0.0172885, 3.834, 0.0404663, 3.834, -1.0062866, 3.834, -0.1207886, 3.834, 2.2061069, 3.834, 2.0076337, 3.834, -3.9007633
0.4518529, -0.0172885, 3.84075, 0.0445557, 3.84075, -1.0045776, 3.84075, -0.1190796, 3.84075, 2.0534351, 3.84075, 2.0610688, 3.84075, -3.6641221
0.4526471, -0.0149386, 3.8475, 0.043396, 3.8475, -1.0040894, 3.8475, -0.1155396, 3.8475, 2.1832061, 3.8475, 2.0152671, 3.8475, -3.8167939
0.4534412, -0.0142672, 3.85425, 0.0435791, 3.85425, -1.0037231, 3.85425, -0.1203613, 3.85425, 2.0763359, 3.85425, 2.091603, 3.85425, -3.8320611
0.4542353, -0.0162814, 3.861, 0.045166, 3.861, -1.0037231, 3.861, -0.1186523, 3.861, 2.0610688, 3.861, 1.9847329, 3.861, -3.7175572
0.4550294, -0.0129244, 3.86775, 0.0469971, 3.86775, -1.0046997, 3.86775, -0.116272, 3.86775, 1.9007634, 3.86775, 1.7022901, 3.86775, -3.8625953
0.4558235, -0.0114137, 3.8745, 0.0456543, 3.8745, -1.008606, 3.8745, -0.1098633, 3.8745, 2.0229008, 3.8745, 1.5038168, 3.8745, -3.648855
0.4566176, -0.0129244, 3.88125, 0.0421753, 3.88125, -1.0067749, 3.88125, -0.116272, 3.88125, 1.8854961, 3.88125, 1.3969465, 3.88125, -3.6946564
0.4574118, -0.0115816, 3.888, 0.0437622, 3.888, -1.0057373, 3.888, -0.1162109, 3.888, 1.8778626, 3.888, 1.4198474, 3.888, -3.4045801
0.4582059, -0.0117494, 3.89475, 0.0411987, 3.89475, -1.0060425, 3.89475, -0.1177979, 3.89475, 1.8091604, 3.89475, 1.389313, 3.89475, -3.5496182
0.459, -0.0135958, 3.9015, 0.0410767, 3.9015, -1.0057983, 3.9015, -0.1148071, 3.9015, 1.9541985, 3.9015, 1.3053435, 3.9015, -3.5038168
0.4597941, -0.0135958, 3.90825, 0.0386353, 3.90825, -1.0093994, 3.90825, -0.1151123, 3.90825, 1.9847329, 3.90825, 1.5725191, 3.90825, -3.4045801
0.4605882, -0.0119173, 3.915, 0.0411377, 3.915, -1.0092163, 3.915, -0.1176147, 3.915, 1.9160305, 3.915, 1.5038168, 3.915, -3.3129771
0.4613824, -0.0129244, 3.92175, 0.0406494, 3.92175, -1.0077515, 3.92175, -0.1177368, 3.92175, 2, 3.92175, 1.8320611, 3.92175, -3.519084
0.4621765, -0.0135958, 3.9285, 0.0411377, 3.9285, -1.0057983, 3.9285, -0.1149902, 3.9285, 2.0152671, 3.9285, 1.8473282, 3.9285, -3.3282442
0.4629706, -0.0112459, 3.93525, 0.0393066, 3.93525, -1.0092773, 3.93525, -0.1187134, 3.93525, 1.9236641, 3.93525, 1.8167939, 3.93525, -3.3740458
0.4637647, -0.0139315, 3.942, 0.034668, 3.942, -1.0066528, 3.942, -0.1179199, 3.942, 1.961832, 3.942, 1.8778626, 3.942, -3.2824428
0.4645588, -0.0162814, 3.94875, 0.0341187, 3.94875, -1.0048218, 3.94875, -0.1187134, 3.94875, 1.9389313, 3.94875, 1.870229, 3.94875, -3.480916
0.4653529, -0.0119173, 3.9555, 0.0323486, 3.9555, -1.006958, 3.9555, -0.1193237, 3.9555, 2.1908398, 3.9555, 1.6259542, 3.9555, -3.2748091
0.4661471, -0.0142672, 3.96225, 0.0424194, 3.96225, -1.0056152, 3.96225, -0.1184082, 3.96225, 2, 3.96225, 1.519084, 3.96225, -3.389313
0.4669412, -0.0169528, 3.969, 0.0445557, 3.969, -1.0050049, 3.969, -0.1195068, 3.969, 1.961832, 3.969, 1.3664122, 3.969, -3.4122138
0.4677353, -0.0182956, 3.97575, 0.0449219, 3.97575, -1.0053711, 3.97575, -0.1193848, 3.97575, 2.0076337, 3.97575, 1.4656489, 3.97575, -3.1679389
0.4685294, -0.0206455, 3.9825, 0.0446167, 3.9825, -1.0067139, 3.9825, -0.114624, 3.9825, 2.0534351, 3.9825, 1.5801526, 3.9825, -3.1908398
0.4693235, -0.0182956, 3.98925, 0.0470581, 3.98925, -1.0047607, 3.98925, -0.1160278, 3.98925, 2.1450381, 3.98925, 1.4351145, 3.98925, -3.091603
0.4701176, -0.0196384, 3.996, 0.0428467, 3.996, -1.0031128, 3.996, -0.1178589, 3.996, 1.908397, 3.996, 1.5114504, 3.996, -2.908397
0.4709118, -0.0171206, 4.00275, 0.0460205, 4.00275, -1.0072021, 4.00275, -0.1119995, 4.00275, 2.0152671, 4.00275, 1.5343511, 4.00275, -3.1679389
0.4717059, -0.0149386, 4.0095, 0.0440063, 4.0095, -1.0078735, 4.0095, -0.1132202, 4.0095, 1.9236641, 4.0095, 1.389313, 4.0095, -3.129771
0.4725, -0.0135958, 4.01625, 0.0419922, 4.01625, -1.0090942, 4.01625, -0.1143188, 4.01625, 2.1526718, 4.01625, 1.2900764, 4.01625, -3.0839694
0.4732941, -0.0117494, 4.023, 0.0412598, 4.023, -1.0101318, 4.023, -0.1139526, 4.023, 2.0152671, 4.023, 1.1908396, 4.023, -2.9541984
0.4740882, -0.0117494, 4.02975, 0.0407715, 4.02975, -1.0060425, 4.02975, -0.116333, 4.02975, 1.9236641, 4.02975, 0.8778626, 4.02975, -2.9694657
0.4748824, -0.0129244, 4.0365, 0.0404663, 4.0365, -1.0057373, 4.0365, -0.1115112, 4.0365, 1.9312977, 4.0365, 0.6183206, 4.0365, -3.1068702
0.4756765, -0.0125887, 4.04325, 0.038269, 4.04325, -1.003479, 4.04325, -0.1160889, 4.04325, 1.8854961, 4.04325, 0.4732825, 4.04325, -3.0305343
0.4764706, -0.0112459, 4.05, 0.0409546, 4.05, -1.0045776, 4.05, -0.1167603, 4.05, 1.8091604, 4.05, 0.4198473, 4.05, -2.9389312
0.4772647, -0.0119173, 4.05675, 0.0394287, 4.05675, -1.0072021, 4.05675, -0.1182251, 4.05675, 1.8320611, 4.05675, 0.5725191, 4.05675, -2.9389312
0.4780588, -0.0125887, 4.0635, 0.0426025, 4.0635, -1.0087891, 4.0635, -0.1173096, 4.0635, 1.9312977, 4.0635, 0.4885496, 4.0635, -2.6870229
0.4788529, -0.0119173, 4.07025, 0.0424805, 4.07025, -1.0050659, 4.07025, -0.1122437, 4.07025, 2.1374047, 4.07025, 0.5954198, 4.07025, -2.7328243
0.4796471, -0.0112459, 4.077, 0.0443115, 4.077, -1.0074463, 4.077, -0.1140137, 4.077, 1.9770992, 4.077, 0.9389313, 4.077, -2.8396947
0.4804412, -0.0149386, 4.08375, 0.0450439, 4.08375, -1.008728, 4.08375, -0.1158447, 4.08375, 1.961832, 4.08375, 0.9770992, 4.08375, -2.9541984
0.4812353, -0.0162814, 4.0905, 0.0455933, 4.0905, -1.0065918, 4.0905, -0.1130371, 4.0905, 2.0687022, 4.0905, 0.8167939, 4.0905, -2.5572519
0.4820294, -0.0159457, 4.09725, 0.0435181, 4.09725, -1.0072632, 4.09725, -0.1088867, 4.09725, 2.1145039, 4.09725, 0.7175573, 4.09725, -2.610687
0.4828235, -0.0124208, 4.104, 0.0482178, 4.104, -1.0067139, 4.104, -0.109314, 4.104, 2.221374, 4.104, 0.9770992, 4.104, -2.6259542
0.4836176, -0.0119173, 4.11075, 0.0479736, 4.11075, -1.0084229, 4.11075, -0.1086426, 4.11075, 1.8931298, 4.11075, 0.9312977, 4.11075, -2.4885497
0.4844118, -0.0142672, 4.1175, 0.0460205, 4.1175, -1.0076294, 4.1175, -0.1046753, 4.1175, 1.9541985, 4.1175, 0.9465649, 4.1175, -2.5572519
0.4852059, -0.0115816, 4.12425, 0.0452271, 4.12425, -1.0026855, 4.12425, -0.109436, 4.12425, 1.9770992, 4.12425, 0.9541985, 4.12425, -2.7099237
0.486, -0.0129244, 4.131, 0.0440674, 4.131, -1.0023193, 4.131, -0.1108398, 4.131, 1.7480916, 4.131, 1.091603, 4.131, -2.5343511
0.4867941, -0.0162814, 4.13775, 0.0444946, 4.13775, -1.0062256, 4.13775, -0.1104736, 4.13775, 1.6183206, 4.13775, 0.9465649, 4.13775, -2.3206108
0.4875882, -0.0162814, 4.1445, 0.0444336, 4.1445, -1.0061646, 4.1445, -0.1077271, 4.1445, 1.6030535, 4.1445, 1.038168, 4.1445, -2.3664122
0.4883824, -0.0146029, 4.15125, 0.039917, 4.15125, -1.0070801, 4.15125, -0.1069336, 4.15125, 1.6717557, 4.15125, 0.961832, 4.15125, -2.389313
0.4891765, -0.0135958, 4.158, 0.038269, 4.158, -1.0029907, 4.158, -0.1142578, 4.158, 1.4732825, 4.158, 1.038168, 4.158, -2.3740458
0.4899706, -0.0115816, 4.16475, 0.0368042, 4.16475, -1.0054321, 4.16475, -0.1098633, 4.16475, 1.4961832, 4.16475, 0.8320611, 4.16475, -2.3358779
0.4907647, -0.0117494, 4.1715, 0.0366821, 4.1715, -1.0060425, 4.1715, -0.1085205, 4.1715, 1.4503816, 4.1715, 0.7709923, 4.1715, -2.3206108
0.4915588, -0.0119173, 4.17825, 0.0333862, 4.17825, -1.0065918, 4.17825, -0.1129761, 4.17825, 1.5038168, 4.17825, 0.8625954, 4.17825, -2.2061069
0.4923529, -0.0095674, 4.185, 0.0279541, 4.185, -1.007019, 4.185, -0.1146851, 4.185, 1.5954199, 4.185, 0.778626, 4.185, -2.259542
0.4931471, -0.0102388, 4.19175, 0.0270996, 4.19175, -1.0075684, 4.19175, -0.1171265, 4.19175, 1.4427481, 4.19175, 0.6641222, 4.19175, -2.389313
0.4939412, -0.0130922, 4.1985, 0.0307007, 4.1985, -1.0053711, 4.1985, -0.1165771, 4.1985, 1.5343511, 4.1985, 0.3816794, 4.1985, -2.3435113
0.4947353, -0.0130922, 4.20525, 0.0342407, 4.20525, -1.0059814, 4.20525, -0.1154785, 4.20525, 1.610687, 4.20525, 0.1755725, 4.20525, -2.4122138
0.4955294, -0.01561, 4.212, 0.0362549, 4.212, -1.0075684, 4.212, -0.1137695, 4.212, 1.778626, 4.212, 0.4122137, 4.212, -2.3587787
0.4963235, -0.01561, 4.21875, 0.0380859, 4.21875, -1.0083618, 4.21875, -0.112915, 4.21875, 1.6717557, 4.21875, 0.4351145, 4.21875, -2.3282442
0.4971176, -0.0137636, 4.2255, 0.034729, 4.2255, -1.0083008, 4.2255, -0.1116333, 4.2255, 1.7862595, 4.2255, 0.4045801, 4.2255, -2.3740458
0.4979118, -0.0152743, 4.23225, 0.0350342, 4.23225, -1.0089111, 4.23225, -0.1114502, 4.23225, 1.7938931, 4.23225, 0.610687, 4.23225, -2.4351146
0.4987059, -0.0152743, 4.239, 0.0335083, 4.239, -1.0068359, 4.239, -0.1149902, 4.239, 1.6717557, 4.239, 0.6717557, 4.239, -2.2900763
0.4995, -0.0184634, 4.24575, 0.034668, 4.24575, -1.0090942, 4.24575, -0.1109619, 4.24575, 1.7328244, 4.24575, 0.0381679, 4.24575, -2.2977099
0.5002941, -0.0203098, 4.2525, 0.0385742, 4.2525, -1.010376, 4.2525, -0.1105347, 4.2525, 1.6641221, 4.2525, 0.0610687, 4.2525, -2.3969467
0.5010882, -0.018967, 4.25925, 0.0402222, 4.25925, -1.0061035, 4.25925, -0.1130371, 4.25925, 1.6946565, 4.25925, 0, 4.25925, -2.3587787
0.5018824, -0.0184634, 4.266, 0.0435791, 4.266, -1.0063477, 4.266, -0.1082764, 4.266, 1.8091604, 4.266, 0.0229008, 4.266, -2.1755726
0.5026765, -0.0182956, 4.27275, 0.0422363, 4.27275, -1.0043335, 4.27275, -0.1121826, 4.27275, 1.8167939, 4.27275, -0.0458015, 4.27275, -2.259542
0.5034706, -0.0199741, 4.2795, 0.0419312, 4.2795, -1.0004272, 4.2795, -0.1109619, 4.2795, 1.7022901, 4.2795, -0.0152672, 4.2795, -2.2290077
0.5042647, -0.0194705, 4.28625, 0.041687, 4.28625, -1.0020752, 4.28625, -0.1107178, 4.28625, 1.5343511, 4.28625, 0.0381679, 4.28625, -2.2137403
0.5050588, -0.0179599, 4.293, 0.0426636, 4.293, -1.0029907, 4.293, -0.1096191, 4.293, 1.7251909, 4.293, 0.2748092, 4.293, -2.1145039
0.5058529, -0.0139315, 4.29975, 0.041748, 4.29975, -1.0079346, 4.29975, -0.1130371, 4.29975, 1.4580153, 4.29975, 0.259542, 4.29975, -2.0534351
0.5066471, -0.0130922, 4.3065, 0.0405273, 4.3065, -1.0097656, 4.3065, -0.1101074, 4.3065, 1.3358779, 4.3065, 0.1068702, 4.3065, -2.0076337
0.5074412, -0.0152743, 4.31325, 0.0407715, 4.31325, -1.0111084, 4.31325, -0.104126, 4.31325, 1.4427481, 4.31325, 0.1450382, 4.31325, -1.9389313
0.5082353, -0.0154421, 4.32, 0.0425415, 4.32, -1.0096436, 4.32, -0.100708, 4.32, 1.4045801, 4.32, 0.2366412, 4.32, -1.9160305
0.5090294, -0.0124208, 4.32675, 0.041626, 4.32675, -1.0106201, 4.32675, -0.1040039, 4.32675, 1.3664122, 4.32675, 0.3587786, 4.32675, -1.8396946
0.5098235, -0.0152743, 4.3335, 0.0415039, 4.3335, -1.0083008, 4.3335, -0.1021729, 4.3335, 1.351145, 4.3335, 0.4580153, 4.3335, -1.610687
0.5106176, -0.0152743, 4.34025, 0.0437622, 4.34025, -1.005127, 4.34025, -0.1033936, 4.34025, 1.2442749, 4.34025, 0.5038168, 4.34025, -1.519084
0.5114118, -0.0132601, 4.347, 0.0441284, 4.347, -1.0059814, 4.347, -0.1019287, 4.347, 0.9389313, 4.347, 0.3587786, 4.347, -1.5572519
0.5122059, -0.0157778, 4.35375, 0.0413208, 4.35375, -1.0055542, 4.35375, -0.1034546, 4.35375, 1.0534351, 4.35375, 0.3969466, 4.35375, -1.4656489
0.513, -0.0157778, 4.3605, 0.0427246, 4.3605, -1.0032959, 4.3605, -0.1015625, 4.3605, 0.7709923, 4.3605, 0.6335878, 4.3605, -1.4656489
0.5137941, -0.0135958, 4.36725, 0.0454102, 4.36725, -1.0048218, 4.36725, -0.100647, 4.36725, 0.740458, 4.36725, 0.4503817, 4.36725, -1.389313
0.5145882, -0.0152743, 4.374, 0.0422974, 4.374, -1.0031128, 4.374, -0.102478, 4.374, 0.4122137, 4.374, 0.5267175, 4.374, -1.3664122
0.5153824, -0.0162814, 4.38075, 0.0427856, 4.38075, -1.0018311, 4.38075, -0.1054688, 4.38075, 0.3206107, 4.38075, 0.5801527, 4.38075, -1.3435115
0.5161765, -0.0162814, 4.3875, 0.0443726, 4.3875, -1.0038452, 4.3875, -0.1026611, 4.3875, 0.0458015, 4.3875, 0.480916, 4.3875, -1.4122137
0.5169706, -0.0179599, 4.39425, 0.0387573, 4.39425, -1.0068359, 4.39425, -0.1060791, 4.39425, 0.1068702, 4.39425, 0.5267175, 4.39425, -1.3358779
0.5177647, -0.0149386, 4.401, 0.0362549, 4.401, -1.0023193, 4.401, -0.1119995, 4.401, 0.0916031, 4.401, 0.5038168, 4.401, -1.1603054
0.5185588, -0.0159457, 4.40775, 0.0355225, 4.40775, -1.0031738, 4.40775, -0.1107788, 4.40775, -0.1221374, 4.40775, 0.3740458, 4.40775, -1.259542
0.5193529, -0.0146029, 4.4145, 0.0324097, 4.4145, -1.0061035, 4.4145, -0.105896, 4.4145, -0.221374, 4.4145, 0.3587786, 4.4145, -1.1984733
0.5201471, -0.0135958, 4.42125, 0.0272827, 4.42125, -1.0084229, 4.42125, -0.1134644, 4.42125, -0.2519084, 4.42125, 0.4961832, 4.42125, -1.3358779
0.5209412, -0.0152743, 4.428, 0.0248413, 4.428, -1.0062866, 4.428, -0.1134033, 4.428, -0.0152672, 4.428, 0.3358779, 4.428, -1.2519084
0.5217353, -0.0125887, 4.43475, 0.0280762, 4.43475, -1.0082397, 4.43475, -0.1134033, 4.43475, -0.2519084, 4.43475, 0.0076336, 4.43475, -1.2824427
0.5225294, -0.0102388, 4.4415, 0.0283203, 4.4415, -1.0084229, 4.4415, -0.1156616, 4.4415, -0.0229008, 4.4415, 0.0992366, 4.4415, -1.4198474
0.5233235, -0.0102388, 4.44825, 0.0292358, 4.44825, -1.0125732, 4.44825, -0.1167603, 4.44825, 0.0229008, 4.44825, 0.0305344, 4.44825, -1.4580153
0.5241176, -0.0149386, 4.455, 0.0306396, 4.455, -1.0061035, 4.455, -0.1154175, 4.455, -0.0763359, 4.455, 0.1450382, 4.455, -1.2748091
0.5249118, -0.0139315, 4.46175, 0.0253296, 4.46175, -1.0078735, 4.46175, -0.1174316, 4.46175, 0.0458015, 4.46175, 0.1450382, 4.46175, -1.2900764
0.5257059, -0.0142672, 4.4685, 0.0234375, 4.4685, -1.005188, 4.4685, -0.1182861, 4.4685, 0.1374046, 4.4685, 0.0610687, 4.4685, -1.5572519
0.5265, -0.0109102, 4.47525, 0.0249634, 4.47525, -1.0071411, 4.47525, -0.1160278, 4.47525, -0.0076336, 4.47525, -0.3206107, 4.47525, -1.4427481
0.5272941, -0.0065461, 4.482, 0.0269165, 4.482, -1.0061646, 4.482, -0.1188354, 4.482, 0.0916031, 4.482, -0.3587786, 4.482, -1.7251909
0.5280882, -0.0097353, 4.48875, 0.0252075, 4.48875, -1.0106812, 4.48875, -0.1217041, 4.48875, 0.129771, 4.48875, -0.2137405, 4.48875, -1.7175573
0.5288824, -0.0115816, 4.4955, 0.0270386, 4.4955, -1.0056152, 4.4955, -0.1179199, 4.4955, 0.2519084, 4.4955, -0.1374046, 4.4955, -1.7175573
0.5296765, -0.0112459, 4.50225, 0.0245972, 4.50225, -1.0065308, 4.50225, -0.1156006, 4.50225, 0.389313, 4.50225, -0.2900763, 4.50225, -1.7557251
0.5304706, -0.012253, 4.509, 0.0181885, 4.509, -1.001709, 4.509, -0.1179199, 4.509, 0.2290076, 4.509, -0.0229008, 4.509, -1.9007634
0.5312647, -0.0146029, 4.51575, 0.0184937, 4.51575, -1.0037231, 4.51575, -0.1200562, 4.51575, 0.5496183, 4.51575, -0.1603053, 4.51575, -2.0534351
0.5320588, -0.0149386, 4.5225, 0.0200806, 4.5225, -1.0066528, 4.5225, -0.1175537, 4.5225, 0.5419847, 4.5225, -0.6183206, 4.5225, -2.129771
0.5328529, -0.0176242, 4.52925, 0.0252075, 4.52925, -1.0064697, 4.52925, -0.1177979, 4.52925, 0.4656489, 4.52925, -0.519084, 4.52925, -2.091603
0.5336471, -0.01561, 4.536, 0.0237427, 4.536, -1.0040283, 4.536, -0.1182861, 4.536, 0.6335878, 4.536, -0.6335878, 4.536, -2.1984732
0.5344412, -0.0176242, 4.54275, 0.022522, 4.54275, -1.0033569, 4.54275, -0.1170044, 4.54275, 0.6793893, 4.54275, -0.8167939, 4.54275, -2.2671757
0.5352353, -0.0179599, 4.5495, 0.020813, 4.5495, -1.0028076, 4.5495, -0.1196289, 4.5495, 0.7328244, 4.5495, -1, 4.5495, -2.4503818
0.5360294, -0.0162814, 4.55625, 0.022644, 4.55625, -1.0053101, 4.55625, -0.1144409, 4.55625, 0.648855, 4.55625, -1.1526718, 4.55625, -2.4198472
0.5368235, -0.0149386, 4.563, 0.0221558, 4.563, -1.0073242, 4.563, -0.1160889, 4.563, 0.8320611, 4.563, -1.4580153, 4.563, -2.2748091
0.5376176, -0.0149386, 4.56975, 0.0223999, 4.56975, -1.0095215, 4.56975, -0.1159668, 4.56975, 0.8015267, 4.56975, -1.3282443, 4.56975, -2.7175572
0.5384118, -0.0169528, 4.5765, 0.0188599, 4.5765, -1.0061646, 4.5765, -0.1147461, 4.5765, 0.9770992, 4.5765, -1.4656489, 4.5765, -2.7480917
0.5392059, -0.0169528, 4.58325, 0.0204468, 4.58325, -1.0085449, 4.58325, -0.1181641, 4.58325, 1.2061069, 4.58325, -1.4732825, 4.58325, -2.8091602
0.54, -0.0164492, 4.59, 0.0230713, 4.59, -1.0044556, 4.59, -0.1178589, 4.59, 0.9847328, 4.59, -1.4503816, 4.59, -2.7938931
0.5407941, -0.0129244, 4.59675, 0.0256348, 4.59675, -1.0068359, 4.59675, -0.117981, 4.59675, 1.1145039, 4.59675, -1.6030535, 4.59675, -2.8473282
0.5415882, -0.0135958, 4.6035, 0.0266113, 4.6035, -1.0068359, 4.6035, -0.1162109, 4.6035, 0.9847328, 4.6035, -1.3969465, 4.6035, -3.038168
0.5423824, -0.0129244, 4.61025, 0.0302124, 4.61025, -1.0050049, 4.61025, -0.1135864, 4.61025, 1.1526718, 4.61025, -1.1832061, 4.61025, -2.8396947
0.5431765, -0.0112459, 4.617, 0.0314331, 4.617, -1.0036011, 4.617, -0.1135254, 4.617, 1.0687023, 4.617, -0.9694657, 4.617, -3.0458016
0.5439706, -0.0102388, 4.62375, 0.0326538, 4.62375, -1.0085449, 4.62375, -0.1165771, 4.62375, 1.0458015, 4.62375, -0.9923664, 4.62375, -2.9847329
0.5447647, -0.0115816, 4.6305, 0.0321045, 4.6305, -1.0061035, 4.6305, -0.1160889, 4.6305, 0.9694657, 4.6305, -0.9923664, 4.6305, -2.908397
0.5455588, -0.0127565, 4.63725, 0.031311, 4.63725, -1.0041504, 4.63725, -0.1151123, 4.63725, 0.9465649, 4.63725, -1.038168, 4.63725, -3.0534351
0.5463529, -0.0140993, 4.644, 0.0263062, 4.644, -1.010437, 4.644, -0.1118164, 4.644, 0.961832, 4.644, -1.0839695, 4.644, -3.0076337
0.5471471, -0.0139315, 4.65075, 0.0248413, 4.65075, -1.0081177, 4.65075, -0.1112671, 4.65075, 0.9007633, 4.65075, -1.221374, 4.65075, -3.1603053
0.5479412, -0.0151064, 4.6575, 0.0273438, 4.6575, -1.0053711, 4.6575, -0.1108398, 4.6575, 0.9160305, 4.6575, -1.389313, 4.6575, -2.8625953
0.5487353, -0.0162814, 4.66425, 0.0299072, 4.66425, -1.0050659, 4.66425, -0.1085815, 4.66425, 0.9694657, 4.66425, -1.4885496, 4.66425, -3.0458016
0.5495294, -0.0171206, 4.671, 0.0337524, 4.671, -1.0070801, 4.671, -0.1087036, 4.671, 0.9465649, 4.671, -1.3358779, 4.671, -2.9694657
0.5503235, -0.01561, 4.67775, 0.0360718, 4.67775, -1.0048218, 4.67775, -0.1082153, 4.67775, 0.9160305, 4.67775, -0.8167939, 4.67775, -3.0610688
0.5511176, -0.0176242, 4.6845, 0.0366821, 4.6845, -1.0040894, 4.6845, -0.1077881, 4.6845, 0.9236641, 4.6845, -0.4045801, 4.6845, -3.0229008
0.5519118, -0.0187991, 4.69125, 0.0318604, 4.69125, -1.0042114, 4.69125, -0.1105347, 4.69125, 0.778626, 4.69125, 0.1603053, 4.69125, -3.0763359
0.5527059, -0.021149, 4.698, 0.02948, 4.698, -1.0050659, 4.698, -0.1159668, 4.698, 0.9541985, 4.698, 0.351145, 4.698, -2.8931298
0.5535, -0.0219883, 4.70475, 0.0291138, 4.70475, -1.007019, 4.70475, -0.1124268, 4.70475, 0.8625954, 4.70475, 0.1450382, 4.70475, -2.9923663
0.5542941, -0.0203098, 4.7115, 0.0289307, 4.7115, -1.0060425, 4.7115, -0.1139526, 4.7115, 1.0229008, 4.7115, 0.0687023, 4.7115, -2.9770992
0.5550882, -0.0216526, 4.71825, 0.0303345, 4.71825, -1.0080566, 4.71825, -0.1209717, 4.71825, 0.8015267, 4.71825, -0.0076336, 4.71825, -2.9541984
0.5558824, -0.0204776, 4.725, 0.0286865, 4.725, -1.008728, 4.725, -0.1192017, 4.725, 0.9160305, 4.725, -0.2366412, 4.725, -2.870229
0.5566765, -0.0176242, 4.73175, 0.0279541, 4.73175, -1.0098267, 4.73175, -0.1156616, 4.73175, 0.6717557, 4.73175, -0.3664122, 4.73175, -3.0992367
0.5574706, -0.0184634, 4.7385, 0.0324707, 4.7385, -1.0060425, 4.7385, -0.1105957, 4.7385, 0.8625954, 4.7385, -0.7251908, 4.7385, -3.091603
0.5582647, -0.0176242, 4.74525, 0.0302734, 4.74525, -1.0102539, 4.74525, -0.1112061, 4.74525, 0.6564885, 4.74525, -0.7557252, 4.74525, -3.1603053
0.5590588, -0.0164492, 4.752, 0.0307007, 4.752, -1.0133057, 4.752, -0.1098022, 4.752, 0.7099237, 4.752, -0.6030535, 4.752, -2.9541984
0.5598529, -0.0146029, 4.75875, 0.0314331, 4.75875, -1.0068359, 4.75875, -0.1088867, 4.75875, 0.7251908, 4.75875, -0.3358779, 4.75875, -2.9923663
0.5606471, -0.0102388, 4.7655, 0.0330811, 4.7655, -1.0062256, 4.7655, -0.1066284, 4.7655, 0.8549618, 4.7655, -0.2137405, 4.7655, -2.9389312
0.5614412, -0.008896, 4.77225, 0.0282593, 4.77225, -1.0055542, 4.77225, -0.1108398, 4.77225, 0.7862595, 4.77225, -0.0152672, 4.77225, -2.8778627
0.5622353, -0.0085603, 4.779, 0.0278931, 4.779, -1.0014648, 4.779, -0.1138306, 4.779, 0.7633588, 4.779, 0.0839695, 4.779, -2.9541984
0.5630294, -0.012253, 4.78575, 0.0289917, 4.78575, -1.0040894, 4.78575, -0.1157837, 4.78575, 0.7862595, 4.78575, -0.0076336, 4.78575, -2.961832
0.5638235, -0.0115816, 4.7925, 0.0325928, 4.7925, -1.0093384, 4.7925, -0.1137695, 4.7925, 0.6335878, 4.7925, 0.0305344, 4.7925, -2.7328243
0.5646176, -0.0125887, 4.79925, 0.0319824, 4.79925, -1.0080566, 4.79925, -0.1170044, 4.79925, 0.8396947, 4.79925, 0.0305344, 4.79925, -2.6870229
0.5654118, -0.0132601, 4.806, 0.0284424, 4.806, -1.0061035, 4.806, -0.114502, 4.806, 0.9236641, 4.806, 0.1450382, 4.806, -2.9160306
0.5662059, -0.0129244, 4.81275, 0.0255127, 4.81275, -1.0049438, 4.81275, -0.1184082, 4.81275, 0.8167939, 4.81275, 0.1526718, 4.81275, -2.8244274
0.567, -0.0169528, 4.8195, 0.0205078, 4.8195, -1.005188, 4.8195, -0.1187744, 4.8195, 0.9160305, 4.8195, -0.2671756, 4.8195, -2.9465649
0.5677941, -0.0182956, 4.82625, 0.0213623, 4.82625, -1.0062256, 4.82625, -0.121582, 4.82625, 1.0839695, 4.82625, -0.8015267, 4.82625, -2.9465649
0.5685882, -0.01561, 4.833, 0.0275879, 4.833, -1.0066528, 4.833, -0.1195068, 4.833, 1.038168, 4.833, -1.2061069, 4.833, -2.9465649
0.5693824, -0.0182956, 4.83975, 0.0281982, 4.83975, -1.0064087, 4.83975, -0.1185913, 4.83975, 1.0610687, 4.83975, -1.4045801, 4.83975, -2.8396947
0.5701765, -0.0209812, 4.8465, 0.0311279, 4.8465, -1.0096436, 4.8465, -0.1168823, 4.8465, 1.1145039, 4.8465, -1.2137405, 4.8465, -3.038168
0.5709706, -0.0199741, 4.85325, 0.027771, 4.85325, -1.0077515, 4.85325, -0.1166382, 4.85325, 1.1526718, 4.85325, -1.038168, 4.85325, -2.8931298
0.5717647, -0.0176242, 4.86, 0.0263672, 4.86, -1.0082397, 4.86, -0.1171875, 4.86, 1.0687023, 4.86, -1.1221374, 4.86, -2.9847329
0.5725588, -0.0157778, 4.86675, 0.0239258, 4.86675, -1.0077515, 4.86675, -0.1152344, 4.86675, 1.0458015, 4.86675, -1.2442749, 4.86675, -2.8931298
0.5733529, -0.0132601, 4.8735, 0.0246582, 4.8735, -1.0029907, 4.8735, -0.1151733, 4.8735, 0.9465649, 4.8735, -1.2366412, 4.8735, -2.961832
0.5741471, -0.0130922, 4.88025, 0.0241699, 4.88025, -1.0012207, 4.88025, -0.1191406, 4.88025, 1, 4.88025, -1.0687023, 4.88025, -2.870229
0.5749412, -0.0129244, 4.887, 0.0297241, 4.887, -1.0077515, 4.887, -0.114502, 4.887, 0.8778626, 4.887, -0.9923664, 4.887, -2.8931298
0.5757353, -0.0112459, 4.89375, 0.0322876, 4.89375, -1.0061646, 4.89375, -0.1151733, 4.89375, 0.8473282, 4.89375, -0.870229, 4.89375, -2.870229
0.5765294, -0.0109102, 4.9005, 0.0368652, 4.9005, -1.0043335, 4.9005, -0.1141968, 4.9005, 1.038168, 4.9005, -0.7328244, 4.9005, -2.908397
0.5773235, -0.005539, 4.90725, 0.0338745, 4.90725, -1.0045776, 4.90725, -0.114502, 4.90725, 0.9923664, 4.90725, -0.389313, 4.90725, -2.9465649
0.5781176, -0.0065461, 4.914, 0.0267944, 4.914, -1.0077515, 4.914, -0.1186523, 4.914, 0.8167939, 4.914, -0.0916031, 4.914, -2.9389312
0.5789118, -0.0075532, 4.92075, 0.0229492, 4.92075, -1.0038452, 4.92075, -0.1184082, 4.92075, 0.7328244, 4.92075, -0.2748092, 4.92075, -2.9389312
0.5797059, -0.0065461, 4.9275, 0.0203857, 4.9275, -1.008667, 4.9275, -0.1192017, 4.9275, 0.8167939, 4.9275, -0.7022901, 4.9275, -3
0.5805, -0.0082246, 4.93425, 0.0214844, 4.93425, -1.0072632, 4.93425, -0.12146, 4.93425, 0.8015267, 4.93425, -1.1450381, 4.93425, -3.0458016
0.5812941, -0.0109102, 4.941, 0.024231, 4.941, -1.0084839, 4.941, -0.1205444, 4.941, 0.7175573, 4.941, -1.1603054, 4.941, -3.0839694
0.5820882, -0.0112459, 4.94775, 0.0321045, 4.94775, -1.0046997, 4.94775, -0.1185303, 4.94775, 0.9694657, 4.94775, -0.8931298, 4.94775, -3.0992367
0.5828824, -0.0125887, 4.9545, 0.0368042, 4.9545, -1.0058594, 4.9545, -0.116333, 4.9545, 0.7480916, 4.9545, -0.4580153, 4.9545, -3
0.5836765, -0.0115816, 4.96125, 0.0308228, 4.96125, -1.0095215, 4.96125, -0.1152344, 4.96125, 0.8931298, 4.96125, -0.2442748, 4.96125, -3.0610688
0.5844706, -0.0115816, 4.968, 0.0235596, 4.968, -1.008667, 4.968, -0.116333, 4.968, 1.0076336, 4.968, 0.129771, 4.968, -3.3129771
0.5852647, -0.012253, 4.97475, 0.0222168, 4.97475, -1.0054932, 4.97475, -0.1123047, 4.97475, 0.8625954, 4.97475, 0.0763359, 4.97475, -3.3206108
0.5860588, -0.0092317, 4.9815, 0.0276489, 4.9815, -1.0039062, 4.9815, -0.1107788, 4.9815, 0.7862595, 4.9815, 0.0076336, 4.9815, -3.0687022
0.5868529, -0.0102388, 4.98825, 0.0294189, 4.98825, -1.0062866, 4.98825, -0.1132812, 4.98825, 0.8931298, 4.98825, 0.1526718, 4.98825, -3.0534351
0.5876471, -0.0146029, 4.995, 0.0319824, 4.995, -1.0048218, 4.995, -0.1133423, 4.995, 0.8778626, 4.995, 0.3282443, 4.995, -3.0305343
0.5884412, -0.0182956, 5.00175, 0.0333862, 5.00175, -1.0055542, 5.00175, -0.1132812, 5.00175, 0.5343512, 5.00175, 0.4885496, 5.00175, -3.0152671
0.5892353, -0.0182956, 5.0085, 0.0314941, 5.0085, -0.9996948, 5.0085, -0.1121826, 5.0085, 0.5496183, 5.0085, 1, 5.0085, -3.1068702
0.5900294, -0.0149386, 5.01525, 0.0292358, 5.01525, -1.0038452, 5.01525, -0.1131592, 5.01525, 0.2824427, 5.01525, 1.091603, 5.01525, -3.1679389
0.5908235, -0.0169528, 5.022, 0.0287476, 5.022, -1.008667, 5.022, -0.1123657, 5.022, 0.3969466, 5.022, 1.3358779, 5.022, -3.0992367
0.5916176, -0.0176242, 5.02875, 0.0291748, 5.02875, -1.0112915, 5.02875, -0.1130981, 5.02875, 0.4122137, 5.02875, 1.6412214, 5.02875, -3.2061069
0.5924118, -0.01561, 5.0355, 0.0264893, 5.0355, -1.0083008, 5.0355, -0.1158447, 5.0355, 0.2824427, 5.0355, 1.9541985, 5.0355, -3.1068702
0.5932059, -0.0176242, 5.04225, 0.022583, 5.04225, -1.0065308, 5.04225, -0.1165771, 5.04225, 0.2519084, 5.04225, 1.8396946, 5.04225, -3.1603053
0.594, -0.0146029, 5.049, 0.022522, 5.049, -1.0044556, 5.049, -0.1134644, 5.049, 0.2366412, 5.049, 1.9312977, 5.049, -3.2366412
0.5947941, -0.014435, 5.05575, 0.0231323, 5.05575, -1.007019, 5.05575, -0.1136475, 5.05575, 0.4122137, 5.05575, 2.038168, 5.05575, -3.2519083
0.5955882, -0.0125887, 5.0625, 0.024353, 5.0625, -1.0075684, 5.0625, -0.1160278, 5.0625, 0.4274809, 5.0625, 1.9923664, 5.0625, -3.1374047
0.5963824, -0.0142672, 5.06925, 0.0223389, 5.06925, -1.0025635, 5.06925, -0.1196899, 5.06925, 0.2977099, 5.06925, 2.1679389, 5.06925, -3.4580152
0.5971765, -0.0169528, 5.076, 0.022522, 5.076, -1.0056763, 5.076, -0.1210938, 5.076, 0.1526718, 5.076, 2.2442749, 5.076, -3.5954199
0.5979706, -0.0162814, 5.08275, 0.0258179, 5.08275, -1.0097046, 5.08275, -0.1149292, 5.08275, 0.1908397, 5.08275, 2.4427481, 5.08275, -3.5267177
0.5987647, -0.0181277, 5.0895, 0.0266724, 5.0895, -1.005249, 5.0895, -0.1119385, 5.0895, -0.0305344, 5.0895, 2.4961832, 5.0895, -3.5267177
0.5995588, -0.0194705, 5.09625, 0.027832, 5.09625, -1.0078125, 5.09625, -0.1115112, 5.09625, 0.0229008, 5.09625, 2.4885497, 5.09625, -3.6183207
0.6003529, -0.0196384, 5.103, 0.0294189, 5.103, -1.008728, 5.103, -0.1120605, 5.103, 0.0076336, 5.103, 2.6259542, 5.103, -3.5572519
0.6011471, -0.0164492, 5.10975, 0.0269775, 5.10975, -1.007019, 5.10975, -0.1157837, 5.10975, -0.1679389, 5.10975, 2.778626, 5.10975, -3.6183207
0.6019412, -0.0149386, 5.1165, 0.0247192, 5.1165, -1.0053711, 5.1165, -0.1149902, 5.1165, -0.259542, 5.1165, 2.648855, 5.1165, -3.610687
0.6027353, -0.0149386, 5.12325, 0.0234985, 5.12325, -1.0026245, 5.12325, -0.1158447, 5.12325, -0.0458015, 5.12325, 2.6641221, 5.12325, -3.6335878
0.6035294, -0.0166171, 5.13, 0.0298462, 5.13, -0.999939, 5.13, -0.1211548, 5.13, -0.1145038, 5.13, 2.5572519, 5.13, -3.6412213
0.6043235, -0.0124208, 5.13675, 0.0341187, 5.13675, -1.0027466, 5.13675, -0.1220093, 5.13675, -0.5038168, 5.13675, 2.4961832, 5.13675, -3.6259542
0.6051176, -0.0124208, 5.1435, 0.0349731, 5.1435, -1.0010986, 5.1435, -0.1188965, 5.1435, -0.5496183, 5.1435, 2.7251909, 5.1435, -3.4961832
0.6059118, -0.01561, 5.15025, 0.0336914, 5.15025, -1.0033569, 5.15025, -0.1187134, 5.15025, -0.3358779, 5.15025, 3.129771, 5.15025, -3.5648854
0.6067059, -0.0169528, 5.157, 0.0310669, 5.157, -1.0066528, 5.157, -0.1176758, 5.157, -0.4351145, 5.157, 3.5038168, 5.157, -3.6412213
0.6075, -0.0162814, 5.16375, 0.0283203, 5.16375, -1.0062256, 5.16375, -0.1203613, 5.16375, -0.2748092, 5.16375, 3.4961832, 5.16375, -3.7557251
0.6082941, -0.0172885, 5.1705, 0.0238647, 5.1705, -1.0136108, 5.1705, -0.1206055, 5.1705, -0.2900763, 5.1705, 3.3740458, 5.1705, -3.778626
0.6090882, -0.0176242, 5.17725, 0.0241089, 5.17725, -1.0125732, 5.17725, -0.1206055, 5.17725, -0.1679389, 5.17725, 3.2900763, 5.17725, -3.7557251
0.6098824, -0.0152743, 5.184, 0.0231934, 5.184, -1.0085449, 5.184, -0.1211548, 5.184, 0.0305344, 5.184, 3.1374047, 5.184, -3.648855
0.6106765, -0.0142672, 5.19075, 0.0237427, 5.19075, -1.0108032, 5.19075, -0.1228027, 5.19075, 0.0152672, 5.19075, 2.9694657, 5.19075, -3.8091602
0.6114706, -0.0152743, 5.1975, 0.0259399, 5.1975, -1.0077515, 5.1975, -0.1242676, 5.1975, 0.1221374, 5.1975, 2.9389312, 5.1975, -3.740458
0.6122647, -0.0132601, 5.20425, 0.0266113, 5.20425, -1.0080566, 5.20425, -0.1213989, 5.20425, 0.0305344, 5.20425, 2.961832, 5.20425, -3.778626
0.6130588, -0.0125887, 5.211, 0.0270996, 5.211, -1.005127, 5.211, -0.1203003, 5.211, 0.1068702, 5.211, 2.7633588, 5.211, -3.7175572
0.6138529, -0.0137636, 5.21775, 0.0317383, 5.21775, -1.0073242, 5.21775, -0.1193237, 5.21775, 0.0152672, 5.21775, 2.6030533, 5.21775, -3.8320611
0.6146471, -0.0151064, 5.2245, 0.0311279, 5.2245, -1.0080566, 5.2245, -0.121582, 5.2245, -0.1374046, 5.2245, 2.7251909, 5.2245, -3.6564887
0.6154412, -0.0147707, 5.23125, 0.0316772, 5.23125, -1.0106812, 5.23125, -0.1212158, 5.23125, 0.1603053, 5.23125, 2.9007633, 5.23125, -3.9007633
0.6162353, -0.0142672, 5.238, 0.0279541, 5.238, -1.0100708, 5.238, -0.1247559, 5.238, 0.351145, 5.238, 2.9541984, 5.238, -3.7862597
0.6170294, -0.01561, 5.24475, 0.0245361, 5.24475, -1.0076294, 5.24475, -0.1247559, 5.24475, 0.3740458, 5.24475, 2.8244274, 5.24475, -3.7251909
0.6178235, -0.0203098, 5.2515, 0.0247803, 5.2515, -1.0067139, 5.2515, -0.1269531, 5.2515, 0.3664122, 5.2515, 2.6183207, 5.2515, -3.740458
0.6186176, -0.0236667, 5.25825, 0.0245972, 5.25825, -1.0090942, 5.25825, -0.125, 5.25825, 0.4198473, 5.25825, 2.5419848, 5.25825, -3.6641221
0.6194118, -0.0223239, 5.265, 0.0281982, 5.265, -1.006958, 5.265, -0.1253662, 5.265, 0.3816794, 5.265, 2.480916, 5.265, -3.6641221
0.6202059, -0.0157778, 5.27175, 0.0302124, 5.27175, -1.0060425, 5.27175, -0.1216431, 5.27175, 0.3664122, 5.27175, 2.6641221, 5.27175, -3.6259542
0.621, -0.0164492, 5.2785, 0.0352783, 5.2785, -1.0057983, 5.2785, -0.1226807, 5.2785, 0.6412213, 5.2785, 3.1068702, 5.2785, -3.5801528
0.6217941, -0.0169528, 5.28525, 0.0360718, 5.28525, -1.0039673, 5.28525, -0.1244507, 5.28525, 0.5954198, 5.28525, 3.2290077, 5.28525, -3.6717558
0.6225882, -0.012253, 5.292, 0.0349731, 5.292, -1.0020142, 5.292, -0.1219482, 5.292, 0.7557252, 5.292, 3.610687, 5.292, -3.6564887
0.6233824, -0.0112459, 5.29875, 0.0325317, 5.29875, -1.0031128, 5.29875, -0.1196899, 5.29875, 0.6183206, 5.29875, 3.648855, 5.29875, -3.5954199
0.6241765, -0.0127565, 5.3055, 0.031189, 5.3055, -1.0070801, 5.3055, -0.125, 5.3055, 0.6793893, 5.3055, 3.648855, 5.3055, -3.4656489
0.6249706, -0.0149386, 5.31225, 0.0291138, 5.31225, -1.008728, 5.31225, -0.1223145, 5.31225, 0.5954198, 5.31225, 3.9236641, 5.31225, -3.6259542
0.6257647, -0.01561, 5.319, 0.0322266, 5.319, -1.0056152, 5.319, -0.1226196, 5.319, 0.6870229, 5.319, 4.038168, 5.319, -3.4503818
0.6265588, -0.0176242, 5.32575, 0.0296021, 5.32575, -1.0062256, 5.32575, -0.1254883, 5.32575, 0.6412213, 5.32575, 3.8778627, 5.32575, -3.3816793
0.6273529, -0.0130922, 5.3325, 0.0305176, 5.3325, -1.0076904, 5.3325, -0.1243286, 5.3325, 0.5496183, 5.3325, 3.9465649, 5.3325, -3.5496182
0.6281471, -0.0119173, 5.33925, 0.0339355, 5.33925, -1.0108032, 5.33925, -0.1224976, 5.33925, 0.4198473, 5.33925, 3.9770992, 5.33925, -3.3587787
0.6289412, -0.012253, 5.346, 0.0360718, 5.346, -1.0116577, 5.346, -0.1196289, 5.346, 0.480916, 5.346, 4.0076337, 5.346, -3.3053436
0.6297353, -0.008896, 5.35275, 0.0324097, 5.35275, -1.0073242, 5.35275, -0.1188354, 5.35275, 0.5038168, 5.35275, 3.961832, 5.35275, -3.3358779
0.6305294, -0.0065461, 5.3595, 0.0304565, 5.3595, -1.0090942, 5.3595, -0.1187744, 5.3595, 0.5801527, 5.3595, 4.0992365, 5.3595, -3.3664122
0.6313235, -0.0078889, 5.36625, 0.0250244, 5.36625, -1.0055542, 5.36625, -0.1192627, 5.36625, 0.519084, 5.36625, 3.9923663, 5.36625, -3.3740458
0.6321176, -0.0092317, 5.373, 0.0258789, 5.373, -1.0080566, 5.373, -0.1191406, 5.373, 0.3206107, 5.373, 3.9312978, 5.373, -3.2977099
0.6329118, -0.0090639, 5.37975, 0.0263672, 5.37975, -1.0093994, 5.37975, -0.1165771, 5.37975, 0.4274809, 5.37975, 3.7099237, 5.37975, -3.3587787
0.6337059, -0.012253, 5.3865, 0.0217285, 5.3865, -1.0083618, 5.3865, -0.1159668, 5.3865, 0.5648855, 5.3865, 3.8167939, 5.3865, -3.389313
0.6345, -0.0146029, 5.39325, 0.0174561, 5.39325, -1.0098267, 5.39325, -0.1237183, 5.39325, 0.6564885, 5.39325, 3.8091602, 5.39325, -3.2519083
0.6352941, -0.0139315, 5.4, 0.0187988, 5.4, -1.0087891, 5.4, -0.1229858, 5.4, 0.5114504, 5.4, 3.5801528, 5.4, -3.1908398
0.6360882, -0.0164492, 5.40675, 0.0235596, 5.40675, -1.0072632, 5.40675, -0.1248779, 5.40675, 0.5419847, 5.40675, 3.4656489, 5.40675, -3.351145
0.6368824, -0.0162814, 5.4135, 0.026123, 5.4135, -1.0061035, 5.4135, -0.1245117, 5.4135, 0.5725191, 5.4135, 3.1832061, 5.4135, -3.4427481
0.6376765, -0.0146029, 5.42025, 0.027832, 5.42025, -1.0046387, 5.42025, -0.1229858, 5.42025, 0.5419847, 5.42025, 3.1755726, 5.42025, -3.5419848
0.6384706, -0.0135958, 5.427, 0.0282593, 5.427, -1.0031738, 5.427, -0.1196289, 5.427, 0.5343512, 5.427, 3.1603053, 5.427, -3.6641221
0.6392647, -0.0162814, 5.43375, 0.0289307, 5.43375, -1.0029297, 5.43375, -0.1246338, 5.43375, 0.2900763, 5.43375, 3.2900763, 5.43375, -3.6641221
0.6400588, -0.0172885, 5.4405, 0.0265503, 5.4405, -1, 5.4405, -0.1220703, 5.4405, 0.3587786, 5.4405, 3.0687022, 5.4405, -3.7633588
0.6408529, -0.0164492, 5.44725, 0.0275879, 5.44725, -1.0057373, 5.44725, -0.1208496, 5.44725, 0.5496183, 5.44725, 2.6259542, 5.44725, -3.8244274
0.6416471, -0.0142672, 5.454, 0.0281372, 5.454, -1.0078735, 5.454, -0.1187744, 5.454, 0.8091603, 5.454, 2.4351146, 5.454, -3.9236641
0.6424412, -0.0129244, 5.46075, 0.0264893, 5.46075, -1.0084839, 5.46075, -0.1240234, 5.46075, 0.6793893, 5.46075, 2.2061069, 5.46075, -3.9160306
0.6432353, -0.0132601, 5.4675, 0.0199585, 5.4675, -1.0058594, 5.4675, -0.1257935, 5.4675, 0.6259542, 5.4675, 1.7099236, 5.4675, -4.0763359
0.6440294, -0.0112459, 5.47425, 0.015625, 5.47425, -1.0083618, 5.47425, -0.1268311, 5.47425, 0.7709923, 5.47425, 1.4274809, 5.47425, -4.0916033
0.6448235, -0.0112459, 5.481, 0.0188599, 5.481, -1.0083008, 5.481, -0.1244507, 5.481, 0.8167939, 5.481, 0.6793893, 5.481, -4.1984735
0.6456176, -0.0119173, 5.48775, 0.0240479, 5.48775, -1.0093994, 5.48775, -0.1235352, 5.48775, 1.0305344, 5.48775, 0.5267175, 5.48775, -4.4045801
0.6464118, -0.0154421, 5.4945, 0.024292, 5.4945, -1.0109253, 5.4945, -0.1224365, 5.4945, 0.8473282, 5.4945, 0.1755725, 5.4945, -4.2900763
0.6472059, -0.0172885, 5.50125, 0.02771, 5.50125, -1.0084229, 5.50125, -0.1235352, 5.50125, 1.0076336, 5.50125, 0.4198473, 5.50125, -4.3816795
0.648, -0.0176242, 5.508, 0.0230713, 5.508, -1.0090942, 5.508, -0.1221924, 5.508, 0.8778626, 5.508, 0.7709923, 5.508, -4.5267177
0.6487941, -0.01561, 5.51475, 0.0206299, 5.51475, -1.0094604, 5.51475, -0.1221313, 5.51475, 1.0839695, 5.51475, 0.3969466, 5.51475, -4.7022901
0.6495882, -0.0149386, 5.5215, 0.0148315, 5.5215, -1.0084229, 5.5215, -0.1239014, 5.5215, 1.2977099, 5.5215, 0.0458015, 5.5215, -4.7557254
0.6503824, -0.0159457, 5.52825, 0.019165, 5.52825, -1.0089722, 5.52825, -0.1274414, 5.52825, 1.2900764, 5.52825, -0.5877863, 5.52825, -4.740458
0.6511765, -0.0193027, 5.535, 0.0240479, 5.535, -1.0070801, 5.535, -0.1243286, 5.535, 1.3816794, 5.535, -1.1374046, 5.535, -4.6717558
0.6519706, -0.0209812, 5.54175, 0.029541, 5.54175, -1.006958, 5.54175, -0.1246948, 5.54175, 1.4198474, 5.54175, -1.2977099, 5.54175, -4.7709923
0.6527647, -0.0186313, 5.5485, 0.0390015, 5.5485, -1.0089722, 5.5485, -0.1235962, 5.5485, 1.6717557, 5.5485, -1.2977099, 5.5485, -4.7709923
0.6535588, -0.0186313, 5.55525, 0.0413208, 5.55525, -1.0079956, 5.55525, -0.1212769, 5.55525, 1.5496184, 5.55525, -1.038168, 5.55525, -4.6564884
0.6543529, -0.0182956, 5.562, 0.0414429, 5.562, -1.0064697, 5.562, -0.1234131, 5.562, 1.3816794, 5.562, -1.0152671, 5.562, -4.8625956
0.6551471, -0.0162814, 5.56875, 0.0371094, 5.56875, -1.0101318, 5.56875, -0.1223755, 5.56875, 1.4580153, 5.56875, -0.9694657, 5.56875, -4.5496182
0.6559412, -0.0139315, 5.5755, 0.032959, 5.5755, -1.0123291, 5.5755, -0.1230469, 5.5755, 1.6946565, 5.5755, -1.0305344, 5.5755, -4.6870227
0.6567353, -0.0125887, 5.58225, 0.0273438, 5.58225, -1.0112305, 5.58225, -0.1216431, 5.58225, 1.9465649, 5.58225, -1.2519084, 5.58225, -4.6870227
0.6575294, -0.0130922, 5.589, 0.03125, 5.589, -1.0103149, 5.589, -0.1213379, 5.589, 1.7709924, 5.589, -1.5954199, 5.589, -4.5267177
0.6583235, -0.0149386, 5.59575, 0.0372925, 5.59575, -1.0081177, 5.59575, -0.1199951, 5.59575, 1.9236641, 5.59575, -1.5343511, 5.59575, -4.4732823
0.6591176, -0.0125887, 5.6025, 0.0408936, 5.6025, -1.0072021, 5.6025, -0.1220703, 5.6025, 1.7709924, 5.6025, -1.5572519, 5.6025, -4.4503818
0.6599118, -0.012253, 5.60925, 0.0429077, 5.60925, -1.0067749, 5.60925, -0.1192017, 5.60925, 1.7099236, 5.60925, -1.2977099, 5.60925, -4.3740458
0.6607059, -0.0132601, 5.616, 0.0479126, 5.616, -1.0083618, 5.616, -0.1175537, 5.616, 1.7251909, 5.616, -0.6717557, 5.616, -4.2748094
0.6615, -0.0129244, 5.62275, 0.0482178, 5.62275, -1.0079956, 5.62275, -0.1184082, 5.62275, 1.7938931, 5.62275, 0.0916031, 5.62275, -4.2137403
0.6622941, -0.0099031, 5.6295, 0.0436401, 5.6295, -1.0078125, 5.6295, -0.1239014, 5.6295, 1.8396946, 5.6295, 0.8778626, 5.6295, -3.9923663
0.6630882, -0.0104067, 5.63625, 0.0424805, 5.63625, -1.0042114, 5.63625, -0.1220093, 5.63625, 1.4580153, 5.63625, 0.9694657, 5.63625, -3.8320611
0.6638824, -0.0109102, 5.643, 0.0440674, 5.643, -1.0089722, 5.643, -0.1233521, 5.643, 1.5725191, 5.643, 0.9694657, 5.643, -3.8625953
0.6646765, -0.012253, 5.64975, 0.0443726, 5.64975, -1.005249, 5.64975, -0.1226196, 5.64975, 1.6641221, 5.64975, 1.3358779, 5.64975, -3.610687
0.6654706, -0.0115816, 5.6565, 0.0480347, 5.6565, -1.0029907, 5.6565, -0.1241455, 5.6565, 1.5801526, 5.6565, 1.2748091, 5.6565, -3.4122138
0.6662647, -0.012253, 5.66325, 0.0476074, 5.66325, -1.0020752, 5.66325, -0.1217651, 5.66325, 1.351145, 5.66325, 1.1221374, 5.66325, -3.4198472
0.6670588, -0.0142672, 5.67, 0.0498047, 5.67, -1.0053711, 5.67, -0.1204224, 5.67, 1.0992366, 5.67, 1.4580153, 5.67, -3.2366412
0.6678529, -0.0135958, 5.67675, 0.050354, 5.67675, -1.0022583, 5.67675, -0.1174316, 5.67675, 1.3053435, 5.67675, 1.4427481, 5.67675, -3.2137403
0.6686471, -0.01561, 5.6835, 0.052063, 5.6835, -1.0048828, 5.6835, -0.116333, 5.6835, 1.1221374, 5.6835, 1.5648855, 5.6835, -3.1145039
0.6694412, -0.018967, 5.69025, 0.0507202, 5.69025, -1.0021973, 5.69025, -0.114563, 5.69025, 1.0305344, 5.69025, 1.9312977, 5.69025, -2.8778627
0.6702353, -0.0209812, 5.697, 0.0456543, 5.697, -1.0054932, 5.697, -0.116272, 5.697, 0.9847328, 5.697, 1.9236641, 5.697, -2.778626
0.6710294, -0.0176242, 5.70375, 0.0465698, 5.70375, -1.0076294, 5.70375, -0.1184692, 5.70375, 0.8091603, 5.70375, 1.870229, 5.70375, -2.7328243
0.6718235, -0.0172885, 5.7105, 0.0418701, 5.7105, -1.0094604, 5.7105, -0.1156006, 5.7105, 0.8091603, 5.7105, 2.0076337, 5.7105, -2.5419848
0.6726176, -0.0125887, 5.71725, 0.0383301, 5.71725, -1.0054321, 5.71725, -0.1160889, 5.71725, 0.7480916, 5.71725, 2.1603053, 5.71725, -2.4961832
0.6734118, -0.0115816, 5.724, 0.0388184, 5.724, -1.0091553, 5.724, -0.1184692, 5.724, 0.6030535, 5.724, 2.1526718, 5.724, -2.4732823
0.6742059, -0.0135958, 5.73075, 0.0380249, 5.73075, -1.0090332, 5.73075, -0.1130981, 5.73075, 0.6717557, 5.73075, 2.4274809, 5.73075, -2.3053436
0.675, -0.0149386, 5.7375, 0.0341187, 5.7375, -1.0111694, 5.7375, -0.1195068, 5.7375, 0.8396947, 5.7375, 2.3816793, 5.7375, -2.2137403
0.6757941, -0.0149386, 5.74425, 0.0365601, 5.74425, -1.008728, 5.74425, -0.1195068, 5.74425, 0.7480916, 5.74425, 2.4045801, 5.74425, -2.3129771
0.6765882, -0.0142672, 5.751, 0.0327759, 5.751, -1.0111694, 5.751, -0.1188354, 5.751, 0.7251908, 5.751, 2.610687, 5.751, -2.2137403
0.6773824, -0.0162814, 5.75775, 0.0340576, 5.75775, -1.0144043, 5.75775, -0.1226807, 5.75775, 0.5877863, 5.75775, 2.5725191, 5.75775, -2.0763359
0.6781765, -0.0129244, 5.7645, 0.0341187, 5.7645, -1.0144043, 5.7645, -0.1229858, 5.7645, 0.7709923, 5.7645, 2.5267177, 5.7645, -2.1679389
