Application:, Trigno Discover (1.7.0)
Date/Time:, 2026/9/9 下午 02:45:10
Collection Length (seconds):, 139.563
Avanti Sensor 11 (69574)
sensor mode: 50
EMG 1 Time Series (s), EMG 1 (mV), ACC X Time Series (s), ACC X (G), ACC Y Time Series (s), ACC Y (G), ACC Z Time Series (s), ACC Z (G), GYRO X Time Series (s), GYRO X (deg/s), GYRO Y Time Series (s), GYRO Y (deg/s), GYRO Z Time Series (s), GYRO Z (deg/s)
, 1259.2593 Hz, , 148.1481 Hz, , 148.1481 Hz, , 148.1481 Hz, , 148.1481 Hz, , 148.1481 Hz, , 148.1481 Hz
0, -0.018967, 0, 0.1071777, 0, -0.9940796, 0, -0.2371826, 0, 1.3129771, 0, 0.2442748, 0, -3.1221373
0.0007941, -0.0179599, 0.00675, 0.1082764, 0.00675, -0.993103, 0.00675, -0.2359009, 0.00675, 1.4351145, 0.00675, 0.4122137, 0.00675, -2.9236641
0.0015882, -0.0164492, 0.0135, 0.1066895, 0.0135, -0.9957275, 0.0135, -0.236084, 0.0135, 1.4885496, 0.0135, 0.6030535, 0.0135, -2.9236641
0.0023824, -0.017792, 0.02025, 0.1044312, 0.02025, -0.9922485, 0.02025, -0.2389526, 0.02025, 0.7862595, 0.02025, 0.8244275, 0.02025, -2.8778627
0.0031765, -0.0186313, 0.027, 0.1047363, 0.027, -0.9896851, 0.027, -0.2390747, 0.027, 0.8854962, 0.027, 0.9923664, 0.027, -2.9312978
0.0039706, -0.0206455, 0.03375, 0.1002197, 0.03375, -0.9900513, 0.03375, -0.2355957, 0.03375, 0.6793893, 0.03375, 0.8473282, 0.03375, -2.8625953
0.0047647, -0.0186313, 0.0405, 0.1000977, 0.0405, -0.989624, 0.0405, -0.2380981, 0.0405, 0.7709923, 0.0405, 0.3282443, 0.0405, -2.9160306
0.0055588, -0.0196384, 0.04725, 0.1030273, 0.04725, -0.9920654, 0.04725, -0.2362671, 0.04725, 0.8091603, 0.04725, 0.3282443, 0.04725, -3.1755726
0.0063529, -0.0169528, 0.054, 0.1009521, 0.054, -0.9918213, 0.054, -0.2365112, 0.054, 0.9312977, 0.054, 0.3129771, 0.054, -3.2290077
0.0071471, -0.0152743, 0.06075, 0.100647, 0.06075, -0.9904785, 0.06075, -0.236145, 0.06075, 0.8320611, 0.06075, 0.2137405, 0.06075, -3.3358779
0.0079412, -0.012253, 0.0675, 0.1018066, 0.0675, -0.9890137, 0.0675, -0.2389526, 0.0675, 0.961832, 0.0675, 0.4961832, 0.0675, -3.3740458
0.0087353, -0.0077211, 0.07425, 0.102356, 0.07425, -0.9909058, 0.07425, -0.2336426, 0.07425, 0.9312977, 0.07425, 0.7099237, 0.07425, -3.2900763
0.0095294, -0.0028534, 0.081, 0.100647, 0.081, -0.9911499, 0.081, -0.2334595, 0.081, 1.1450381, 0.081, 0.7175573, 0.081, -3.3206108
0.0103235, -0.0065461, 0.08775, 0.1013184, 0.08775, -0.9934692, 0.08775, -0.2318726, 0.08775, 1.2290076, 0.08775, 0.8549618, 0.08775, -3.3053436
0.0111176, -0.0052033, 0.0945, 0.1031494, 0.0945, -0.9915161, 0.0945, -0.2313232, 0.0945, 1.1450381, 0.0945, 0.9694657, 0.0945, -3.2977099
0.0119118, -0.0065461, 0.10125, 0.1071777, 0.10125, -0.9915161, 0.10125, -0.2344971, 0.10125, 1.2137405, 0.10125, 1.0763359, 0.10125, -3.1526718
0.0127059, -0.0119173, 0.108, 0.1077881, 0.108, -0.9920044, 0.108, -0.2317505, 0.108, 1.1908396, 0.108, 1.2748091, 0.108, -3.2290077
0.0135, -0.018967, 0.11475, 0.1046753, 0.11475, -0.9935913, 0.11475, -0.2324219, 0.11475, 1.3206106, 0.11475, 1.2137405, 0.11475, -3.1679389
0.0142941, -0.0186313, 0.1215, 0.1019897, 0.1215, -0.9956665, 0.1215, -0.2349243, 0.1215, 1.1679389, 0.1215, 1.1984733, 0.1215, -3.1832061
0.0150882, -0.0182956, 0.12825, 0.0967407, 0.12825, -0.993042, 0.12825, -0.2377319, 0.12825, 1.1984733, 0.12825, 1.0763359, 0.12825, -3.1679389
0.0158824, -0.0216526, 0.135, 0.0960693, 0.135, -0.9910278, 0.135, -0.2336426, 0.135, 1.1450381, 0.135, 1.0839695, 0.135, -3.2442749
0.0166765, -0.0250095, 0.14175, 0.1008301, 0.14175, -0.9887085, 0.14175, -0.2367554, 0.14175, 1.2290076, 0.14175, 0.7557252, 0.14175, -3.1374047
0.0174706, -0.0219883, 0.1485, 0.0994873, 0.1485, -0.9924316, 0.1485, -0.2364502, 0.1485, 1.0763359, 0.1485, 0.2442748, 0.1485, -3.2671757
0.0182647, -0.0216526, 0.15525, 0.098938, 0.15525, -0.9938354, 0.15525, -0.2339478, 0.15525, 1.1679389, 0.15525, 0.2137405, 0.15525, -3.2442749
0.0190588, -0.0179599, 0.162, 0.1054688, 0.162, -0.9924316, 0.162, -0.2322388, 0.162, 1.4427481, 0.162, -0.0458015, 0.162, -3.2366412
0.0198529, -0.017792, 0.16875, 0.1071167, 0.16875, -0.9896851, 0.16875, -0.2360229, 0.16875, 1.1603054, 0.16875, 0.2748092, 0.16875, -3.0839694
0.0206471, -0.0157778, 0.1755, 0.109314, 0.1755, -0.9892578, 0.1755, -0.2323608, 0.1755, 1.1679389, 0.1755, 0.4045801, 0.1755, -3.2442749
0.0214412, -0.0152743, 0.18225, 0.1033936, 0.18225, -0.9898682, 0.18225, -0.2334595, 0.18225, 1.259542, 0.18225, 0.5114504, 0.18225, -3.1450381
0.0222353, -0.0162814, 0.189, 0.1052856, 0.189, -0.9914551, 0.189, -0.2354736, 0.189, 1.1450381, 0.189, 0.4961832, 0.189, -3.1755726
0.0230294, -0.01561, 0.19575, 0.1078491, 0.19575, -0.9946289, 0.19575, -0.2357788, 0.19575, 0.8625954, 0.19575, 0.5877863, 0.19575, -2.9923663
0.0238235, -0.018967, 0.2025, 0.109436, 0.2025, -0.9943848, 0.2025, -0.2337646, 0.2025, 0.961832, 0.2025, 0.8167939, 0.2025, -3.129771
0.0246176, -0.017792, 0.20925, 0.1091309, 0.20925, -0.9919434, 0.20925, -0.2298584, 0.20925, 0.870229, 0.20925, 0.8167939, 0.20925, -3.1374047
0.0254118, -0.01561, 0.216, 0.1051025, 0.216, -0.9923096, 0.216, -0.2339478, 0.216, 1.0610687, 0.216, 1.1526718, 0.216, -3.1526718
0.0262059, -0.0129244, 0.22275, 0.1039429, 0.22275, -0.9904785, 0.22275, -0.2345581, 0.22275, 0.9236641, 0.22275, 1.5419847, 0.22275, -3.0458016
0.027, -0.0102388, 0.2295, 0.1031494, 0.2295, -0.9891968, 0.2295, -0.2386475, 0.2295, 0.908397, 0.2295, 1.4198474, 0.2295, -3.1526718
0.0277941, -0.0129244, 0.23625, 0.1026611, 0.23625, -0.9904175, 0.23625, -0.2355347, 0.23625, 0.8854962, 0.23625, 1.0076336, 0.23625, -3.2442749
0.0285882, -0.0135958, 0.243, 0.0997925, 0.243, -0.9920044, 0.243, -0.2339478, 0.243, 0.7022901, 0.243, 0.9847328, 0.243, -3.2748091
0.0293824, -0.011078, 0.24975, 0.1002808, 0.24975, -0.9920044, 0.24975, -0.2319946, 0.24975, 0.8473282, 0.24975, 1.2137405, 0.24975, -3.2061069
0.0301765, -0.0142672, 0.2565, 0.1004028, 0.2565, -0.993103, 0.2565, -0.2369995, 0.2565, 0.8091603, 0.2565, 1.259542, 0.2565, -3.2977099
0.0309706, -0.0162814, 0.26325, 0.1004028, 0.26325, -0.9899292, 0.26325, -0.2329712, 0.26325, 0.7709923, 0.26325, 1.3435115, 0.26325, -3.3358779
0.0317647, -0.0146029, 0.27, 0.1014404, 0.27, -0.9918213, 0.27, -0.2322998, 0.27, 0.6870229, 0.27, 1.2366412, 0.27, -3.2290077
0.0325588, -0.0182956, 0.27675, 0.1015625, 0.27675, -0.9931641, 0.27675, -0.2328491, 0.27675, 0.8473282, 0.27675, 1.2137405, 0.27675, -3.1603053
0.0333529, -0.0149386, 0.2835, 0.1019897, 0.2835, -0.9880981, 0.2835, -0.2342529, 0.2835, 0.8396947, 0.2835, 1.0458015, 0.2835, -3.2748091
0.0341471, -0.0129244, 0.29025, 0.1035767, 0.29025, -0.9928589, 0.29025, -0.2356567, 0.29025, 0.7862595, 0.29025, 1.2366412, 0.29025, -3.2366412
0.0349412, -0.0164492, 0.297, 0.1037598, 0.297, -0.9926758, 0.297, -0.2365723, 0.297, 0.9236641, 0.297, 1.2671756, 0.297, -3.1526718
0.0357353, -0.0152743, 0.30375, 0.1029663, 0.30375, -0.9915771, 0.30375, -0.2390747, 0.30375, 0.778626, 0.30375, 1.4732825, 0.30375, -3
0.0365294, -0.0152743, 0.3105, 0.1020508, 0.3105, -0.9940186, 0.3105, -0.239502, 0.3105, 0.8625954, 0.3105, 1.2977099, 0.3105, -3.1374047
0.0373235, -0.0179599, 0.31725, 0.1018677, 0.31725, -0.9918213, 0.31725, -0.2404175, 0.31725, 0.5725191, 0.31725, 1.1832061, 0.31725, -3.221374
0.0381176, -0.0184634, 0.324, 0.0993652, 0.324, -0.9923096, 0.324, -0.2409058, 0.324, 0.610687, 0.324, 0.8778626, 0.324, -3.221374
0.0389118, -0.0157778, 0.33075, 0.0976562, 0.33075, -0.9921265, 0.33075, -0.2390747, 0.33075, 0.519084, 0.33075, 0.7862595, 0.33075, -3.3587787
0.0397059, -0.0172885, 0.3375, 0.1022949, 0.3375, -0.9921875, 0.3375, -0.2383423, 0.3375, 0.5725191, 0.3375, 0.6793893, 0.3375, -3.0992367
0.0405, -0.0182956, 0.34425, 0.1060791, 0.34425, -0.9937134, 0.34425, -0.239624, 0.34425, 0.6564885, 0.34425, 0.5114504, 0.34425, -3.1603053
0.0412941, -0.012253, 0.351, 0.1048584, 0.351, -0.9922485, 0.351, -0.2367554, 0.351, 0.7480916, 0.351, 0.6335878, 0.351, -3.2977099
0.0420882, -0.0085603, 0.35775, 0.1065063, 0.35775, -0.9900513, 0.35775, -0.2367554, 0.35775, 0.740458, 0.35775, 0.9007633, 0.35775, -3.2900763
0.0428824, -0.0068818, 0.3645, 0.1077271, 0.3645, -0.9938354, 0.3645, -0.2421265, 0.3645, 0.7938932, 0.3645, 0.6259542, 0.3645, -3.0839694
0.0436765, -0.008896, 0.37125, 0.1088867, 0.37125, -0.9942017, 0.37125, -0.2385864, 0.37125, 0.6717557, 0.37125, 0.4351145, 0.37125, -3.1908398
0.0444706, -0.0085603, 0.378, 0.1044312, 0.378, -0.9943848, 0.378, -0.2375488, 0.378, 1.0152671, 0.378, 0.6030535, 0.378, -3.1679389
0.0452647, -0.0050355, 0.38475, 0.1002808, 0.38475, -0.9946289, 0.38475, -0.2350464, 0.38475, 1.091603, 0.38475, 0.4656489, 0.38475, -3.1145039
0.0460588, -0.0048676, 0.3915, 0.100769, 0.3915, -0.9946289, 0.3915, -0.2307129, 0.3915, 1.519084, 0.3915, 0.5801527, 0.3915, -3.0992367
0.0468529, -0.011078, 0.39825, 0.1040649, 0.39825, -0.9886475, 0.39825, -0.2319946, 0.39825, 1.4580153, 0.39825, 0.5725191, 0.39825, -3.221374
0.0476471, -0.0115816, 0.405, 0.0982666, 0.405, -0.9879761, 0.405, -0.2304077, 0.405, 1.4885496, 0.405, 0.5343512, 0.405, -3.2366412
0.0484412, -0.0099031, 0.41175, 0.1018066, 0.41175, -0.9932251, 0.41175, -0.2352905, 0.41175, 1.3435115, 0.41175, 0.6564885, 0.41175, -3.1984732
0.0492353, -0.0149386, 0.4185, 0.1032104, 0.4185, -0.9920044, 0.4185, -0.2304688, 0.4185, 1.3740458, 0.4185, 0.778626, 0.4185, -3.2061069
0.0500294, -0.0258488, 0.42525, 0.1014404, 0.42525, -0.991333, 0.42525, -0.2289429, 0.42525, 1.5343511, 0.42525, 0.7557252, 0.42525, -3.4045801
0.0508235, -0.0246738, 0.432, 0.0993652, 0.432, -0.991394, 0.432, -0.2315063, 0.432, 1.5801526, 0.432, 0.7328244, 0.432, -3.5419848
0.0516176, -0.0256809, 0.43875, 0.0983276, 0.43875, -0.9918213, 0.43875, -0.2338867, 0.43875, 1.5267175, 0.43875, 0.8549618, 0.43875, -3.351145
0.0524118, -0.0216526, 0.4455, 0.0964966, 0.4455, -0.991333, 0.4455, -0.2331543, 0.4455, 1.6412214, 0.4455, 0.610687, 0.4455, -3.4045801
0.0532059, -0.0219883, 0.45225, 0.0998535, 0.45225, -0.9931641, 0.45225, -0.236084, 0.45225, 1.6259542, 0.45225, 0.4427481, 0.45225, -3.4274809
0.054, -0.0196384, 0.459, 0.1018066, 0.459, -0.9907227, 0.459, -0.2345581, 0.459, 1.6793894, 0.459, 0.4198473, 0.459, -3.3129771
0.0547941, -0.0196384, 0.46575, 0.104187, 0.46575, -0.9900513, 0.46575, -0.2339478, 0.46575, 1.5648855, 0.46575, 0.6183206, 0.46575, -3.3053436
0.0555882, -0.018967, 0.4725, 0.1027222, 0.4725, -0.993103, 0.4725, -0.2352295, 0.4725, 1.1908396, 0.4725, 0.7862595, 0.4725, -3.1374047
0.0563824, -0.0184634, 0.47925, 0.1043701, 0.47925, -0.991272, 0.47925, -0.2335205, 0.47925, 1.2061069, 0.47925, 0.7862595, 0.47925, -3.1832061
0.0571765, -0.01561, 0.486, 0.1091309, 0.486, -0.991394, 0.486, -0.2366943, 0.486, 0.7709923, 0.486, 0.6793893, 0.486, -3.3129771
0.0579706, -0.0129244, 0.49275, 0.1053467, 0.49275, -0.9922485, 0.49275, -0.2329102, 0.49275, 0.7862595, 0.49275, 0.6412213, 0.49275, -3.5038168
0.0587647, -0.0154421, 0.4995, 0.1068726, 0.4995, -0.989563, 0.4995, -0.2304077, 0.4995, 0.5648855, 0.4995, 0.7480916, 0.4995, -3.3587787
0.0595588, -0.0137636, 0.50625, 0.1039429, 0.50625, -0.9916992, 0.50625, -0.2305908, 0.50625, 0.5419847, 0.50625, 0.7938932, 0.50625, -3.4351146
0.0603529, -0.0129244, 0.513, 0.1021729, 0.513, -0.9944458, 0.513, -0.2277832, 0.513, 0.6793893, 0.513, 0.9160305, 0.513, -3.610687
0.0611471, -0.0124208, 0.51975, 0.1018066, 0.51975, -0.9968872, 0.51975, -0.2283936, 0.51975, 0.7022901, 0.51975, 0.7709923, 0.51975, -3.519084
0.0619412, -0.012253, 0.5265, 0.1036377, 0.5265, -0.9906006, 0.5265, -0.2321777, 0.5265, 0.961832, 0.5265, 0.9312977, 0.5265, -3.3358779
0.0627353, -0.0166171, 0.53325, 0.1052856, 0.53325, -0.989624, 0.53325, -0.2323608, 0.53325, 0.7099237, 0.53325, 1.0687023, 0.53325, -3.4961832
0.0635294, -0.0152743, 0.54, 0.1022339, 0.54, -0.9892578, 0.54, -0.2347412, 0.54, 0.6870229, 0.54, 1.221374, 0.54, -3.4351146
0.0643235, -0.0092317, 0.54675, 0.0999756, 0.54675, -0.9882812, 0.54675, -0.2299194, 0.54675, 0.6641222, 0.54675, 1.129771, 0.54675, -3.4122138
0.0651176, -0.0169528, 0.5535, 0.0977173, 0.5535, -0.9918823, 0.5535, -0.2337036, 0.5535, 0.740458, 0.5535, 0.9847328, 0.5535, -3.4045801
0.0659118, -0.0240024, 0.56025, 0.0975952, 0.56025, -0.9935303, 0.56025, -0.2328491, 0.56025, 0.9541985, 0.56025, 1.0534351, 0.56025, -3.4580152
0.0667059, -0.0209812, 0.567, 0.0997314, 0.567, -0.9915771, 0.567, -0.2332153, 0.567, 0.9465649, 0.567, 1.1374046, 0.567, -3.4961832
0.0675, -0.0135958, 0.57375, 0.1043701, 0.57375, -0.9916992, 0.57375, -0.2369385, 0.57375, 0.961832, 0.57375, 1.091603, 0.57375, -3.4503818
0.0682941, -0.0109102, 0.5805, 0.1062012, 0.5805, -0.9918823, 0.5805, -0.2393799, 0.5805, 0.9389313, 0.5805, 1.0839695, 0.5805, -3.4732823
0.0690882, -0.0127565, 0.58725, 0.1082153, 0.58725, -0.991272, 0.58725, -0.2357788, 0.58725, 0.9541985, 0.58725, 1.2671756, 0.58725, -3.3053436
0.0698824, -0.0164492, 0.594, 0.1071777, 0.594, -0.9901733, 0.594, -0.2342529, 0.594, 1.0687023, 0.594, 1.2748091, 0.594, -3.3740458
0.0706765, -0.01561, 0.60075, 0.1066284, 0.60075, -0.9918213, 0.60075, -0.2355347, 0.60075, 1.0229008, 0.60075, 1.1908396, 0.60075, -3.3206108
0.0714706, -0.0142672, 0.6075, 0.1057739, 0.6075, -0.9909668, 0.6075, -0.2364502, 0.6075, 1.0229008, 0.6075, 1.2671756, 0.6075, -3.2442749
0.0722647, -0.0097353, 0.61425, 0.1060791, 0.61425, -0.9915161, 0.61425, -0.2380371, 0.61425, 1.2366412, 0.61425, 1.2900764, 0.61425, -3.0152671
0.0730588, -0.0115816, 0.621, 0.1047363, 0.621, -0.9915161, 0.621, -0.2423706, 0.621, 1.4885496, 0.621, 1.1984733, 0.621, -3.3206108
0.0738529, -0.0125887, 0.62775, 0.1091309, 0.62775, -0.9904785, 0.62775, -0.2404175, 0.62775, 1.1755725, 0.62775, 1.038168, 0.62775, -3.3206108
0.0746471, -0.0095674, 0.6345, 0.1095581, 0.6345, -0.9917603, 0.6345, -0.236084, 0.6345, 1.0687023, 0.6345, 0.870229, 0.6345, -3.1526718
0.0754412, -0.008896, 0.64125, 0.1051025, 0.64125, -0.9937744, 0.64125, -0.2345581, 0.64125, 1.1068702, 0.64125, 1.0992366, 0.64125, -3
0.0762353, -0.0135958, 0.648, 0.105896, 0.648, -0.994873, 0.648, -0.2335815, 0.648, 1.1832061, 0.648, 1.1755725, 0.648, -3.0610688
0.0770294, -0.014435, 0.65475, 0.1028442, 0.65475, -0.9957886, 0.65475, -0.2376099, 0.65475, 1.1526718, 0.65475, 1.2137405, 0.65475, -3.0839694
0.0778235, -0.0127565, 0.6615, 0.0990601, 0.6615, -0.9924927, 0.6615, -0.2404785, 0.6615, 0.9770992, 0.6615, 1.389313, 0.6615, -3.0763359
0.0786176, -0.008896, 0.66825, 0.0999756, 0.66825, -0.9916992, 0.66825, -0.2373047, 0.66825, 0.9541985, 0.66825, 1.3129771, 0.66825, -3.3358779
0.0794118, -0.0095674, 0.675, 0.1020508, 0.675, -0.9915771, 0.675, -0.237854, 0.675, 0.9007633, 0.675, 1.038168, 0.675, -3.1908398
0.0802059, -0.0149386, 0.68175, 0.1044312, 0.68175, -0.9941406, 0.68175, -0.2365723, 0.68175, 0.7328244, 0.68175, 0.8549618, 0.68175, -3.0992367
0.081, -0.0146029, 0.6885, 0.1074219, 0.6885, -0.9931641, 0.6885, -0.2389526, 0.6885, 0.8396947, 0.6885, 0.7175573, 0.6885, -3.0992367
0.0817941, -0.0193027, 0.69525, 0.1071777, 0.69525, -0.9912109, 0.69525, -0.2370605, 0.69525, 0.610687, 0.69525, 1, 0.69525, -2.9923663
0.0825882, -0.0223239, 0.702, 0.1018066, 0.702, -0.9928589, 0.702, -0.2403564, 0.702, 0.740458, 0.702, 1.2519084, 0.702, -2.9236641
0.0833824, -0.0186313, 0.70875, 0.1018677, 0.70875, -0.9956665, 0.70875, -0.2330933, 0.70875, 0.9236641, 0.70875, 1.0992366, 0.70875, -2.8625953
0.0841765, -0.0191348, 0.7155, 0.1039429, 0.7155, -0.993042, 0.7155, -0.2324219, 0.7155, 1.0076336, 0.7155, 0.908397, 0.7155, -3.0076337
0.0849706, -0.0216526, 0.72225, 0.0993652, 0.72225, -0.9912109, 0.72225, -0.2319336, 0.72225, 1.091603, 0.72225, 0.778626, 0.72225, -2.9770992
0.0857647, -0.0184634, 0.729, 0.1008301, 0.729, -0.9936523, 0.729, -0.2305908, 0.729, 0.8549618, 0.729, 0.7938932, 0.729, -2.8778627
0.0865588, -0.0157778, 0.73575, 0.1032715, 0.73575, -0.9918823, 0.73575, -0.2372437, 0.73575, 0.8473282, 0.73575, 0.7099237, 0.73575, -3.038168
0.0873529, -0.0152743, 0.7425, 0.1043701, 0.7425, -0.9907837, 0.7425, -0.2369385, 0.7425, 0.6412213, 0.7425, 0.9770992, 0.7425, -2.961832
0.0881471, -0.0137636, 0.74925, 0.1115723, 0.74925, -0.9928589, 0.74925, -0.2365112, 0.74925, 0.4503817, 0.74925, 1.3053435, 0.74925, -2.8473282
0.0889412, -0.014435, 0.756, 0.1121826, 0.756, -0.9916382, 0.756, -0.2342529, 0.756, -0.1984733, 0.756, 1.389313, 0.756, -2.7099237
0.0897353, -0.012253, 0.76275, 0.1135254, 0.76275, -0.991272, 0.76275, -0.2351074, 0.76275, -0.6564885, 0.76275, 2.0534351, 0.76275, -2.5725191
0.0905294, -0.0105745, 0.7695, 0.1121826, 0.7695, -0.9899292, 0.7695, -0.2342529, 0.7695, -0.6412213, 0.7695, 2.5419848, 0.7695, -2.5801528
0.0913235, -0.0109102, 0.77625, 0.1100464, 0.77625, -0.9908447, 0.77625, -0.234314, 0.77625, -0.7175573, 0.77625, 2.9770992, 0.77625, -2.3129771
0.0921176, -0.0109102, 0.783, 0.1054688, 0.783, -0.9968262, 0.783, -0.2371826, 0.783, -0.4503817, 0.783, 3.0076337, 0.783, -2.2671757
0.0929118, -0.0115816, 0.78975, 0.102478, 0.78975, -0.9934082, 0.78975, -0.2409668, 0.78975, -0.2900763, 0.78975, 2.5648854, 0.78975, -2.4045801
0.0937059, -0.0157778, 0.7965, 0.1018677, 0.7965, -0.992981, 0.7965, -0.2418213, 0.7965, -0.480916, 0.7965, 2.4274809, 0.7965, -2.4885497
0.0945, -0.0149386, 0.80325, 0.1037598, 0.80325, -0.9887085, 0.80325, -0.234375, 0.80325, -0.4961832, 0.80325, 2.4580152, 0.80325, -2.3664122
0.0952941, -0.0129244, 0.81, 0.1082153, 0.81, -0.9920044, 0.81, -0.2322998, 0.81, -0.4503817, 0.81, 2.7022901, 0.81, -2.2671757
0.0960882, -0.0105745, 0.81675, 0.1044922, 0.81675, -0.9904785, 0.81675, -0.2366943, 0.81675, -0.3969466, 0.81675, 2.6641221, 0.81675, -2.1984732
0.0968824, -0.0095674, 0.8235, 0.0995483, 0.8235, -0.9887695, 0.8235, -0.2391968, 0.8235, -0.221374, 0.8235, 2.3969467, 0.8235, -2.3664122
0.0976765, -0.012253, 0.83025, 0.0952148, 0.83025, -0.9900513, 0.83025, -0.2354736, 0.83025, -0.221374, 0.83025, 1.9847329, 0.83025, -2.2900763
0.0984706, -0.0119173, 0.837, 0.0990601, 0.837, -0.9916992, 0.837, -0.2366943, 0.837, 0.1450382, 0.837, 1.8396946, 0.837, -2.2671757
0.0992647, -0.0157778, 0.84375, 0.0999146, 0.84375, -0.9932861, 0.84375, -0.2316895, 0.84375, 0.129771, 0.84375, 1.740458, 0.84375, -2.2061069
0.1000588, -0.0176242, 0.8505, 0.1016235, 0.8505, -0.993103, 0.8505, -0.2328491, 0.8505, 0.480916, 0.8505, 2.1145039, 0.8505, -2.4198472
0.1008529, -0.0176242, 0.85725, 0.1025391, 0.85725, -0.9892578, 0.85725, -0.2358398, 0.85725, 0.6564885, 0.85725, 1.8778626, 0.85725, -2.5114503
0.1016471, -0.0196384, 0.864, 0.0980835, 0.864, -0.9927368, 0.864, -0.2363281, 0.864, 0.870229, 0.864, 1.6641221, 0.864, -2.6183207
0.1024412, -0.0196384, 0.87075, 0.0960083, 0.87075, -0.9925537, 0.87075, -0.2374268, 0.87075, 0.7862595, 0.87075, 1.6335878, 0.87075, -2.5038168
0.1032353, -0.0169528, 0.8775, 0.0982056, 0.8775, -0.9915771, 0.8775, -0.2370605, 0.8775, 0.6183206, 0.8775, 1.3816794, 0.8775, -2.7175572
0.1040294, -0.0125887, 0.88425, 0.098877, 0.88425, -0.9896851, 0.88425, -0.237854, 0.88425, 0.6946565, 0.88425, 1.480916, 0.88425, -2.7251909
0.1048235, -0.0130922, 0.891, 0.0984497, 0.891, -0.9870605, 0.891, -0.2385254, 0.891, 0.6793893, 0.891, 0.9770992, 0.891, -2.6641221
0.1056176, -0.0169528, 0.89775, 0.1017456, 0.89775, -0.9922485, 0.89775, -0.2294922, 0.89775, 0.5343512, 0.89775, 0.5419847, 0.89775, -2.9312978
0.1064118, -0.0159457, 0.9045, 0.1015015, 0.9045, -0.9910278, 0.9045, -0.2335815, 0.9045, 0.3587786, 0.9045, 0.5572519, 0.9045, -3.0458016
0.1072059, -0.0139315, 0.91125, 0.1009521, 0.91125, -0.9935303, 0.91125, -0.2295532, 0.91125, 0.2442748, 0.91125, 0.9007633, 0.91125, -3.0610688
0.108, -0.0095674, 0.918, 0.0983887, 0.918, -0.9927979, 0.918, -0.2321167, 0.918, 0.3358779, 0.918, 1.5954199, 0.918, -3.1603053
0.1087941, -0.0077211, 0.92475, 0.0979004, 0.92475, -0.9916382, 0.92475, -0.2366333, 0.92475, -0.1068702, 0.92475, 1.610687, 0.92475, -3.3587787
0.1095882, -0.0139315, 0.9315, 0.0942383, 0.9315, -0.9914551, 0.9315, -0.2342529, 0.9315, -0.5267175, 0.9315, 1.6183206, 0.9315, -3.2519083
0.1103824, -0.0179599, 0.93825, 0.0974121, 0.93825, -0.9924316, 0.93825, -0.2337646, 0.93825, -0.5725191, 0.93825, 1.6870229, 0.93825, -3.221374
0.1111765, -0.014435, 0.945, 0.1017456, 0.945, -0.9938965, 0.945, -0.2322998, 0.945, -0.2900763, 0.945, 1.5725191, 0.945, -3.3129771
0.1119706, -0.0142672, 0.95175, 0.1054688, 0.95175, -0.9910278, 0.95175, -0.237915, 0.95175, -0.0687023, 0.95175, 1.6793894, 0.95175, -3.2137403
0.1127647, -0.0119173, 0.9585, 0.1069336, 0.9585, -0.989502, 0.9585, -0.239563, 0.9585, -0.389313, 0.9585, 1.9694656, 0.9585, -3.129771
0.1135588, -0.0135958, 0.96525, 0.1092529, 0.96525, -0.9909668, 0.96525, -0.239624, 0.96525, -0.5038168, 0.96525, 2.221374, 0.96525, -3.0839694
0.1143529, -0.0152743, 0.972, 0.1068726, 0.972, -0.9916992, 0.972, -0.2401733, 0.972, -0.1755725, 0.972, 2.0458016, 0.972, -3.2366412
0.1151471, -0.018967, 0.97875, 0.0993042, 0.97875, -0.9931641, 0.97875, -0.2445068, 0.97875, -0.1068702, 0.97875, 1.9312977, 0.97875, -3.0763359
0.1159412, -0.0270237, 0.9855, 0.1011963, 0.9855, -0.9919434, 0.9855, -0.2415771, 0.9855, 0.2442748, 0.9855, 1.8244275, 0.9855, -2.8854961
0.1167353, -0.0310521, 0.99225, 0.1010132, 0.99225, -0.9898071, 0.99225, -0.2406616, 0.99225, 0.4656489, 0.99225, 1.610687, 0.99225, -3.1068702
0.1175294, -0.0310521, 0.999, 0.0948486, 0.999, -0.9902344, 0.999, -0.246521, 0.999, 0.5419847, 0.999, 1.4732825, 0.999, -3.1679389
0.1183235, -0.0265202, 1.00575, 0.0915527, 1.00575, -0.9922485, 1.00575, -0.2409058, 1.00575, 0.3664122, 1.00575, 0.9847328, 1.00575, -3.2442749
0.1191176, -0.0221561, 1.0125, 0.0933838, 1.0125, -0.9951782, 1.0125, -0.237793, 1.0125, 0.2137405, 1.0125, 0.3816794, 1.0125, -3.4122138
0.1199118, -0.0203098, 1.01925, 0.0968018, 1.01925, -0.9927368, 1.01925, -0.2364502, 1.01925, 0.3206107, 1.01925, 0.221374, 1.01925, -3.4045801
0.1207059, -0.0194705, 1.026, 0.0963135, 1.026, -0.9914551, 1.026, -0.2341309, 1.026, 0.4885496, 1.026, 0.2442748, 1.026, -3.5496182
0.1215, -0.0152743, 1.03275, 0.1009521, 1.03275, -0.9949341, 1.03275, -0.2355957, 1.03275, 0.3969466, 1.03275, 0.3816794, 1.03275, -3.4198472
0.1222941, -0.0139315, 1.0395, 0.1069336, 1.0395, -0.9961548, 1.0395, -0.2351685, 1.0395, 0.3740458, 1.0395, 0.4656489, 1.0395, -3.2671757
0.1230882, -0.0125887, 1.04625, 0.1054688, 1.04625, -0.9934692, 1.04625, -0.2335205, 1.04625, 0.5877863, 1.04625, 0.8473282, 1.04625, -3.5038168
0.1238824, -0.010071, 1.053, 0.104187, 1.053, -0.9901123, 1.053, -0.2390137, 1.053, 0.6259542, 1.053, 1.1450381, 1.053, -3.4198472
0.1246765, -0.0109102, 1.05975, 0.1027222, 1.05975, -0.9887695, 1.05975, -0.2391968, 1.05975, 0.7709923, 1.05975, 1.3664122, 1.05975, -3.2519083
0.1254706, -0.0132601, 1.0665, 0.0999756, 1.0665, -0.9893799, 1.0665, -0.2410889, 1.0665, 0.8320611, 1.0665, 1.3053435, 1.0665, -3.2519083
0.1262647, -0.0125887, 1.07325, 0.0969238, 1.07325, -0.9907227, 1.07325, -0.2393799, 1.07325, 0.778626, 1.07325, 1.2290076, 1.07325, -3.4122138
0.1270588, -0.0152743, 1.08, 0.0963745, 1.08, -0.9900513, 1.08, -0.2397461, 1.08, 0.9541985, 1.08, 1.1908396, 1.08, -3.5419848
0.1278529, -0.0135958, 1.08675, 0.095459, 1.08675, -0.991333, 1.08675, -0.2404175, 1.08675, 0.7862595, 1.08675, 0.7251908, 1.08675, -3.4885497
0.1286471, -0.0152743, 1.0935, 0.0934448, 1.0935, -0.9894409, 1.0935, -0.2376099, 1.0935, 0.6030535, 1.0935, 0.0687023, 1.0935, -3.6641221
0.1294412, -0.0203098, 1.10025, 0.0955811, 1.10025, -0.9916382, 1.10025, -0.2414551, 1.10025, 0.9160305, 1.10025, -0.0229008, 1.10025, -3.7557251
0.1302353, -0.0204776, 1.107, 0.0957642, 1.107, -0.991394, 1.107, -0.2349243, 1.107, 0.8167939, 1.107, 0.0381679, 1.107, -3.7099237
0.1310294, -0.0196384, 1.11375, 0.0988159, 1.11375, -0.9927368, 1.11375, -0.2348633, 1.11375, 1.0610687, 1.11375, -0.0763359, 1.11375, -3.8931298
0.1318235, -0.0181277, 1.1205, 0.0985107, 1.1205, -0.9935303, 1.1205, -0.2358398, 1.1205, 1.0305344, 1.1205, -0.0229008, 1.1205, -3.8473282
0.1326176, -0.0099031, 1.12725, 0.1057739, 1.12725, -0.9931641, 1.12725, -0.2332764, 1.12725, 0.9847328, 1.12725, 0.2671756, 1.12725, -3.9847329
0.1334118, -0.0099031, 1.134, 0.104187, 1.134, -0.9920654, 1.134, -0.2346802, 1.134, 1.0152671, 1.134, 0.5038168, 1.134, -3.7938931
0.1342059, -0.0223239, 1.14075, 0.1021118, 1.14075, -0.9940186, 1.14075, -0.2388916, 1.14075, 1.1068702, 1.14075, 0.648855, 1.14075, -3.6564887
0.135, -0.0293736, 1.1475, 0.1070557, 1.1475, -0.9935303, 1.1475, -0.241272, 1.1475, 1.1679389, 1.1475, 0.8625954, 1.1475, -3.5725191
0.1357941, -0.0229953, 1.15425, 0.1036987, 1.15425, -0.9909058, 1.15425, -0.2384644, 1.15425, 1.1526718, 1.15425, 0.8396947, 1.15425, -3.8167939
0.1365882, -0.01561, 1.161, 0.105835, 1.161, -0.989563, 1.161, -0.2440186, 1.161, 1.091603, 1.161, 0.7709923, 1.161, -3.7251909
0.1373824, -0.0117494, 1.16775, 0.1053467, 1.16775, -0.9901123, 1.16775, -0.2479858, 1.16775, 1.0687023, 1.16775, 0.740458, 1.16775, -3.6259542
0.1381765, -0.0119173, 1.1745, 0.1019897, 1.1745, -0.991333, 1.1745, -0.2468262, 1.1745, 1.0076336, 1.1745, 0.5419847, 1.1745, -3.9541984
0.1389706, -0.008896, 1.18125, 0.1019897, 1.18125, -0.9907227, 1.18125, -0.2457275, 1.18125, 0.7099237, 1.18125, 0.2977099, 1.18125, -3.740458
0.1397647, -0.0085603, 1.188, 0.1027222, 1.188, -0.991333, 1.188, -0.2433472, 1.188, 0.7480916, 1.188, 0.3816794, 1.188, -3.7862597
0.1405588, -0.0078889, 1.19475, 0.1037598, 1.19475, -0.9937744, 1.19475, -0.2400513, 1.19475, 0.7251908, 1.19475, 0.4045801, 1.19475, -3.7862597
0.1413529, -0.0058747, 1.2015, 0.1038818, 1.2015, -0.9920654, 1.2015, -0.2410889, 1.2015, 1.0992366, 1.2015, 0.1755725, 1.2015, -3.7938931
0.1421471, -0.0023499, 1.20825, 0.1035156, 1.20825, -0.9921265, 1.20825, -0.2417603, 1.20825, 0.9160305, 1.20825, 0.1221374, 1.20825, -3.6793892
0.1429412, -0.0035248, 1.215, 0.1045532, 1.215, -0.9914551, 1.215, -0.2369995, 1.215, 1.0763359, 1.215, 0.2290076, 1.215, -3.648855
0.1437353, -0.0041962, 1.22175, 0.1044312, 1.22175, -0.9898071, 1.22175, -0.2342529, 1.22175, 0.9160305, 1.22175, 0.3740458, 1.22175, -3.8320611
0.1445294, -0.0070497, 1.2285, 0.1033936, 1.2285, -0.9912109, 1.2285, -0.2379761, 1.2285, 0.8244275, 1.2285, 0.4198473, 1.2285, -3.5267177
0.1453235, -0.0072175, 1.23525, 0.1034546, 1.23525, -0.9934082, 1.23525, -0.241272, 1.23525, 0.8015267, 1.23525, 0.480916, 1.23525, -3.6870229
0.1461176, -0.0070497, 1.242, 0.1029053, 1.242, -0.9926758, 1.242, -0.241272, 1.242, 0.8396947, 1.242, 0.4045801, 1.242, -3.5954199
0.1469118, -0.0083925, 1.24875, 0.1014404, 1.24875, -0.9922485, 1.24875, -0.2435913, 1.24875, 1.0076336, 1.24875, 0.6412213, 1.24875, -3.6259542
0.1477059, -0.0068818, 1.2555, 0.1018677, 1.2555, -0.993103, 1.2555, -0.2402344, 1.2555, 1.0534351, 1.2555, 0.740458, 1.2555, -3.5419848
0.1485, -0.0062104, 1.26225, 0.0994873, 1.26225, -0.9898071, 1.26225, -0.2380371, 1.26225, 0.8931298, 1.26225, 0.6641222, 1.26225, -3.5648854
0.1492941, -0.0104067, 1.269, 0.1010132, 1.269, -0.987854, 1.269, -0.2394409, 1.269, 0.8778626, 1.269, 0.5801527, 1.269, -3.6717558
0.1500882, -0.0137636, 1.27575, 0.1060791, 1.27575, -0.9908447, 1.27575, -0.2409668, 1.27575, 1.0229008, 1.27575, 0.351145, 1.27575, -3.870229
0.1508824, -0.0109102, 1.2825, 0.1013184, 1.2825, -0.9924316, 1.2825, -0.2396851, 1.2825, 1.0076336, 1.2825, 0.519084, 1.2825, -3.7633588
0.1516765, -0.0129244, 1.28925, 0.1048584, 1.28925, -0.9910278, 1.28925, -0.2420044, 1.28925, 1.038168, 1.28925, 0.6717557, 1.28925, -3.6030533
0.1524706, -0.014435, 1.296, 0.1055908, 1.296, -0.9897461, 1.296, -0.243042, 1.296, 0.9389313, 1.296, 0.7557252, 1.296, -3.6870229
0.1532647, -0.0105745, 1.30275, 0.1067505, 1.30275, -0.9881592, 1.30275, -0.2463379, 1.30275, 1.0305344, 1.30275, 0.7251908, 1.30275, -3.5343511
0.1540588, -0.012253, 1.3095, 0.1100464, 1.3095, -0.9893799, 1.3095, -0.242981, 1.3095, 1.0534351, 1.3095, 0.1526718, 1.3095, -3.6412213
0.1548529, -0.0149386, 1.31625, 0.1080322, 1.31625, -0.992981, 1.31625, -0.239624, 1.31625, 1.0839695, 1.31625, 0, 1.31625, -3.4503818
0.1556471, -0.0182956, 1.323, 0.1088257, 1.323, -0.9951172, 1.323, -0.2397461, 1.323, 1.259542, 1.323, 0.0763359, 1.323, -3.5496182
0.1564412, -0.0146029, 1.32975, 0.1083984, 1.32975, -0.9967651, 1.32975, -0.2380371, 1.32975, 1.389313, 1.32975, 0.1450382, 1.32975, -3.6335878
0.1572353, -0.0166171, 1.3365, 0.1066895, 1.3365, -0.991333, 1.3365, -0.2408447, 1.3365, 1.389313, 1.3365, 0.3816794, 1.3365, -3.7938931
0.1580294, -0.0179599, 1.34325, 0.102356, 1.34325, -0.9905396, 1.34325, -0.2392578, 1.34325, 1.2977099, 1.34325, 0.5114504, 1.34325, -3.6412213
0.1588235, -0.0149386, 1.35, 0.1021729, 1.35, -0.9945068, 1.35, -0.2351685, 1.35, 1.4885496, 1.35, 0.3740458, 1.35, -3.5572519
0.1596176, -0.0124208, 1.35675, 0.1070557, 1.35675, -0.9902954, 1.35675, -0.2388306, 1.35675, 1.5954199, 1.35675, 0.3129771, 1.35675, -3.519084
0.1604118, -0.014435, 1.3635, 0.104248, 1.3635, -0.9935913, 1.3635, -0.2396851, 1.3635, 1.778626, 1.3635, 0.3206107, 1.3635, -3.4198472
0.1612059, -0.0142672, 1.37025, 0.1050415, 1.37025, -0.9916382, 1.37025, -0.239624, 1.37025, 1.7480916, 1.37025, 0.4427481, 1.37025, -3.610687
0.162, -0.0164492, 1.377, 0.098999, 1.377, -0.9921265, 1.377, -0.2437134, 1.377, 1.6870229, 1.377, 0.5038168, 1.377, -3.5038168
0.1627941, -0.0176242, 1.38375, 0.1005859, 1.38375, -0.9902954, 1.38375, -0.237854, 1.38375, 1.6259542, 1.38375, 0.3664122, 1.38375, -3.389313
0.1635882, -0.0243381, 1.3905, 0.1008911, 1.3905, -0.9940186, 1.3905, -0.237915, 1.3905, 1.740458, 1.3905, 0.259542, 1.3905, -3.4045801
0.1643824, -0.0270237, 1.39725, 0.1021118, 1.39725, -0.9932251, 1.39725, -0.236145, 1.39725, 1.740458, 1.39725, 0.0229008, 1.39725, -3.2671757
0.1651765, -0.0219883, 1.404, 0.1055908, 1.404, -0.9932251, 1.404, -0.2351685, 1.404, 1.6335878, 1.404, 0.0381679, 1.404, -3.6793892
0.1659706, -0.0223239, 1.41075, 0.1072388, 1.41075, -0.9893188, 1.41075, -0.2357178, 1.41075, 1.3664122, 1.41075, 0.3282443, 1.41075, -3.5267177
0.1667647, -0.0229953, 1.4175, 0.1040649, 1.4175, -0.9893188, 1.4175, -0.2369995, 1.4175, 1.4045801, 1.4175, 0.4198473, 1.4175, -3.3969467
0.1675588, -0.0229953, 1.42425, 0.1034546, 1.42425, -0.9908447, 1.42425, -0.2371826, 1.42425, 1.1374046, 1.42425, 0.3206107, 1.42425, -3.3664122
0.1683529, -0.0270237, 1.431, 0.1060181, 1.431, -0.9893188, 1.431, -0.2440186, 1.431, 1.0534351, 1.431, 0.1374046, 1.431, -3.2900763
0.1691471, -0.0263523, 1.43775, 0.1064453, 1.43775, -0.9902344, 1.43775, -0.2334595, 1.43775, 0.8931298, 1.43775, 0.2137405, 1.43775, -3.2290077
0.1699412, -0.023331, 1.4445, 0.1113892, 1.4445, -0.9899292, 1.4445, -0.2362671, 1.4445, 0.6335878, 1.4445, 0.4961832, 1.4445, -3.0763359
0.1707353, -0.0176242, 1.45125, 0.1091919, 1.45125, -0.9891968, 1.45125, -0.2373047, 1.45125, 0.7175573, 1.45125, 0.5801527, 1.45125, -2.9923663
0.1715294, -0.0169528, 1.458, 0.1107178, 1.458, -0.9921875, 1.458, -0.2359619, 1.458, 0.6870229, 1.458, 1.1603054, 1.458, -2.9236641
0.1723235, -0.0130922, 1.46475, 0.107605, 1.46475, -0.9966431, 1.46475, -0.2333374, 1.46475, 0.9236641, 1.46475, 0.9236641, 1.46475, -2.9694657
0.1731176, -0.0082246, 1.4715, 0.1083984, 1.4715, -0.9953003, 1.4715, -0.2363892, 1.4715, 1.2900764, 1.4715, 0.9847328, 1.4715, -3.0152671
0.1739118, -0.0104067, 1.47825, 0.1078491, 1.47825, -0.9940186, 1.47825, -0.2415161, 1.47825, 1.0687023, 1.47825, 0.9160305, 1.47825, -3.0763359
0.1747059, -0.0109102, 1.485, 0.102478, 1.485, -0.9918213, 1.485, -0.2416992, 1.485, 0.9236641, 1.485, 0.7557252, 1.485, -2.9160306
0.1755, -0.012253, 1.49175, 0.1085815, 1.49175, -0.9901123, 1.49175, -0.2348633, 1.49175, 0.5877863, 1.49175, 0.9160305, 1.49175, -2.8244274
0.1762941, -0.0095674, 1.4985, 0.1072388, 1.4985, -0.9925537, 1.4985, -0.2403564, 1.4985, 0.648855, 1.4985, 1.2519084, 1.4985, -2.8320611
0.1770882, -0.0063783, 1.50525, 0.1026001, 1.50525, -0.9918823, 1.50525, -0.2466431, 1.50525, 0.4961832, 1.50525, 1.2366412, 1.50525, -2.7862597
0.1778824, -0.0109102, 1.512, 0.1052856, 1.512, -0.9922485, 1.512, -0.2428589, 1.512, 0.2977099, 1.512, 0.8625954, 1.512, -3
0.1786765, -0.0127565, 1.51875, 0.1083374, 1.51875, -0.9920044, 1.51875, -0.2366943, 1.51875, -0.0992366, 1.51875, 0.9694657, 1.51875, -2.8091602
0.1794706, -0.0137636, 1.5255, 0.1097412, 1.5255, -0.9955444, 1.5255, -0.2390137, 1.5255, 0.1068702, 1.5255, 1.2748091, 1.5255, -2.7328243
0.1802647, -0.018967, 1.53225, 0.1098633, 1.53225, -0.9921265, 1.53225, -0.2436523, 1.53225, 0.2442748, 1.53225, 1.519084, 1.53225, -2.7480917
0.1810588, -0.0162814, 1.539, 0.1077271, 1.539, -0.989502, 1.539, -0.2398071, 1.539, 0.1221374, 1.539, 1.908397, 1.539, -2.7633588
0.1818529, -0.0198062, 1.54575, 0.1015625, 1.54575, -0.9923706, 1.54575, -0.2380371, 1.54575, 0.2519084, 1.54575, 1.9007634, 1.54575, -2.6564887
0.1826471, -0.0184634, 1.5525, 0.100769, 1.5525, -0.9942017, 1.5525, -0.2383423, 1.5525, 0.1603053, 1.5525, 1.610687, 1.5525, -2.6793892
0.1834412, -0.0139315, 1.55925, 0.1039429, 1.55925, -0.9932251, 1.55925, -0.2375488, 1.55925, 0.1755725, 1.55925, 2.0534351, 1.55925, -2.6183207
0.1842353, -0.0152743, 1.566, 0.1019897, 1.566, -0.9927979, 1.566, -0.2352905, 1.566, 0.1221374, 1.566, 2.2519083, 1.566, -2.5496182
0.1850294, -0.0196384, 1.57275, 0.1014404, 1.57275, -0.9903564, 1.57275, -0.2351685, 1.57275, 0.0076336, 1.57275, 2.2824428, 1.57275, -2.4732823
0.1858235, -0.018967, 1.5795, 0.1090088, 1.5795, -0.9920654, 1.5795, -0.2404785, 1.5795, -0.0076336, 1.5795, 2.389313, 1.5795, -2.2519083
0.1866176, -0.018967, 1.58625, 0.109436, 1.58625, -0.991272, 1.58625, -0.243042, 1.58625, -0.1145038, 1.58625, 2.7022901, 1.58625, -2.2900763
0.1874118, -0.018967, 1.593, 0.1119995, 1.593, -0.9892578, 1.593, -0.2366333, 1.593, -0.351145, 1.593, 2.7938931, 1.593, -2.2824428
0.1882059, -0.0176242, 1.59975, 0.1144409, 1.59975, -0.9892578, 1.59975, -0.2387695, 1.59975, -0.519084, 1.59975, 3.1984732, 1.59975, -1.9770992
0.189, -0.014435, 1.6065, 0.1130371, 1.6065, -0.9940186, 1.6065, -0.2478027, 1.6065, -0.2061069, 1.6065, 3.4656489, 1.6065, -2.1526718
0.1897941, -0.0149386, 1.61325, 0.1118774, 1.61325, -0.9932861, 1.61325, -0.2504883, 1.61325, -0.5954198, 1.61325, 3.6183207, 1.61325, -2.038168
0.1905882, -0.0132601, 1.62, 0.1097412, 1.62, -0.9904175, 1.62, -0.2504272, 1.62, -1.0229008, 1.62, 3.091603, 1.62, -1.8549619
0.1913824, -0.0102388, 1.62675, 0.1038208, 1.62675, -0.987854, 1.62675, -0.2467041, 1.62675, -1.1984733, 1.62675, 2.6870229, 1.62675, -1.7938931
0.1921765, -0.008896, 1.6335, 0.1009521, 1.6335, -0.9919434, 1.6335, -0.2416382, 1.6335, -1.0152671, 1.6335, 2.740458, 1.6335, -1.6564885
0.1929706, -0.0102388, 1.64025, 0.1016235, 1.64025, -0.996521, 1.64025, -0.2456055, 1.64025, -0.9847328, 1.64025, 2.648855, 1.64025, -1.6564885
0.1937647, -0.0115816, 1.647, 0.0983887, 1.647, -0.993042, 1.647, -0.2491455, 1.647, -1.038168, 1.647, 2.1068702, 1.647, -1.8320611
0.1945588, -0.01561, 1.65375, 0.0970459, 1.65375, -0.9905396, 1.65375, -0.2462158, 1.65375, -1.1679389, 1.65375, 1.8015267, 1.65375, -1.778626
0.1953529, -0.0176242, 1.6605, 0.1005249, 1.6605, -0.9917603, 1.6605, -0.2466431, 1.6605, -1.4351145, 1.6605, 1.519084, 1.6605, -1.8854961
0.1961471, -0.0182956, 1.66725, 0.1088867, 1.66725, -0.9906616, 1.66725, -0.2368774, 1.66725, -1.870229, 1.66725, 1.3816794, 1.66725, -1.7709924
0.1969412, -0.0112459, 1.674, 0.1172485, 1.674, -0.9942017, 1.674, -0.2435303, 1.674, -1.4351145, 1.674, 0.9236641, 1.674, -1.7862595
0.1977353, -0.0117494, 1.68075, 0.1158447, 1.68075, -0.9949951, 1.68075, -0.2404785, 1.68075, -2.4427481, 1.68075, 2.0992367, 1.68075, -1.7175573
0.1985294, -0.0213169, 1.6875, 0.1127319, 1.6875, -0.994812, 1.6875, -0.2385864, 1.6875, -2.6793892, 1.6875, 2.7862597, 1.6875, -1.3740458
0.1993235, -0.0246738, 1.69425, 0.1105347, 1.69425, -0.993103, 1.69425, -0.2471924, 1.69425, -2.1908398, 1.69425, 2.4427481, 1.69425, -1.3282443
0.2001176, -0.0203098, 1.701, 0.0998535, 1.701, -0.9907227, 1.701, -0.2501221, 1.701, -2.0305343, 1.701, 2.1755726, 1.701, -1.6259542
0.2009118, -0.0203098, 1.70775, 0.0969238, 1.70775, -0.9903564, 1.70775, -0.2470093, 1.70775, -2.0610688, 1.70775, 1.1755725, 1.70775, -1.8091604
0.2017059, -0.0176242, 1.7145, 0.0957642, 1.7145, -0.9896851, 1.7145, -0.2385864, 1.7145, -1.5954199, 1.7145, 0.9465649, 1.7145, -1.7175573
0.2025, -0.0129244, 1.72125, 0.0964966, 1.72125, -0.9884033, 1.72125, -0.2351685, 1.72125, -1.1832061, 1.72125, 1.389313, 1.72125, -1.7328244
0.2032941, -0.008896, 1.728, 0.0974731, 1.728, -0.9889526, 1.728, -0.2440796, 1.728, -0.7175573, 1.728, 1.1374046, 1.728, -1.778626
0.2040882, -0.0057069, 1.73475, 0.097168, 1.73475, -0.9884033, 1.73475, -0.2487793, 1.73475, -0.2977099, 1.73475, 0.8625954, 1.73475, -1.9236641
0.2048824, -0.0099031, 1.7415, 0.0971069, 1.7415, -0.9848633, 1.7415, -0.2418823, 1.7415, -0.6183206, 1.7415, 1.1221374, 1.7415, -2.0687022
0.2056765, -0.0099031, 1.74825, 0.0952148, 1.74825, -0.9869995, 1.74825, -0.2431641, 1.74825, -0.5114504, 1.74825, 1.091603, 1.74825, -2.1145039
0.2064706, -0.0075532, 1.755, 0.0905151, 1.755, -0.9903564, 1.755, -0.2392578, 1.755, -0.778626, 1.755, 0.9389313, 1.755, -2.3053436
0.2072647, -0.0065461, 1.76175, 0.0915527, 1.76175, -0.9898682, 1.76175, -0.2342529, 1.76175, -0.610687, 1.76175, 1.1908396, 1.76175, -2.648855
0.2080588, -0.0082246, 1.7685, 0.0977783, 1.7685, -0.9927368, 1.7685, -0.2330933, 1.7685, -0.9389313, 1.7685, 2.6259542, 1.7685, -2.4122138
0.2088529, -0.0102388, 1.77525, 0.0997314, 1.77525, -0.9938965, 1.77525, -0.2346802, 1.77525, -0.961832, 1.77525, 3.3740458, 1.77525, -2.2824428
0.2096471, -0.0105745, 1.782, 0.1008911, 1.782, -0.9921875, 1.782, -0.2382812, 1.782, -1.2290076, 1.782, 3.4351146, 1.782, -2.5648854
0.2104412, -0.012253, 1.78875, 0.098938, 1.78875, -0.9936523, 1.78875, -0.2391357, 1.78875, -1.5954199, 1.78875, 4.038168, 1.78875, -2.3053436
0.2112353, -0.0135958, 1.7955, 0.0992432, 1.7955, -0.9932861, 1.7955, -0.2388916, 1.7955, -1.2137405, 1.7955, 4.7709923, 1.7955, -2.2137403
0.2120294, -0.0152743, 1.80225, 0.0982056, 1.80225, -0.9918823, 1.80225, -0.2462769, 1.80225, -0.8473282, 1.80225, 5.1297708, 1.80225, -2.3969467
0.2128235, -0.01561, 1.809, 0.0958252, 1.809, -0.9922485, 1.809, -0.2510986, 1.809, -0.9389313, 1.809, 4.5267177, 1.809, -2.7480917
0.2136176, -0.0132601, 1.81575, 0.0946655, 1.81575, -0.9891357, 1.81575, -0.2510376, 1.81575, -0.7938932, 1.81575, 4.1679387, 1.81575, -2.9923663
0.2144118, -0.0146029, 1.8225, 0.0949707, 1.8225, -0.9906616, 1.8225, -0.2498779, 1.8225, -1.1832061, 1.8225, 4.3587785, 1.8225, -2.9847329
0.2152059, -0.0162814, 1.82925, 0.09198, 1.82925, -0.9888916, 1.82925, -0.2463379, 1.82925, -1.2290076, 1.82925, 5.1068702, 1.82925, -2.8244274
0.216, -0.0179599, 1.836, 0.0979614, 1.836, -0.9922485, 1.836, -0.2462158, 1.836, -1.221374, 1.836, 4.5725193, 1.836, -2.8396947
0.2167941, -0.0198062, 1.84275, 0.0985718, 1.84275, -0.9900513, 1.84275, -0.237915, 1.84275, -1.7328244, 1.84275, 3.8167939, 1.84275, -2.6717558
0.2175882, -0.0154421, 1.8495, 0.0968628, 1.8495, -0.9852295, 1.8495, -0.2454224, 1.8495, -1.3664122, 1.8495, 3.8473282, 1.8495, -2.9847329
0.2183824, -0.0199741, 1.85625, 0.09375, 1.85625, -0.9855347, 1.85625, -0.2532959, 1.85625, -1.961832, 1.85625, 3.0992367, 1.85625, -3.2671757
0.2191765, -0.021149, 1.863, 0.0899658, 1.863, -0.9865723, 1.863, -0.2442017, 1.863, -2.2900763, 1.863, 2.9770992, 1.863, -3.259542
0.2199706, -0.0169528, 1.86975, 0.0863037, 1.86975, -0.9848022, 1.86975, -0.2456665, 1.86975, -2.2977099, 1.86975, 2.5496182, 1.86975, -3.3969467
0.2207647, -0.0171206, 1.8765, 0.0859375, 1.8765, -0.989624, 1.8765, -0.2454834, 1.8765, -2.3053436, 1.8765, 1.7938931, 1.8765, -3.3740458
0.2215588, -0.0159457, 1.88325, 0.0883179, 1.88325, -0.9882202, 1.88325, -0.2427368, 1.88325, -2.2061069, 1.88325, 1.8549619, 1.88325, -3.5038168
0.2223529, -0.0119173, 1.89, 0.0890503, 1.89, -0.987854, 1.89, -0.2427368, 1.89, -2.129771, 1.89, 2.259542, 1.89, -3.480916
0.2231471, -0.0130922, 1.89675, 0.0936279, 1.89675, -0.9820557, 1.89675, -0.2468872, 1.89675, -1.6717557, 1.89675, 2.3740458, 1.89675, -3.480916
0.2239412, -0.0152743, 1.9035, 0.0964966, 1.9035, -0.9846191, 1.9035, -0.2490845, 1.9035, -1.9160305, 1.9035, 2.351145, 1.9035, -3.6030533
0.2247353, -0.0129244, 1.91025, 0.0930176, 1.91025, -0.9846802, 1.91025, -0.2570801, 1.91025, -2.0610688, 1.91025, 2.7480917, 1.91025, -3.6030533
0.2255294, -0.0125887, 1.917, 0.0957031, 1.917, -0.9883423, 1.917, -0.2528687, 1.917, -1.8244275, 1.917, 2.610687, 1.917, -3.7099237
0.2263235, -0.0124208, 1.92375, 0.107605, 1.92375, -0.99646, 1.92375, -0.250061, 1.92375, -1.7022901, 1.92375, 2.3740458, 1.92375, -3.740458
0.2271176, -0.0115816, 1.9305, 0.1094971, 1.9305, -0.9943848, 1.9305, -0.2431641, 1.9305, -1.351145, 1.9305, 2.4274809, 1.9305, -3.6412213
0.2279118, -0.0146029, 1.93725, 0.1091309, 1.93725, -0.9921875, 1.93725, -0.2396851, 1.93725, -1.2977099, 1.93725, 2.8778627, 1.93725, -3.7480917
0.2287059, -0.0159457, 1.944, 0.105957, 1.944, -0.9928589, 1.944, -0.2454834, 1.944, -1.3206106, 1.944, 3.2977099, 1.944, -3.2900763
0.2295, -0.0193027, 1.95075, 0.1087036, 1.95075, -0.9876709, 1.95075, -0.2443237, 1.95075, -1.4122137, 1.95075, 2.9465649, 1.95075, -3.4427481
0.2302941, -0.0182956, 1.9575, 0.1036987, 1.9575, -0.9902344, 1.9575, -0.2513428, 1.9575, -1.8244275, 1.9575, 2.6335878, 1.9575, -3.5725191
0.2310882, -0.0186313, 1.96425, 0.1045532, 1.96425, -0.9894409, 1.96425, -0.2502441, 1.96425, -2.2900763, 1.96425, 2.8244274, 1.96425, -3.6259542
0.2318824, -0.0223239, 1.971, 0.1026611, 1.971, -0.991333, 1.971, -0.253479, 1.971, -2.2900763, 1.971, 2.8778627, 1.971, -3.5267177
0.2326765, -0.0236667, 1.97775, 0.1040649, 1.97775, -0.9899902, 1.97775, -0.2578735, 1.97775, -2.1603053, 1.97775, 2.740458, 1.97775, -3.4198472
0.2334706, -0.0179599, 1.9845, 0.0981445, 1.9845, -0.987915, 1.9845, -0.2533569, 1.9845, -2.2519083, 1.9845, 3.1755726, 1.9845, -3.389313
0.2342647, -0.018967, 1.99125, 0.102356, 1.99125, -0.9859009, 1.99125, -0.2581787, 1.99125, -1.9923664, 1.99125, 3.3587787, 1.99125, -3.0610688
0.2350588, -0.0224918, 1.998, 0.1002197, 1.998, -0.9798584, 1.998, -0.2652588, 1.998, -2.0534351, 1.998, 3.5343511, 1.998, -2.9389312
0.2358529, -0.0176242, 2.00475, 0.0957031, 2.00475, -0.982605, 2.00475, -0.2596436, 2.00475, -2.3282442, 2.00475, 3.1526718, 2.00475, -2.8015268
0.2366471, -0.0152743, 2.0115, 0.0931396, 2.0115, -0.9880371, 2.0115, -0.2675781, 2.0115, -2.038168, 2.0115, 2.8396947, 2.0115, -2.8167939
0.2374412, -0.012253, 2.01825, 0.0926514, 2.01825, -0.989624, 2.01825, -0.2750854, 2.01825, -1.7251909, 2.01825, 2.8549619, 2.01825, -2.8549619
0.2382353, -0.0169528, 2.025, 0.1022949, 2.025, -0.9923096, 2.025, -0.2713013, 2.025, -1.8473282, 2.025, 3.3206108, 2.025, -2.8854961
0.2390294, -0.0199741, 2.03175, 0.1162109, 2.03175, -0.9905396, 2.03175, -0.2738647, 2.03175, -2.2671757, 2.03175, 3.0458016, 2.03175, -3.1374047
0.2398235, -0.0152743, 2.0385, 0.116333, 2.0385, -0.9919434, 2.0385, -0.2628784, 2.0385, -2.4503818, 2.0385, 2.5114503, 2.0385, -3.2977099
0.2406176, -0.0157778, 2.04525, 0.109314, 2.04525, -0.9925537, 2.04525, -0.258728, 2.04525, -2.5496182, 2.04525, 2.2900763, 2.04525, -3.1221373
0.2414118, -0.0142672, 2.052, 0.1063843, 2.052, -0.9943848, 2.052, -0.2515259, 2.052, -2.4351146, 2.052, 2.351145, 2.052, -2.8473282
0.2422059, -0.0109102, 2.05875, 0.1084595, 2.05875, -0.9916992, 2.05875, -0.24823, 2.05875, -1.908397, 2.05875, 2.7175572, 2.05875, -2.7480917
0.243, -0.0159457, 2.0655, 0.1052856, 2.0655, -0.9942017, 2.0655, -0.2458496, 2.0655, -1.3053435, 2.0655, 2.4427481, 2.0655, -2.6870229
0.2437941, -0.0151064, 2.07225, 0.1040039, 2.07225, -0.9902344, 2.07225, -0.2435303, 2.07225, -0.9694657, 2.07225, 2.1145039, 2.07225, -3.0458016
0.2445882, -0.0125887, 2.079, 0.1027832, 2.079, -0.9849243, 2.079, -0.2529297, 2.079, -0.4961832, 2.079, 1.9312977, 2.079, -2.7938931
0.2453824, -0.0129244, 2.08575, 0.1013184, 2.08575, -0.9870605, 2.08575, -0.2547607, 2.08575, -0.8015267, 2.08575, 2.9465649, 2.08575, -2.5801528
0.2461765, -0.0152743, 2.0925, 0.100708, 2.0925, -0.9863892, 2.0925, -0.2474365, 2.0925, -0.7328244, 2.0925, 3.1145039, 2.0925, -2.519084
0.2469706, -0.0167849, 2.09925, 0.0985107, 2.09925, -0.9884033, 2.09925, -0.2468262, 2.09925, -0.1526718, 2.09925, 2.9923663, 2.09925, -2.1908398
0.2477647, -0.01561, 2.106, 0.1030273, 2.106, -0.986145, 2.106, -0.258606, 2.106, -0.3816794, 2.106, 3.610687, 2.106, -2.2366412
0.2485588, -0.0199741, 2.11275, 0.0988159, 2.11275, -0.9857788, 2.11275, -0.2681885, 2.11275, -0.6183206, 2.11275, 4.480916, 2.11275, -2.3206108
0.2493529, -0.0229953, 2.1195, 0.0936279, 2.1195, -0.9879761, 2.1195, -0.2637939, 2.1195, -0.4885496, 2.1195, 4.1221375, 2.1195, -2
0.2501471, -0.0203098, 2.12625, 0.0975952, 2.12625, -0.9918823, 2.12625, -0.2664185, 2.12625, -0.3740458, 2.12625, 4.1297708, 2.12625, -1.9465649
0.2509412, -0.018967, 2.133, 0.0981445, 2.133, -0.9935303, 2.133, -0.2631836, 2.133, -0.6870229, 2.133, 4.3969464, 2.133, -1.9770992
0.2517353, -0.0199741, 2.13975, 0.1018677, 2.13975, -0.9926758, 2.13975, -0.2671509, 2.13975, -0.778626, 2.13975, 4.6946564, 2.13975, -1.9389313
0.2525294, -0.0166171, 2.1465, 0.1018066, 2.1465, -0.9880981, 2.1465, -0.2646484, 2.1465, -0.7022901, 2.1465, 4.4274807, 2.1465, -1.870229
0.2533235, -0.0166171, 2.15325, 0.0975342, 2.15325, -0.986084, 2.15325, -0.2706299, 2.15325, -0.5419847, 2.15325, 4.0458016, 2.15325, -2.0458016
0.2541176, -0.0172885, 2.16, 0.0982666, 2.16, -0.9884033, 2.16, -0.2670898, 2.16, -0.5114504, 2.16, 3.519084, 2.16, -2.1068702
0.2549118, -0.0146029, 2.16675, 0.1047363, 2.16675, -0.9899292, 2.16675, -0.2617188, 2.16675, -0.7862595, 2.16675, 3.6717558, 2.16675, -2.0763359
0.2557059, -0.0146029, 2.1735, 0.105896, 2.1735, -0.9886475, 2.1735, -0.2627563, 2.1735, -0.8778626, 2.1735, 3.4961832, 2.1735, -2.0763359
0.2565, -0.0140993, 2.18025, 0.1094971, 2.18025, -0.9862061, 2.18025, -0.2716675, 2.18025, -1.1755725, 2.18025, 2.9007633, 2.18025, -2.0534351
0.2572941, -0.012253, 2.187, 0.1091919, 2.187, -0.9822998, 2.187, -0.269043, 2.187, -1.6641221, 2.187, 3.0992367, 2.187, -1.9389313
0.2580882, -0.008896, 2.19375, 0.1046753, 2.19375, -0.9870605, 2.19375, -0.2597656, 2.19375, -1.4274809, 2.19375, 2.6946564, 2.19375, -1.9389313
0.2588824, -0.0082246, 2.2005, 0.1052856, 2.2005, -0.9879761, 2.2005, -0.2459106, 2.2005, -1.3664122, 2.2005, 2.7328243, 2.2005, -1.8473282
0.2596765, -0.0082246, 2.20725, 0.1064453, 2.20725, -0.9851074, 2.20725, -0.2508545, 2.20725, -0.9694657, 2.20725, 3.7557251, 2.20725, -1.8473282
0.2604706, -0.0078889, 2.214, 0.1027832, 2.214, -0.9856567, 2.214, -0.2542114, 2.214, -0.8473282, 2.214, 4.5267177, 2.214, -2.0076337
0.2612647, -0.0090639, 2.22075, 0.0927734, 2.22075, -0.9868774, 2.22075, -0.2651367, 2.22075, -0.8549618, 2.22075, 4.8244276, 2.22075, -2.091603
0.2620588, -0.0102388, 2.2275, 0.0970459, 2.2275, -0.9890747, 2.2275, -0.2603149, 2.2275, -1.1908396, 2.2275, 5.2977099, 2.2275, -1.870229
0.2628529, -0.0109102, 2.23425, 0.1033325, 2.23425, -0.9866333, 2.23425, -0.2631226, 2.23425, -1.8015267, 2.23425, 5.9770994, 2.23425, -1.6870229
0.2636471, -0.011078, 2.241, 0.0957642, 2.241, -0.9830322, 2.241, -0.2624512, 2.241, -1.7022901, 2.241, 5.7862597, 2.241, -1.8015267
0.2644412, -0.0129244, 2.24775, 0.0869751, 2.24775, -0.9874878, 2.24775, -0.2579346, 2.24775, -1.7633588, 2.24775, 5.3587785, 2.24775, -2.0229008
0.2652353, -0.0164492, 2.2545, 0.0817871, 2.2545, -0.987793, 2.2545, -0.2590332, 2.2545, -1.3435115, 2.2545, 4.6946564, 2.2545, -2.0763359
0.2660294, -0.0169528, 2.26125, 0.088623, 2.26125, -0.9845581, 2.26125, -0.2563477, 2.26125, -1.2671756, 2.26125, 3.7862597, 2.26125, -2.4427481
0.2668235, -0.01561, 2.268, 0.0909424, 2.268, -0.9835205, 2.268, -0.2623291, 2.268, -1.5267175, 2.268, 3.2900763, 2.268, -2.5725191
0.2676176, -0.012253, 2.27475, 0.0918579, 2.27475, -0.9838257, 2.27475, -0.2695312, 2.27475, -1.870229, 2.27475, 3.2061069, 2.27475, -2.3740458
0.2684118, -0.0124208, 2.2815, 0.100708, 2.2815, -0.9859009, 2.2815, -0.2630005, 2.2815, -2.0458016, 2.2815, 3.1068702, 2.2815, -2.5419848
0.2692059, -0.0129244, 2.28825, 0.1051025, 2.28825, -0.9921265, 2.28825, -0.2614136, 2.28825, -1.7709924, 2.28825, 3.2137403, 2.28825, -2.4885497
0.27, -0.0092317, 2.295, 0.1047363, 2.295, -0.9915771, 2.295, -0.2599487, 2.295, -1.9847329, 2.295, 3.5114503, 2.295, -2.4656489
0.2707941, -0.0099031, 2.30175, 0.0988159, 2.30175, -0.9884033, 2.30175, -0.2681885, 2.30175, -1.8091604, 2.30175, 4.0458016, 2.30175, -2.4732823
0.2715882, -0.012253, 2.3085, 0.1044922, 2.3085, -0.9880981, 2.3085, -0.2692261, 2.3085, -1.6793894, 2.3085, 3.5648854, 2.3085, -2.5954199
0.2723824, -0.012253, 2.31525, 0.1051025, 2.31525, -0.9862671, 2.31525, -0.269165, 2.31525, -1.7022901, 2.31525, 3.0152671, 2.31525, -2.2137403
0.2731765, -0.0109102, 2.322, 0.1082153, 2.322, -0.9844971, 2.322, -0.2714233, 2.322, -1.5801526, 2.322, 3.0458016, 2.322, -2.1984732
0.2739706, -0.0115816, 2.32875, 0.111145, 2.32875, -0.9864502, 2.32875, -0.269104, 2.32875, -1.7938931, 2.32875, 2.4274809, 2.32875, -2.0534351
0.2747647, -0.0085603, 2.3355, 0.1109009, 2.3355, -0.9853516, 2.3355, -0.2651978, 2.3355, -1.3816794, 2.3355, 2.4045801, 2.3355, -2.0839694
0.2755588, -0.0099031, 2.34225, 0.1131592, 2.34225, -0.9918213, 2.34225, -0.2683105, 2.34225, -1.1755725, 2.34225, 3.5419848, 2.34225, -1.6870229
0.2763529, -0.0104067, 2.349, 0.116394, 2.349, -0.9869995, 2.349, -0.2695923, 2.349, -1.091603, 2.349, 3.7099237, 2.349, -1.6030535
0.2771471, -0.0203098, 2.35575, 0.1071167, 2.35575, -0.9875488, 2.35575, -0.2612915, 2.35575, -1.1755725, 2.35575, 3.610687, 2.35575, -1.778626
0.2779412, -0.0229953, 2.3625, 0.0991821, 2.3625, -0.9879761, 2.3625, -0.2583008, 2.3625, -1.2977099, 2.3625, 3.3435113, 2.3625, -1.6717557
0.2787353, -0.0184634, 2.36925, 0.0912476, 2.36925, -0.9937744, 2.36925, -0.2558594, 2.36925, -1.1068702, 2.36925, 3.5648854, 2.36925, -1.8244275
0.2795294, -0.014435, 2.376, 0.0859375, 2.376, -0.9902344, 2.376, -0.2664795, 2.376, -0.7480916, 2.376, 3.5648854, 2.376, -2.1145039
0.2803235, -0.0149386, 2.38275, 0.0822144, 2.38275, -0.9865112, 2.38275, -0.2692871, 2.38275, -0.740458, 2.38275, 2.7557251, 2.38275, -2.519084
0.2811176, -0.0149386, 2.3895, 0.0801392, 2.3895, -0.9840698, 2.3895, -0.2694702, 2.3895, -0.8091603, 2.3895, 1.9236641, 2.3895, -2.5877862
0.2819118, -0.0135958, 2.39625, 0.0847168, 2.39625, -0.986084, 2.39625, -0.2605591, 2.39625, -1.4045801, 2.39625, 1.5114504, 2.39625, -2.6564887
0.2827059, -0.0162814, 2.403, 0.088562, 2.403, -0.9909668, 2.403, -0.2592163, 2.403, -1.7099236, 2.403, 1.5877863, 2.403, -2.7709923
0.2835, -0.0176242, 2.40975, 0.0909424, 2.40975, -0.9890137, 2.40975, -0.2644043, 2.40975, -1.4580153, 2.40975, 1.6335878, 2.40975, -2.8931298
0.2842941, -0.0135958, 2.4165, 0.0958862, 2.4165, -0.9874878, 2.4165, -0.2633667, 2.4165, -2.0229008, 2.4165, 1.7633588, 2.4165, -3.0687022
0.2850882, -0.0135958, 2.42325, 0.0983887, 2.42325, -0.9890747, 2.42325, -0.2617798, 2.42325, -1.9465649, 2.42325, 1.5496184, 2.42325, -2.9694657
0.2858824, -0.0162814, 2.43, 0.09021, 2.43, -0.9887695, 2.43, -0.2644653, 2.43, -1.5419847, 2.43, 1.6183206, 2.43, -3.0763359
0.2866765, -0.0193027, 2.43675, 0.0916138, 2.43675, -0.9848633, 2.43675, -0.2679443, 2.43675, -1.5343511, 2.43675, 1.6183206, 2.43675, -2.9770992
0.2874706, -0.0223239, 2.4435, 0.0874023, 2.4435, -0.9813232, 2.4435, -0.2664795, 2.4435, -1.4580153, 2.4435, 1.7480916, 2.4435, -3
0.2882647, -0.0184634, 2.45025, 0.0852661, 2.45025, -0.9810791, 2.45025, -0.2684326, 2.45025, -1.9847329, 2.45025, 1.648855, 2.45025, -2.778626
0.2890588, -0.0152743, 2.457, 0.0814209, 2.457, -0.984314, 2.457, -0.2651978, 2.457, -2.1603053, 2.457, 1.0152671, 2.457, -3.0610688
0.2898529, -0.0154421, 2.46375, 0.0841675, 2.46375, -0.9805908, 2.46375, -0.2695923, 2.46375, -2.0687022, 2.46375, 0.2824427, 2.46375, -3.2977099
0.2906471, -0.0146029, 2.4705, 0.083252, 2.4705, -0.9786377, 2.4705, -0.2718506, 2.4705, -2.0458016, 2.4705, -0.1526718, 2.4705, -3.2671757
0.2914412, -0.0125887, 2.47725, 0.0839844, 2.47725, -0.9777832, 2.47725, -0.2695312, 2.47725, -2.1526718, 2.47725, -0.610687, 2.47725, -3.4427481
0.2922353, -0.0104067, 2.484, 0.0823364, 2.484, -0.9787598, 2.484, -0.2676392, 2.484, -1.610687, 2.484, -0.6183206, 2.484, -3.5114503
0.2930294, -0.0083925, 2.49075, 0.085083, 2.49075, -0.9784546, 2.49075, -0.2635498, 2.49075, -1.2290076, 2.49075, -0.5496183, 2.49075, -4.0229006
0.2938235, -0.0048676, 2.4975, 0.0847778, 2.4975, -0.9784546, 2.4975, -0.2651978, 2.4975, -0.8854962, 2.4975, -0.0839695, 2.4975, -4.1908398
0.2946176, -0.0030213, 2.50425, 0.093689, 2.50425, -0.9820557, 2.50425, -0.2693481, 2.50425, -1.0305344, 2.50425, 0.3206107, 2.50425, -4.3664122
0.2954118, -0.0078889, 2.511, 0.0921631, 2.511, -0.9846802, 2.511, -0.265625, 2.511, -0.9694657, 2.511, 0.5114504, 2.511, -4.3587785
0.2962059, -0.0124208, 2.51775, 0.0982666, 2.51775, -0.9879761, 2.51775, -0.2629395, 2.51775, -0.9389313, 2.51775, 0.9541985, 2.51775, -4.3740458
0.297, -0.0109102, 2.5245, 0.1003418, 2.5245, -0.980957, 2.5245, -0.2584839, 2.5245, -1.1755725, 2.5245, 1.3740458, 2.5245, -4.5572519
0.2977941, -0.0080568, 2.53125, 0.1031494, 2.53125, -0.9854126, 2.53125, -0.2671509, 2.53125, -1.4274809, 2.53125, 1.7480916, 2.53125, -4.7099237
0.2985882, -0.01561, 2.538, 0.0953979, 2.538, -0.986084, 2.538, -0.281311, 2.538, -1.2061069, 2.538, 2.2366412, 2.538, -4.6412215
0.2993824, -0.01561, 2.54475, 0.0979004, 2.54475, -0.9916382, 2.54475, -0.2859497, 2.54475, -1.4427481, 2.54475, 2.3816793, 2.54475, -4.2977099
0.3001765, -0.0152743, 2.5515, 0.1019897, 2.5515, -0.9884644, 2.5515, -0.2804565, 2.5515, -2.3282442, 2.5515, 2.9236641, 2.5515, -4.1450381
0.3009706, -0.0164492, 2.55825, 0.105835, 2.55825, -0.9879761, 2.55825, -0.2862549, 2.55825, -2.1832061, 2.55825, 2.9236641, 2.55825, -4.4122138
0.3017647, -0.018967, 2.565, 0.1046143, 2.565, -0.9886475, 2.565, -0.2894897, 2.565, -2.129771, 2.565, 2.8778627, 2.565, -4.3740458
0.3025588, -0.0157778, 2.57175, 0.1012573, 2.57175, -0.9921265, 2.57175, -0.2914429, 2.57175, -2.5343511, 2.57175, 3.1450381, 2.57175, -4.2748094
0.3033529, -0.0135958, 2.5785, 0.1112061, 2.5785, -0.9972534, 2.5785, -0.2889404, 2.5785, -2.351145, 2.5785, 3.3816793, 2.5785, -4.4122138
0.3041471, -0.0162814, 2.58525, 0.1132202, 2.58525, -0.9927979, 2.58525, -0.2910156, 2.58525, -2.4580152, 2.58525, 3.2290077, 2.58525, -4.0610685
0.3049412, -0.0162814, 2.592, 0.1210938, 2.592, -0.9934692, 2.592, -0.2863159, 2.592, -2.5267177, 2.592, 2.8625953, 2.592, -3.9389312
0.3057353, -0.0186313, 2.59875, 0.124939, 2.59875, -0.9922485, 2.59875, -0.2807617, 2.59875, -2.5725191, 2.59875, 3.1526718, 2.59875, -3.9541984
0.3065294, -0.0179599, 2.6055, 0.1173096, 2.6055, -0.9924316, 2.6055, -0.2797852, 2.6055, -2.1603053, 2.6055, 3.9541984, 2.6055, -3.610687
0.3073235, -0.0152743, 2.61225, 0.1167603, 2.61225, -0.9907227, 2.61225, -0.286377, 2.61225, -1.5572519, 2.61225, 3.8091602, 2.61225, -3.3358779
0.3081176, -0.0135958, 2.619, 0.1144409, 2.619, -0.9892578, 2.619, -0.2857666, 2.619, -1.7099236, 2.619, 3.6259542, 2.619, -3.1908398
0.3089118, -0.01561, 2.62575, 0.1081543, 2.62575, -0.9884644, 2.62575, -0.2800903, 2.62575, -1.7099236, 2.62575, 3.4045801, 2.62575, -3.0305343
0.3097059, -0.0162814, 2.6325, 0.1032104, 2.6325, -0.9884644, 2.6325, -0.2835693, 2.6325, -1.2442749, 2.6325, 3.2519083, 2.6325, -3.1526718
0.3105, -0.0149386, 2.63925, 0.0957031, 2.63925, -0.9871826, 2.63925, -0.2844849, 2.63925, -0.740458, 2.63925, 3.6335878, 2.63925, -3.1374047
0.3112941, -0.0115816, 2.646, 0.088562, 2.646, -0.9838257, 2.646, -0.2835693, 2.646, -1.0763359, 2.646, 3.5725191, 2.646, -3.0763359
0.3120882, -0.0129244, 2.65275, 0.0895996, 2.65275, -0.9821777, 2.65275, -0.2767334, 2.65275, -0.961832, 2.65275, 3.6030533, 2.65275, -3.1755726
0.3128824, -0.01561, 2.6595, 0.0925293, 2.6595, -0.9794922, 2.6595, -0.2803345, 2.6595, -1.3664122, 2.6595, 4.0305343, 2.6595, -3.3587787
0.3136765, -0.0135958, 2.66625, 0.0964355, 2.66625, -0.9856567, 2.66625, -0.2776489, 2.66625, -1.5725191, 2.66625, 3.9007633, 2.66625, -3.3816793
0.3144706, -0.0209812, 2.673, 0.0992432, 2.673, -0.9850464, 2.673, -0.2785645, 2.673, -2.0763359, 2.673, 3.8473282, 2.673, -3.5572519
0.3152647, -0.0354162, 2.67975, 0.1021118, 2.67975, -0.9840088, 2.67975, -0.2805786, 2.67975, -2.2977099, 2.67975, 4.6412215, 2.67975, -3.7251909
0.3160588, -0.0370947, 2.6865, 0.0988159, 2.6865, -0.9849243, 2.6865, -0.2755127, 2.6865, -2.6870229, 2.6865, 5.0839696, 2.6865, -3.6183207
0.3168529, -0.0305486, 2.69325, 0.0963135, 2.69325, -0.9855957, 2.69325, -0.2775269, 2.69325, -2.3587787, 2.69325, 5.1832061, 2.69325, -3.5267177
0.3176471, -0.0229953, 2.7, 0.0984497, 2.7, -0.9840088, 2.7, -0.2786865, 2.7, -2.2824428, 2.7, 5.0839696, 2.7, -3.6335878
0.3184412, -0.0209812, 2.70675, 0.0971069, 2.70675, -0.9799194, 2.70675, -0.2792358, 2.70675, -2.8931298, 2.70675, 5.0458016, 2.70675, -3.4961832
0.3192353, -0.0219883, 2.7135, 0.0964966, 2.7135, -0.9838257, 2.7135, -0.2728882, 2.7135, -3.4045801, 2.7135, 4.4503818, 2.7135, -3.5877862
0.3200294, -0.0179599, 2.72025, 0.0947266, 2.72025, -0.9828491, 2.72025, -0.2772217, 2.72025, -2.961832, 2.72025, 3.5954199, 2.72025, -3.8549619
0.3208235, -0.018967, 2.727, 0.1009521, 2.727, -0.9819336, 2.727, -0.2833252, 2.727, -2.8015268, 2.727, 2.740458, 2.727, -3.8931298
0.3216176, -0.024506, 2.73375, 0.1000366, 2.73375, -0.9799805, 2.73375, -0.2877197, 2.73375, -3.0076337, 2.73375, 2.5648854, 2.73375, -3.6412213
0.3224118, -0.0216526, 2.7405, 0.1019287, 2.7405, -0.9824829, 2.7405, -0.2801514, 2.7405, -2.4427481, 2.7405, 2.4045801, 2.7405, -3.8396947
0.3232059, -0.018967, 2.74725, 0.1030884, 2.74725, -0.9837646, 2.74725, -0.2874756, 2.74725, -2.129771, 2.74725, 2.0076337, 2.74725, -3.9007633
0.324, -0.0169528, 2.754, 0.1033936, 2.754, -0.9856567, 2.754, -0.293396, 2.754, -1.7022901, 2.754, 1.6717557, 2.754, -4
0.3247941, -0.0162814, 2.76075, 0.1000366, 2.76075, -0.9873047, 2.76075, -0.2883911, 2.76075, -1.4580153, 2.76075, 1.0152671, 2.76075, -4.4732823
0.3255882, -0.0176242, 2.7675, 0.0966187, 2.7675, -0.9891357, 2.7675, -0.2797241, 2.7675, -1.7022901, 2.7675, 1.1984733, 2.7675, -4.4045801
0.3263824, -0.0179599, 2.77425, 0.1052856, 2.77425, -0.9954834, 2.77425, -0.2729492, 2.77425, -1.3282443, 2.77425, 1.648855, 2.77425, -4.3587785
0.3271765, -0.0139315, 2.781, 0.1121216, 2.781, -0.9902344, 2.781, -0.2858276, 2.781, -0.2519084, 2.781, 2.6564887, 2.781, -4.6259542
0.3279706, -0.0135958, 2.78775, 0.1074829, 2.78775, -0.9863281, 2.78775, -0.2849731, 2.78775, 0.0534351, 2.78775, 3.1755726, 2.78775, -4.8167939
0.3287647, -0.0132601, 2.7945, 0.1013184, 2.7945, -0.9845581, 2.7945, -0.284729, 2.7945, 0.0534351, 2.7945, 3.091603, 2.7945, -5
0.3295588, -0.0117494, 2.80125, 0.0963135, 2.80125, -0.9846191, 2.80125, -0.2832031, 2.80125, 0.519084, 2.80125, 3.0152671, 2.80125, -4.9541984
0.3303529, -0.0152743, 2.808, 0.0980835, 2.808, -0.9824219, 2.808, -0.2856445, 2.808, 0.6030535, 2.808, 2.8549619, 2.808, -4.9083967
0.3311471, -0.0152743, 2.81475, 0.0993042, 2.81475, -0.9824219, 2.81475, -0.2887573, 2.81475, 0.5038168, 2.81475, 2.6030533, 2.81475, -4.6030536
0.3319412, -0.0115816, 2.8215, 0.0947876, 2.8215, -0.9765625, 2.8215, -0.2929077, 2.8215, 0.7175573, 2.8215, 2.4503818, 2.8215, -4.6717558
0.3327353, -0.01561, 2.82825, 0.0881348, 2.82825, -0.9762573, 2.82825, -0.2910767, 2.82825, 1, 2.82825, 1.9312977, 2.82825, -4.7938933
0.3335294, -0.018967, 2.835, 0.0871582, 2.835, -0.9731445, 2.835, -0.2993164, 2.835, 0.7709923, 2.835, 1.6564885, 2.835, -4.7175574
0.3343235, -0.01561, 2.84175, 0.0889282, 2.84175, -0.9790649, 2.84175, -0.293396, 2.84175, 0.4961832, 2.84175, 1.6564885, 2.84175, -4.6030536
0.3351176, -0.014435, 2.8485, 0.0971069, 2.8485, -0.9778442, 2.8485, -0.2924805, 2.8485, 0.4580153, 2.8485, 1.0763359, 2.8485, -4.5267177
0.3359118, -0.021149, 2.85525, 0.0987549, 2.85525, -0.9749756, 2.85525, -0.2948608, 2.85525, 0.3587786, 2.85525, 0.9694657, 2.85525, -4.8244276
0.3367059, -0.0236667, 2.862, 0.1011353, 2.862, -0.9719238, 2.862, -0.302002, 2.862, -0.129771, 2.862, 1.0839695, 2.862, -4.7480917
0.3375, -0.0152743, 2.86875, 0.1004028, 2.86875, -0.9793701, 2.86875, -0.2920532, 2.86875, -0.2442748, 2.86875, 0.1908397, 2.86875, -4.9312978
0.3382941, -0.0112459, 2.8755, 0.1015015, 2.8755, -0.9788818, 2.8755, -0.2897339, 2.8755, 0.2824427, 2.8755, -0.3435115, 2.8755, -4.6412215
0.3390882, -0.0142672, 2.88225, 0.0997925, 2.88225, -0.9816895, 2.88225, -0.2844849, 2.88225, 0.4045801, 2.88225, -0.1068702, 2.88225, -4.8167939
0.3398824, -0.0137636, 2.889, 0.098877, 2.889, -0.9817505, 2.889, -0.2844849, 2.889, 0.5267175, 2.889, 0.4503817, 2.889, -4.6564884
0.3406765, -0.012253, 2.89575, 0.1011353, 2.89575, -0.980957, 2.89575, -0.2790527, 2.89575, 0.3740458, 2.89575, 0.7328244, 2.89575, -4.5114503
0.3414706, -0.0109102, 2.9025, 0.1052246, 2.9025, -0.9825439, 2.9025, -0.2817383, 2.9025, 0.4198473, 2.9025, 0.6412213, 2.9025, -4.6412215
0.3422647, -0.0095674, 2.90925, 0.1029053, 2.90925, -0.9873047, 2.90925, -0.2860107, 2.90925, 0, 2.90925, 0.6870229, 2.90925, -4.7175574
0.3430588, -0.0117494, 2.916, 0.1075439, 2.916, -0.9863892, 2.916, -0.2833862, 2.916, -0.778626, 2.916, 0.2977099, 2.916, -4.8320613
0.3438529, -0.012253, 2.92275, 0.116272, 2.92275, -0.9819336, 2.92275, -0.2888794, 2.92275, -1.1221374, 2.92275, -0.0916031, 2.92275, -4.8854961
0.3446471, -0.0135958, 2.9295, 0.1154175, 2.9295, -0.9831543, 2.9295, -0.2938232, 2.9295, -0.9770992, 2.9295, -0.259542, 2.9295, -5.0610685
0.3454412, -0.0135958, 2.93625, 0.1126099, 2.93625, -0.9882812, 2.93625, -0.2901611, 2.93625, -1, 2.93625, 0.6030535, 2.93625, -5.0610685
0.3462353, -0.0139315, 2.943, 0.1085815, 2.943, -0.9855957, 2.943, -0.2830811, 2.943, -0.7328244, 2.943, 0.740458, 2.943, -5.1068702
0.3470294, -0.0147707, 2.94975, 0.1063232, 2.94975, -0.9869385, 2.94975, -0.2821045, 2.94975, -0.6641222, 2.94975, 0.7175573, 2.94975, -5.0610685
0.3478235, -0.0142672, 2.9565, 0.0999756, 2.9565, -0.9837036, 2.9565, -0.2880249, 2.9565, -0.6030535, 2.9565, 0.8473282, 2.9565, -5.1374044
0.3486176, -0.0226596, 2.96325, 0.0974731, 2.96325, -0.9840088, 2.96325, -0.2879639, 2.96325, -0.4656489, 2.96325, 0.5343512, 2.96325, -5.3816795
0.3494118, -0.0229953, 2.97, 0.0944214, 2.97, -0.9844971, 2.97, -0.2885742, 2.97, -0.6946565, 2.97, 0.4427481, 2.97, -5.2519083
0.3502059, -0.0203098, 2.97675, 0.0997925, 2.97675, -0.9839478, 2.97675, -0.2906494, 2.97675, -0.8778626, 2.97675, 0.2824427, 2.97675, -5.2748094
0.351, -0.0203098, 2.9835, 0.1033936, 2.9835, -0.9865112, 2.9835, -0.2912598, 2.9835, -1.1374046, 2.9835, 0.0763359, 2.9835, -5.4198475
0.3517941, -0.0193027, 2.99025, 0.1045532, 2.99025, -0.9859619, 2.99025, -0.2874756, 2.99025, -1.2748091, 2.99025, 0.0381679, 2.99025, -5.4274807
0.3525882, -0.0218204, 2.997, 0.1091919, 2.997, -0.984375, 2.997, -0.2902832, 2.997, -0.4274809, 2.997, -0.3435115, 2.997, -5.6106873
0.3533824, -0.0149386, 3.00375, 0.1102295, 3.00375, -0.9872437, 3.00375, -0.2858276, 3.00375, -0.4122137, 3.00375, -0.389313, 3.00375, -5.9312978
0.3541765, -0.0090639, 3.0105, 0.1071777, 3.0105, -0.9833984, 3.0105, -0.2886963, 3.0105, -0.5648855, 3.0105, -0.1221374, 3.0105, -5.9923663
0.3549706, -0.0085603, 3.01725, 0.1036987, 3.01725, -0.986084, 3.01725, -0.2827148, 3.01725, -0.6564885, 3.01725, -0.5572519, 3.01725, -6.1450381
0.3557647, -0.0068818, 3.024, 0.1119995, 3.024, -0.9822998, 3.024, -0.2826538, 3.024, -0.0610687, 3.024, -0.221374, 3.024, -6.3511453
0.3565588, -0.0068818, 3.03075, 0.1125488, 3.03075, -0.9790649, 3.03075, -0.279541, 3.03075, -0.4351145, 3.03075, 0.221374, 3.03075, -6.4045801
0.3573529, -0.005539, 3.0375, 0.1127319, 3.0375, -0.9748535, 3.0375, -0.2874146, 3.0375, -0.5114504, 3.0375, 0.3129771, 3.0375, -6.3969464
0.3581471, -0.0082246, 3.04425, 0.1026001, 3.04425, -0.9727173, 3.04425, -0.2883301, 3.04425, -0.9312977, 3.04425, 0.351145, 3.04425, -6.3511453
0.3589412, -0.005539, 3.051, 0.1001587, 3.051, -0.9802246, 3.051, -0.286499, 3.051, -1.2442749, 3.051, 0.0992366, 3.051, -6.3664122
0.3597353, -0.005539, 3.05775, 0.1046143, 3.05775, -0.9833984, 3.05775, -0.2839355, 3.05775, -1.1755725, 3.05775, -0.0229008, 3.05775, -6.4045801
0.3605294, -0.0085603, 3.0645, 0.112854, 3.0645, -0.9766846, 3.0645, -0.2885742, 3.0645, -1.5267175, 3.0645, -0.389313, 3.0645, -6.5114503
0.3613235, -0.0182956, 3.07125, 0.112854, 3.07125, -0.9788818, 3.07125, -0.2912598, 3.07125, -1.5267175, 3.07125, -0.0229008, 3.07125, -6.2977099
0.3621176, -0.0186313, 3.078, 0.1154785, 3.078, -0.9845581, 3.078, -0.2903442, 3.078, -1.8320611, 3.078, -0.0152672, 3.078, -6.221374
0.3629118, -0.0104067, 3.08475, 0.1231079, 3.08475, -0.9803467, 3.08475, -0.3005371, 3.08475, -2.0229008, 3.08475, 0.1908397, 3.08475, -6.2137403
0.3637059, -0.0095674, 3.0915, 0.1226807, 3.0915, -0.9766846, 3.0915, -0.3014526, 3.0915, -2.3435113, 3.0915, 0.4122137, 3.0915, -6.221374
0.3645, -0.0129244, 3.09825, 0.1184082, 3.09825, -0.9804077, 3.09825, -0.295166, 3.09825, -3.0305343, 3.09825, 0.1603053, 3.09825, -6.1450381
0.3652941, -0.0166171, 3.105, 0.1188354, 3.105, -0.9841919, 3.105, -0.2893066, 3.105, -2.5801528, 3.105, 0.0763359, 3.105, -6.1832061
0.3660882, -0.0152743, 3.11175, 0.1212769, 3.11175, -0.9848633, 3.11175, -0.2972412, 3.11175, -2.2824428, 3.11175, -0.3435115, 3.11175, -6.0458016
0.3668824, -0.0137636, 3.1185, 0.1190796, 3.1185, -0.9837036, 3.1185, -0.2944336, 3.1185, -2.2442749, 3.1185, -0.1526718, 3.1185, -5.7633586
0.3676765, -0.012253, 3.12525, 0.1162109, 3.12525, -0.9798584, 3.12525, -0.3008423, 3.12525, -2.0763359, 3.12525, -0.5496183, 3.12525, -5.7480917
0.3684706, -0.0104067, 3.132, 0.1204224, 3.132, -0.9775391, 3.132, -0.2944946, 3.132, -1.8244275, 3.132, -0.961832, 3.132, -5.8854961
0.3692647, -0.0132601, 3.13875, 0.1201782, 3.13875, -0.9769897, 3.13875, -0.2943115, 3.13875, -1.3435115, 3.13875, -1.4122137, 3.13875, -5.9312978
0.3700588, -0.0127565, 3.1455, 0.1210938, 3.1455, -0.9784546, 3.1455, -0.2936401, 3.1455, -1.1832061, 3.1455, -1.2442749, 3.1455, -5.8778625
0.3708529, -0.0172885, 3.15225, 0.1243896, 3.15225, -0.9718628, 3.15225, -0.3023071, 3.15225, -0.8778626, 3.15225, -0.7633588, 3.15225, -5.6183205
0.3716471, -0.0151064, 3.159, 0.1304321, 3.159, -0.9735107, 3.159, -0.3034058, 3.159, -1.1068702, 3.159, -0.1450382, 3.159, -5.7251906
0.3724412, -0.012253, 3.16575, 0.1282959, 3.16575, -0.977417, 3.16575, -0.2990112, 3.16575, -1.2061069, 3.16575, -0.2977099, 3.16575, -5.5648856
0.3732353, -0.0075532, 3.1725, 0.119751, 3.1725, -0.9835205, 3.1725, -0.2966309, 3.1725, -1.5419847, 3.1725, 0.6183206, 3.1725, -5.1908398
0.3740294, -0.0102388, 3.17925, 0.1140137, 3.17925, -0.9823608, 3.17925, -0.2976685, 3.17925, -1.3206106, 3.17925, 0.9312977, 3.17925, -5.1450381
0.3748235, -0.0125887, 3.186, 0.1166992, 3.186, -0.9833984, 3.186, -0.2980347, 3.186, -1.2977099, 3.186, 1.1908396, 3.186, -5.1221375
0.3756176, -0.0109102, 3.19275, 0.1167603, 3.19275, -0.9837036, 3.19275, -0.3044434, 3.19275, -1.2977099, 3.19275, 1.259542, 3.19275, -5.3282442
0.3764118, -0.0115816, 3.1995, 0.1178589, 3.1995, -0.9822998, 3.1995, -0.3027344, 3.1995, -1.5343511, 3.1995, 1.3816794, 3.1995, -5.0839696
0.3772059, -0.008896, 3.20625, 0.1258545, 3.20625, -0.9783936, 3.20625, -0.2978516, 3.20625, -1.1832061, 3.20625, 1.4656489, 3.20625, -5.0152674
0.378, -0.012253, 3.213, 0.1246338, 3.213, -0.9724121, 3.213, -0.3070679, 3.213, -1.0152671, 3.213, 1.6183206, 3.213, -5.1374044
0.3787941, -0.0135958, 3.21975, 0.124939, 3.21975, -0.9742432, 3.21975, -0.3062134, 3.21975, -1.4045801, 3.21975, 1.2824427, 3.21975, -4.9236641
0.3795882, -0.012253, 3.2265, 0.1222534, 3.2265, -0.9755859, 3.2265, -0.3126221, 3.2265, -1.8244275, 3.2265, 1.6335878, 3.2265, -4.7633586
0.3803824, -0.0109102, 3.23325, 0.1233521, 3.23325, -0.9754639, 3.23325, -0.3092041, 3.23325, -1.9236641, 3.23325, 1.6870229, 3.23325, -4.4045801
0.3811765, -0.0129244, 3.24, 0.1251221, 3.24, -0.9769897, 3.24, -0.3057251, 3.24, -1.8244275, 3.24, 1.2900764, 3.24, -4.3893127
0.3819706, -0.0146029, 3.24675, 0.1229858, 3.24675, -0.9776001, 3.24675, -0.3056641, 3.24675, -2.351145, 3.24675, 1.1145039, 3.24675, -4.3206105
0.3827647, -0.0149386, 3.2535, 0.1228027, 3.2535, -0.9785767, 3.2535, -0.303894, 3.2535, -2.3816793, 3.2535, 1.2290076, 3.2535, -4.3816795
0.3835588, -0.0209812, 3.26025, 0.1208496, 3.26025, -0.9771729, 3.26025, -0.300415, 3.26025, -2.3587787, 3.26025, 0.6946565, 3.26025, -4.1603055
0.3843529, -0.0229953, 3.267, 0.1224976, 3.267, -0.9780273, 3.267, -0.2990112, 3.267, -2.3206108, 3.267, 0.3816794, 3.267, -4.2061067
0.3851471, -0.0194705, 3.27375, 0.1290283, 3.27375, -0.9771118, 3.27375, -0.2957153, 3.27375, -1.9694656, 3.27375, 0.3816794, 3.27375, -4.3129773
0.3859412, -0.0203098, 3.2805, 0.1279907, 3.2805, -0.9779053, 3.2805, -0.2971191, 3.2805, -1.7251909, 3.2805, 1.6793894, 3.2805, -3.9541984
0.3867353, -0.0196384, 3.28725, 0.1288452, 3.28725, -0.9772339, 3.28725, -0.3067627, 3.28725, -1.519084, 3.28725, 2.221374, 3.28725, -3.9236641
0.3875294, -0.0203098, 3.294, 0.1279907, 3.294, -0.9764404, 3.294, -0.3095703, 3.294, -1.259542, 3.294, 1.8091604, 3.294, -3.8320611
0.3883235, -0.0184634, 3.30075, 0.1201172, 3.30075, -0.9802246, 3.30075, -0.3059082, 3.30075, -1.8091604, 3.30075, 1.9847329, 3.30075, -4.2824426
0.3891176, -0.0125887, 3.3075, 0.1207886, 3.3075, -0.9813843, 3.3075, -0.3065186, 3.3075, -1.4427481, 3.3075, 1.4961832, 3.3075, -3.8931298
0.3899118, -0.012253, 3.31425, 0.1270752, 3.31425, -0.980957, 3.31425, -0.3032227, 3.31425, -1.4427481, 3.31425, 1.351145, 3.31425, -3.5801528
0.3907059, -0.0095674, 3.321, 0.1299438, 3.321, -0.979126, 3.321, -0.3070068, 3.321, -0.8778626, 3.321, 1.9312977, 3.321, -3.5114503
0.3915, -0.0085603, 3.32775, 0.1240845, 3.32775, -0.9816895, 3.32775, -0.3026733, 3.32775, -0.0839695, 3.32775, 1.961832, 3.32775, -3.6793892
0.3922941, -0.0068818, 3.3345, 0.1256104, 3.3345, -0.9824829, 3.3345, -0.3051147, 3.3345, 0.2900763, 3.3345, 1.5114504, 3.3345, -3.5496182
0.3930882, -0.0062104, 3.34125, 0.1292114, 3.34125, -0.9812622, 3.34125, -0.3086548, 3.34125, 0.1832061, 3.34125, 1.6870229, 3.34125, -3.3816793
0.3938824, -0.0135958, 3.348, 0.1279907, 3.348, -0.9771729, 3.348, -0.3091431, 3.348, 0.2366412, 3.348, 1.8931298, 3.348, -3.2519083
0.3946765, -0.0182956, 3.35475, 0.1239624, 3.35475, -0.9762573, 3.35475, -0.302124, 3.35475, 0.2442748, 3.35475, 1.7633588, 3.35475, -3.1984732
0.3954706, -0.0182956, 3.3615, 0.1271973, 3.3615, -0.9755249, 3.3615, -0.3106079, 3.3615, -0.0916031, 3.3615, 1.4656489, 3.3615, -2.9236641
0.3962647, -0.0196384, 3.36825, 0.1266479, 3.36825, -0.972168, 3.36825, -0.3079834, 3.36825, -0.1450382, 3.36825, 1.7022901, 3.36825, -2.7938931
0.3970588, -0.0191348, 3.375, 0.12854, 3.375, -0.9711304, 3.375, -0.3121338, 3.375, -0.4732825, 3.375, 1.7099236, 3.375, -2.6259542
0.3978529, -0.0203098, 3.38175, 0.1279907, 3.38175, -0.9753418, 3.38175, -0.3065186, 3.38175, -0.2900763, 3.38175, 1.3206106, 3.38175, -2.5267177
0.3986471, -0.0216526, 3.3885, 0.1283569, 3.3885, -0.9736938, 3.3885, -0.3125, 3.3885, -0.3969466, 3.3885, 0.961832, 3.3885, -2.3969467
0.3994412, -0.0236667, 3.39525, 0.1231689, 3.39525, -0.9736938, 3.39525, -0.3082275, 3.39525, -0.1755725, 3.39525, 0.610687, 3.39525, -2.2748091
0.4002353, -0.0226596, 3.402, 0.1209717, 3.402, -0.9760742, 3.402, -0.307373, 3.402, -0.2519084, 3.402, 0.6412213, 3.402, -2.0458016
0.4010294, -0.026688, 3.40875, 0.119751, 3.40875, -0.9776611, 3.40875, -0.3017578, 3.40875, 0.0534351, 3.40875, 0.9770992, 3.40875, -1.8473282
0.4018235, -0.0229953, 3.4155, 0.1206665, 3.4155, -0.9810181, 3.4155, -0.3001099, 3.4155, 0.3206107, 3.4155, 1.4732825, 3.4155, -2.0763359
0.4026176, -0.0216526, 3.42225, 0.1226196, 3.42225, -0.9785767, 3.42225, -0.3099976, 3.42225, 0.4351145, 3.42225, 1.8854961, 3.42225, -2
0.4034118, -0.0216526, 3.429, 0.1173706, 3.429, -0.9772339, 3.429, -0.3026123, 3.429, 0.1526718, 3.429, 1.6946565, 3.429, -2.0458016
0.4042059, -0.0176242, 3.43575, 0.1152344, 3.43575, -0.9798584, 3.43575, -0.3071899, 3.43575, 0.2824427, 3.43575, 1.4732825, 3.43575, -2.0534351
0.405, -0.0154421, 3.4425, 0.1188965, 3.4425, -0.9815063, 3.4425, -0.3035278, 3.4425, 0.129771, 3.4425, 1.5496184, 3.4425, -1.9923664
0.4057941, -0.0125887, 3.44925, 0.1178589, 3.44925, -0.980835, 3.44925, -0.2994385, 3.44925, 0.2824427, 3.44925, 1.8854961, 3.44925, -2.0152671
0.4065882, -0.0109102, 3.456, 0.1242676, 3.456, -0.9753418, 3.456, -0.3007812, 3.456, 0.2748092, 3.456, 2.0458016, 3.456, -1.8625954
0.4073824, -0.0078889, 3.46275, 0.1239014, 3.46275, -0.9769897, 3.46275, -0.3078613, 3.46275, 0.2366412, 3.46275, 1.4732825, 3.46275, -1.908397
0.4081765, -0.0112459, 3.4695, 0.1245117, 3.4695, -0.9776001, 3.4695, -0.3070068, 3.4695, 0.4122137, 3.4695, 1.4503816, 3.4695, -1.8854961
0.4089706, -0.0097353, 3.47625, 0.123291, 3.47625, -0.9793701, 3.47625, -0.3013916, 3.47625, 0.0839695, 3.47625, 1.8015267, 3.47625, -1.6641221
0.4097647, -0.0062104, 3.483, 0.1259155, 3.483, -0.9779663, 3.483, -0.3032837, 3.483, 0.3587786, 3.483, 1.2442749, 3.483, -1.8854961
0.4105588, -0.0041962, 3.48975, 0.1190186, 3.48975, -0.9778442, 3.48975, -0.3060303, 3.48975, 0.3435115, 3.48975, 1.5648855, 3.48975, -2.1984732
0.4113529, -0.0062104, 3.4965, 0.1119385, 3.4965, -0.9754639, 3.4965, -0.3067627, 3.4965, 0.2748092, 3.4965, 2.2748091, 3.4965, -2.2366412
0.4121471, -0.0075532, 3.50325, 0.1063232, 3.50325, -0.9812622, 3.50325, -0.3070679, 3.50325, 0.4580153, 3.50325, 1.9236641, 3.50325, -2.1755726
0.4129412, -0.0099031, 3.51, 0.1110229, 3.51, -0.9813232, 3.51, -0.3057251, 3.51, 0.8015267, 3.51, 1.5877863, 3.51, -2.1603053
0.4137353, -0.0102388, 3.51675, 0.1165771, 3.51675, -0.9783325, 3.51675, -0.3085938, 3.51675, 0.5801527, 3.51675, 1.6259542, 3.51675, -2.0610688
0.4145294, -0.0109102, 3.5235, 0.116272, 3.5235, -0.9787598, 3.5235, -0.305542, 3.5235, 0.519084, 3.5235, 1.6793894, 3.5235, -2.1755726
0.4153235, -0.0146029, 3.53025, 0.1140137, 3.53025, -0.9810791, 3.53025, -0.303833, 3.53025, 0.8854962, 3.53025, 1.8549619, 3.53025, -2.129771
0.4161176, -0.0203098, 3.537, 0.1157227, 3.537, -0.9837646, 3.537, -0.3063965, 3.537, 0.961832, 3.537, 2.0534351, 3.537, -2.0076337
0.4169118, -0.0203098, 3.54375, 0.1136475, 3.54375, -0.9794922, 3.54375, -0.3121948, 3.54375, 1.0839695, 3.54375, 1.961832, 3.54375, -2.2442749
0.4177059, -0.0176242, 3.5505, 0.1117554, 3.5505, -0.9776001, 3.5505, -0.3080444, 3.5505, 0.8778626, 3.5505, 1.6717557, 3.5505, -2.3358779
0.4185, -0.0199741, 3.55725, 0.1135254, 3.55725, -0.9762573, 3.55725, -0.3079224, 3.55725, 0.7099237, 3.55725, 1.8778626, 3.55725, -2.3816793
0.4192941, -0.0206455, 3.564, 0.1112061, 3.564, -0.9760132, 3.564, -0.3046875, 3.564, 0.7938932, 3.564, 1.7251909, 3.564, -2.3816793
0.4200882, -0.0199741, 3.57075, 0.1100464, 3.57075, -0.9731445, 3.57075, -0.3043213, 3.57075, 1.0839695, 3.57075, 1.3358779, 3.57075, -2.4656489
0.4208824, -0.0216526, 3.5775, 0.1154785, 3.5775, -0.9740601, 3.5775, -0.3024902, 3.5775, 1.3358779, 3.5775, 0.9236641, 3.5775, -2.5725191
0.4216765, -0.0229953, 3.58425, 0.1148071, 3.58425, -0.9732056, 3.58425, -0.3088379, 3.58425, 0.8931298, 3.58425, 1.5038168, 3.58425, -2.4656489
0.4224706, -0.0229953, 3.591, 0.1189575, 3.591, -0.9797363, 3.591, -0.3060913, 3.591, 1.3816794, 3.591, 1.8396946, 3.591, -2.6717558
0.4232647, -0.017792, 3.59775, 0.119751, 3.59775, -0.9790649, 3.59775, -0.3071899, 3.59775, 1.480916, 3.59775, 1.6412214, 3.59775, -2.5648854
0.4240588, -0.0162814, 3.6045, 0.1177368, 3.6045, -0.9782715, 3.6045, -0.3091431, 3.6045, 1.4198474, 3.6045, 1.9389313, 3.6045, -2.4885497
0.4248529, -0.0198062, 3.61125, 0.1156616, 3.61125, -0.9759521, 3.61125, -0.3126831, 3.61125, 1.0763359, 3.61125, 2.0152671, 3.61125, -2.5801528
0.4256471, -0.0193027, 3.618, 0.1101074, 3.618, -0.9786987, 3.618, -0.3155518, 3.618, 0.6641222, 3.618, 1.2748091, 3.618, -2.6717558
0.4264412, -0.0162814, 3.62475, 0.1068115, 3.62475, -0.9804688, 3.62475, -0.305603, 3.62475, 0.1755725, 3.62475, 0.3358779, 3.62475, -2.9541984
0.4272353, -0.0162814, 3.6315, 0.1126709, 3.6315, -0.9812012, 3.6315, -0.3006592, 3.6315, -0.3206107, 3.6315, -0.1832061, 3.6315, -3.0305343
0.4280294, -0.0166171, 3.63825, 0.1123657, 3.63825, -0.9801025, 3.63825, -0.3027344, 3.63825, -0.3969466, 3.63825, 0.0381679, 3.63825, -3.5954199
0.4288235, -0.0169528, 3.645, 0.1193848, 3.645, -0.9848022, 3.645, -0.3045654, 3.645, -0.4503817, 3.645, 0.2519084, 3.645, -3.5114503
0.4296176, -0.0216526, 3.65175, 0.1209106, 3.65175, -0.9829102, 3.65175, -0.3048706, 3.65175, -0.1374046, 3.65175, 0.1984733, 3.65175, -3.3969467
0.4304118, -0.0218204, 3.6585, 0.1246338, 3.6585, -0.9769287, 3.6585, -0.3026733, 3.6585, 0.1221374, 3.6585, 0.7480916, 3.6585, -3.4351146
0.4312059, -0.0162814, 3.66525, 0.1161499, 3.66525, -0.9766846, 3.66525, -0.3063965, 3.66525, 0.1603053, 3.66525, 1.2137405, 3.66525, -3.4885497
0.432, -0.0176242, 3.672, 0.1137695, 3.672, -0.9780273, 3.672, -0.3046265, 3.672, 0.5725191, 3.672, 0.7175573, 3.672, -3.4885497
0.4327941, -0.021149, 3.67875, 0.1089478, 3.67875, -0.9802246, 3.67875, -0.3095093, 3.67875, 0.4732825, 3.67875, 0.5725191, 3.67875, -3.5419848
0.4335882, -0.0208133, 3.6855, 0.1126709, 3.6855, -0.9820557, 3.6855, -0.30896, 3.6855, 0.3740458, 3.6855, 0.1908397, 3.6855, -3.7175572
0.4343824, -0.0164492, 3.69225, 0.1192627, 3.69225, -0.9778442, 3.69225, -0.3114624, 3.69225, 0.7557252, 3.69225, 0.389313, 3.69225, -3.7251909
0.4351765, -0.01561, 3.699, 0.1186523, 3.699, -0.9758301, 3.699, -0.3164673, 3.699, 0.5725191, 3.699, 0.4427481, 3.699, -3.6641221
0.4359706, -0.0125887, 3.70575, 0.1210327, 3.70575, -0.9804688, 3.70575, -0.3121948, 3.70575, 0.4351145, 3.70575, 0.3816794, 3.70575, -3.8320611
0.4367647, -0.0139315, 3.7125, 0.1181641, 3.7125, -0.9816895, 3.7125, -0.3118286, 3.7125, 0.5572519, 3.7125, 0.3587786, 3.7125, -3.8549619
0.4375588, -0.0135958, 3.71925, 0.1171265, 3.71925, -0.9827271, 3.71925, -0.303894, 3.71925, 0.5954198, 3.71925, 0.2137405, 3.71925, -3.6259542
0.4383529, -0.0129244, 3.726, 0.1188965, 3.726, -0.9781494, 3.726, -0.3045044, 3.726, 0.9160305, 3.726, 0.5572519, 3.726, -3.6793892
0.4391471, -0.0092317, 3.73275, 0.1235352, 3.73275, -0.9776001, 3.73275, -0.3049316, 3.73275, 1.0229008, 3.73275, 1.129771, 3.73275, -3.5954199
0.4399412, -0.0072175, 3.7395, 0.1222534, 3.7395, -0.9746704, 3.7395, -0.3108521, 3.7395, 0.8320611, 3.7395, 0.9847328, 3.7395, -3.4732823
0.4407353, -0.0045319, 3.74625, 0.1223755, 3.74625, -0.9748535, 3.74625, -0.3102417, 3.74625, 0.8549618, 3.74625, 1.3816794, 3.74625, -3.389313
0.4415294, -0.0070497, 3.753, 0.1224365, 3.753, -0.9798584, 3.753, -0.3128662, 3.753, 0.9007633, 3.753, 1.6335878, 3.753, -3.3740458
0.4423235, -0.0078889, 3.75975, 0.1175537, 3.75975, -0.9745483, 3.75975, -0.3137817, 3.75975, 0.778626, 3.75975, 2.0992367, 3.75975, -3.3053436
0.4431176, -0.0075532, 3.7665, 0.1182861, 3.7665, -0.9752197, 3.7665, -0.3102417, 3.7665, 0.8625954, 3.7665, 1.8778626, 3.7665, -3.3587787
0.4439118, -0.0072175, 3.77325, 0.112854, 3.77325, -0.9786377, 3.77325, -0.3136597, 3.77325, 1.2748091, 3.77325, 1.4503816, 3.77325, -3.648855
0.4447059, -0.0068818, 3.78, 0.1164551, 3.78, -0.9761963, 3.78, -0.3146973, 3.78, 1.0534351, 3.78, 1.4580153, 3.78, -3.3969467
0.4455, -0.0062104, 3.78675, 0.1203003, 3.78675, -0.9765015, 3.78675, -0.3108521, 3.78675, 1.038168, 3.78675, 1.1450381, 3.78675, -3.3664122
0.4462941, -0.0078889, 3.7935, 0.1203613, 3.7935, -0.9771729, 3.7935, -0.3131714, 3.7935, 1.0763359, 3.7935, 1.4503816, 3.7935, -3.5267177
0.4470882, -0.0068818, 3.80025, 0.1227417, 3.80025, -0.9776611, 3.80025, -0.3103027, 3.80025, 1.0229008, 3.80025, 1.2977099, 3.80025, -3.4580152
0.4478824, -0.0082246, 3.807, 0.121521, 3.807, -0.9772339, 3.807, -0.3098755, 3.807, 0.7709923, 3.807, 1.0458015, 3.807, -3.3435113
0.4486765, -0.0132601, 3.81375, 0.1228638, 3.81375, -0.9770508, 3.81375, -0.3101196, 3.81375, 0.8167939, 3.81375, 0.351145, 3.81375, -3.5419848
0.4494706, -0.0159457, 3.8205, 0.1201782, 3.8205, -0.9769897, 3.8205, -0.3071899, 3.8205, 0.8778626, 3.8205, 0.5267175, 3.8205, -3.5877862
0.4502647, -0.0176242, 3.82725, 0.1144409, 3.82725, -0.975708, 3.82725, -0.3098145, 3.82725, 0.5496183, 3.82725, 0.8167939, 3.82725, -3.6641221
0.4510588, -0.0172885, 3.834, 0.1139526, 3.834, -0.9763184, 3.834, -0.3088989, 3.834, 0.3587786, 3.834, 0.7633588, 3.834, -3.7099237
0.4518529, -0.0184634, 3.84075, 0.1151733, 3.84075, -0.9747925, 3.84075, -0.302124, 3.84075, 0.4961832, 3.84075, 0.2366412, 3.84075, -3.8015268
0.4526471, -0.0216526, 3.8475, 0.1116943, 3.8475, -0.9780884, 3.8475, -0.3082275, 3.8475, 0.7175573, 3.8475, 0.129771, 3.8475, -3.8167939
0.4534412, -0.0216526, 3.85425, 0.1083984, 3.85425, -0.9741211, 3.85425, -0.309082, 3.85425, 0.8778626, 3.85425, 0.3053435, 3.85425, -3.8625953
0.4542353, -0.0196384, 3.861, 0.1151733, 3.861, -0.9743042, 3.861, -0.3043213, 3.861, 0.8778626, 3.861, -0.1832061, 3.861, -3.9160306
0.4550294, -0.0213169, 3.86775, 0.1140137, 3.86775, -0.9738159, 3.86775, -0.3070068, 3.86775, 0.6946565, 3.86775, -0.1679389, 3.86775, -3.9007633
0.4558235, -0.0199741, 3.8745, 0.1179199, 3.8745, -0.9764404, 3.8745, -0.3064575, 3.8745, 0.9312977, 3.8745, -0.129771, 3.8745, -3.7709923
0.4566176, -0.01561, 3.88125, 0.1195068, 3.88125, -0.9771118, 3.88125, -0.3075562, 3.88125, 0.8167939, 3.88125, 0.2824427, 3.88125, -3.7633588
0.4574118, -0.0176242, 3.888, 0.1235352, 3.888, -0.9761353, 3.888, -0.3067627, 3.888, 0.9694657, 3.888, 0.1755725, 3.888, -3.7480917
0.4582059, -0.0159457, 3.89475, 0.1209717, 3.89475, -0.9776611, 3.89475, -0.3104858, 3.89475, 1.0152671, 3.89475, 0.5877863, 3.89475, -3.8396947
0.459, -0.0166171, 3.9015, 0.1236572, 3.9015, -0.9814453, 3.9015, -0.3027344, 3.9015, 1.1984733, 3.9015, 0.4732825, 3.9015, -3.8931298
0.4597941, -0.0179599, 3.90825, 0.1236572, 3.90825, -0.9805298, 3.90825, -0.3032227, 3.90825, 1.389313, 3.90825, 0.5648855, 3.90825, -4.0076337
0.4605882, -0.0149386, 3.915, 0.1216431, 3.915, -0.9772949, 3.915, -0.3115845, 3.915, 1.2748091, 3.915, 0.5038168, 3.915, -3.9007633
0.4613824, -0.0164492, 3.92175, 0.1201782, 3.92175, -0.9770508, 3.92175, -0.3077393, 3.92175, 1.0610687, 3.92175, 0.1145038, 3.92175, -3.7633588
0.4621765, -0.0182956, 3.9285, 0.1200562, 3.9285, -0.9752808, 3.9285, -0.3075562, 3.9285, 1.1450381, 3.9285, 0.4351145, 3.9285, -3.7022901
0.4629706, -0.0164492, 3.93525, 0.119873, 3.93525, -0.9741821, 3.93525, -0.3091431, 3.93525, 1.3053435, 3.93525, 0.3969466, 3.93525, -3.8320611
0.4637647, -0.0171206, 3.942, 0.114563, 3.942, -0.9763184, 3.942, -0.3091431, 3.942, 1.480916, 3.942, 0.4732825, 3.942, -3.7480917
0.4645588, -0.0223239, 3.94875, 0.1171265, 3.94875, -0.9758301, 3.94875, -0.307312, 3.94875, 1.5114504, 3.94875, 0.2366412, 3.94875, -3.8015268
0.4653529, -0.0243381, 3.9555, 0.1182251, 3.9555, -0.9788818, 3.9555, -0.3098145, 3.9555, 1.4351145, 3.9555, -0.1374046, 3.9555, -3.7328243
0.4661471, -0.0223239, 3.96225, 0.1203003, 3.96225, -0.9766235, 3.96225, -0.3092651, 3.96225, 1.5267175, 3.96225, -0.0992366, 3.96225, -3.5496182
0.4669412, -0.0196384, 3.969, 0.1236572, 3.969, -0.9771118, 3.969, -0.3026123, 3.969, 1.6870229, 3.969, 0.129771, 3.969, -3.6564887
0.4677353, -0.0159457, 3.97575, 0.1282959, 3.97575, -0.9743042, 3.97575, -0.3045654, 3.97575, 1.9465649, 3.97575, 0.1832061, 3.97575, -3.6030533
0.4685294, -0.01561, 3.9825, 0.1269531, 3.9825, -0.9754639, 3.9825, -0.305542, 3.9825, 1.6946565, 3.9825, 0.480916, 3.9825, -3.6183207
0.4693235, -0.0152743, 3.98925, 0.1242065, 3.98925, -0.9802246, 3.98925, -0.3031616, 3.98925, 1.4885496, 3.98925, 0.8320611, 3.98925, -3.4656489
0.4701176, -0.0142672, 3.996, 0.121521, 3.996, -0.9816284, 3.996, -0.3057251, 3.996, 1.6335878, 3.996, 0.8015267, 3.996, -3.3129771
0.4709118, -0.0162814, 4.00275, 0.1176758, 4.00275, -0.9769287, 4.00275, -0.3092651, 4.00275, 1.6335878, 4.00275, 0.961832, 4.00275, -3.2977099
0.4717059, -0.0146029, 4.0095, 0.117981, 4.0095, -0.9775391, 4.0095, -0.3051758, 4.0095, 1.6335878, 4.0095, 0.9160305, 4.0095, -3.3358779
0.4725, -0.008896, 4.01625, 0.1169434, 4.01625, -0.9746704, 4.01625, -0.3097534, 4.01625, 1.5648855, 4.01625, 0.778626, 4.01625, -3.4045801
0.4732941, -0.0068818, 4.023, 0.1152344, 4.023, -0.9725952, 4.023, -0.3122559, 4.023, 1.3816794, 4.023, 0.4656489, 4.023, -3.6412213
0.4740882, -0.0035248, 4.02975, 0.1154785, 4.02975, -0.9733276, 4.02975, -0.3104858, 4.02975, 1.0763359, 4.02975, -0.3129771, 4.02975, -3.6564887
0.4748824, -0.0016785, 4.0365, 0.1159668, 4.0365, -0.9750366, 4.0365, -0.3078003, 4.0365, 1.1221374, 4.0365, -0.5114504, 4.0365, -3.7862597
0.4756765, -0.002182, 4.04325, 0.1212158, 4.04325, -0.9815063, 4.04325, -0.3031006, 4.04325, 1.2824427, 4.04325, -0.1603053, 4.04325, -3.8854961
0.4764706, 0.0015106, 4.05, 0.1230469, 4.05, -0.9814453, 4.05, -0.3059082, 4.05, 1.1603054, 4.05, 0.2290076, 4.05, -3.8167939
0.4772647, 0.0028534, 4.05675, 0.1251221, 4.05675, -0.9784546, 4.05675, -0.3125, 4.05675, 0.908397, 4.05675, 0.9160305, 4.05675, -4.038168
0.4780588, -0.0028534, 4.0635, 0.1203003, 4.0635, -0.9782104, 4.0635, -0.3082275, 4.0635, 1.0076336, 4.0635, 0.961832, 4.0635, -3.7709923
0.4788529, -0.0198062, 4.07025, 0.1188354, 4.07025, -0.9793701, 4.07025, -0.2971191, 4.07025, 0.8167939, 4.07025, 0.389313, 4.07025, -3.7022901
0.4796471, -0.0305486, 4.077, 0.1236572, 4.077, -0.9801025, 4.077, -0.2958984, 4.077, 1.0610687, 4.077, 0.5343512, 4.077, -3.6259542
0.4804412, -0.0276951, 4.08375, 0.1292114, 4.08375, -0.9741211, 4.08375, -0.2998657, 4.08375, 1.0305344, 4.08375, 1.1908396, 4.08375, -3.4961832
0.4812353, -0.0203098, 4.0905, 0.125061, 4.0905, -0.9744873, 4.0905, -0.3051758, 4.0905, 0.8625954, 4.0905, 1.4274809, 4.0905, -3.259542
0.4820294, -0.0127565, 4.09725, 0.1242065, 4.09725, -0.9736328, 4.09725, -0.3068848, 4.09725, 1.5343511, 4.09725, 0.9923664, 4.09725, -3.259542
0.4828235, -0.0146029, 4.104, 0.121521, 4.104, -0.9724731, 4.104, -0.3120117, 4.104, 1.3740458, 4.104, 0.8625954, 4.104, -3.1908398
0.4836176, -0.0151064, 4.11075, 0.1223145, 4.11075, -0.9736328, 4.11075, -0.3095093, 4.11075, 1.1221374, 4.11075, 0.9389313, 4.11075, -3.1145039
0.4844118, -0.0124208, 4.1175, 0.1224976, 4.1175, -0.9747314, 4.1175, -0.3109741, 4.1175, 1.1526718, 4.1175, 0.5725191, 4.1175, -3.091603
0.4852059, -0.0139315, 4.12425, 0.1204224, 4.12425, -0.9776611, 4.12425, -0.310791, 4.12425, 1.1603054, 4.12425, 0.0305344, 4.12425, -3.1526718
0.486, -0.01561, 4.131, 0.118042, 4.131, -0.9778442, 4.131, -0.3086548, 4.131, 1.1221374, 4.131, -0.2290076, 4.131, -3.038168
0.4867941, -0.0182956, 4.13775, 0.1199951, 4.13775, -0.9758301, 4.13775, -0.3052979, 4.13775, 1.2748091, 4.13775, -0.5267175, 4.13775, -2.908397
0.4875882, -0.0146029, 4.1445, 0.1199951, 4.1445, -0.977417, 4.1445, -0.3051147, 4.1445, 1.3664122, 4.1445, -0.7022901, 4.1445, -3.0763359
0.4883824, -0.0095674, 4.15125, 0.119812, 4.15125, -0.9783325, 4.15125, -0.3059082, 4.15125, 1.3358779, 4.15125, -0.4427481, 4.15125, -3.0687022
0.4891765, -0.0102388, 4.158, 0.1231689, 4.158, -0.979248, 4.158, -0.3005981, 4.158, 1.2290076, 4.158, -0.4122137, 4.158, -3.0305343
0.4899706, -0.0104067, 4.16475, 0.1234131, 4.16475, -0.9752197, 4.16475, -0.2984619, 4.16475, 1.2061069, 4.16475, -0.4961832, 4.16475, -3.0152671
0.4907647, -0.0045319, 4.1715, 0.1220703, 4.1715, -0.9750977, 4.1715, -0.2966309, 4.1715, 1.0229008, 4.1715, 0.0381679, 4.1715, -3.0229008
0.4915588, -0.0092317, 4.17825, 0.1212769, 4.17825, -0.9751587, 4.17825, -0.2976685, 4.17825, 0.908397, 4.17825, 0.5496183, 4.17825, -3.091603
0.4923529, -0.011078, 4.185, 0.1155396, 4.185, -0.9746094, 4.185, -0.3021851, 4.185, 0.8625954, 4.185, 0.648855, 4.185, -2.9847329
0.4931471, -0.012253, 4.19175, 0.116394, 4.19175, -0.973877, 4.19175, -0.3002319, 4.19175, 0.6564885, 4.19175, 0.8091603, 4.19175, -3.0076337
0.4939412, -0.0142672, 4.1985, 0.1150513, 4.1985, -0.9741211, 4.1985, -0.302063, 4.1985, 0.6793893, 4.1985, 1.0992366, 4.1985, -3.0076337
0.4947353, -0.0166171, 4.20525, 0.1154175, 4.20525, -0.9754028, 4.20525, -0.3025513, 4.20525, 0.5877863, 4.20525, 0.870229, 4.20525, -3.1526718
0.4955294, -0.0191348, 4.212, 0.1144409, 4.212, -0.9758911, 4.212, -0.3009033, 4.212, 0.7099237, 4.212, 1.259542, 4.212, -3.0839694
0.4963235, -0.0196384, 4.21875, 0.117981, 4.21875, -0.973877, 4.21875, -0.3046265, 4.21875, 0.6412213, 4.21875, 1.2900764, 4.21875, -3.1755726
0.4971176, -0.0216526, 4.2255, 0.1169434, 4.2255, -0.9753418, 4.2255, -0.3079834, 4.2255, 0.4122137, 4.2255, 1.5038168, 4.2255, -3.2366412
0.4979118, -0.0193027, 4.23225, 0.1209717, 4.23225, -0.9783936, 4.23225, -0.3114014, 4.23225, 0.5038168, 4.23225, 1.5877863, 4.23225, -3.221374
0.4987059, -0.0219883, 4.239, 0.1246338, 4.239, -0.9794312, 4.239, -0.3119507, 4.239, 0.6717557, 4.239, 1.1984733, 4.239, -3.2366412
0.4995, -0.0253452, 4.24575, 0.1228638, 4.24575, -0.9760132, 4.24575, -0.3135376, 4.24575, 0.5496183, 4.24575, 0.7938932, 4.24575, -3.259542
0.5002941, -0.0196384, 4.2525, 0.1211548, 4.2525, -0.9780273, 4.2525, -0.305481, 4.2525, 0.610687, 4.2525, 0.0381679, 4.2525, -3.4732823
0.5010882, -0.0176242, 4.25925, 0.1206665, 4.25925, -0.9798584, 4.25925, -0.3009033, 4.25925, 0.4580153, 4.25925, -0.0610687, 4.25925, -3.4732823
0.5018824, -0.0191348, 4.266, 0.1236572, 4.266, -0.9820557, 4.266, -0.3032227, 4.266, 0.6335878, 4.266, 0.5343512, 4.266, -3.259542
0.5026765, -0.018967, 4.27275, 0.1241455, 4.27275, -0.9802246, 4.27275, -0.3035889, 4.27275, 0.740458, 4.27275, 0.5648855, 4.27275, -3.2748091
0.5034706, -0.0176242, 4.2795, 0.1187134, 4.2795, -0.9763184, 4.2795, -0.305481, 4.2795, 0.8015267, 4.2795, 0.4656489, 4.2795, -3.2442749
0.5042647, -0.0176242, 4.28625, 0.1220703, 4.28625, -0.9750977, 4.28625, -0.3056641, 4.28625, 0.8015267, 4.28625, 0.5572519, 4.28625, -3.0992367
0.5050588, -0.0179599, 4.293, 0.1208496, 4.293, -0.9750977, 4.293, -0.3043213, 4.293, 0.908397, 4.293, 0.5267175, 4.293, -3.091603
0.5058529, -0.0109102, 4.29975, 0.1195068, 4.29975, -0.9764404, 4.29975, -0.3068848, 4.29975, 1.0458015, 4.29975, 0.519084, 4.29975, -3.0687022
0.5066471, -0.008896, 4.3065, 0.1149292, 4.3065, -0.973938, 4.3065, -0.3106689, 4.3065, 1.1068702, 4.3065, 0.5725191, 4.3065, -3.038168
0.5074412, -0.0105745, 4.31325, 0.1223145, 4.31325, -0.979126, 4.31325, -0.3084106, 4.31325, 1.1679389, 4.31325, 0.1221374, 4.31325, -3.0992367
0.5082353, -0.0078889, 4.32, 0.1270752, 4.32, -0.9781494, 4.32, -0.3023682, 4.32, 1.2824427, 4.32, 0.2442748, 4.32, -2.961832
0.5090294, -0.0104067, 4.32675, 0.1274414, 4.32675, -0.979248, 4.32675, -0.3086548, 4.32675, 1.0687023, 4.32675, 0.5801527, 4.32675, -2.9007633
0.5098235, -0.0102388, 4.3335, 0.1265259, 4.3335, -0.9807129, 4.3335, -0.3100586, 4.3335, 0.4427481, 4.3335, 0.8244275, 4.3335, -2.8854961
0.5106176, -0.0095674, 4.34025, 0.119751, 4.34025, -0.9764404, 4.34025, -0.3094482, 4.34025, 0.1755725, 4.34025, 1.0610687, 4.34025, -2.8320611
0.5114118, -0.0119173, 4.347, 0.1173096, 4.347, -0.9775391, 4.347, -0.3118286, 4.347, 0.1526718, 4.347, 1.1450381, 4.347, -2.7938931
0.5122059, -0.01561, 4.35375, 0.1121216, 4.35375, -0.9748535, 4.35375, -0.3070679, 4.35375, 0.3282443, 4.35375, 1.1221374, 4.35375, -2.8931298
0.513, -0.0152743, 4.3605, 0.1096191, 4.3605, -0.9781494, 4.3605, -0.3065796, 4.3605, 0.2977099, 4.3605, 1.038168, 4.3605, -2.8473282
0.5137941, -0.0169528, 4.36725, 0.1116333, 4.36725, -0.9794922, 4.36725, -0.3086548, 4.36725, 0.7099237, 4.36725, 0.4656489, 4.36725, -3.0229008
0.5145882, -0.0203098, 4.374, 0.1136475, 4.374, -0.9772339, 4.374, -0.3078613, 4.374, 0.6717557, 4.374, 0.4885496, 4.374, -2.9312978
0.5153824, -0.0216526, 4.38075, 0.1176758, 4.38075, -0.9749756, 4.38075, -0.3059082, 4.38075, 0.4427481, 4.38075, 0.5496183, 4.38075, -2.7633588
0.5161765, -0.0236667, 4.3875, 0.1168213, 4.3875, -0.9749146, 4.3875, -0.3040161, 4.3875, 0.7938932, 4.3875, 0.3282443, 4.3875, -3.0534351
0.5169706, -0.0231632, 4.39425, 0.1195679, 4.39425, -0.9802856, 4.39425, -0.3025513, 4.39425, 1.1832061, 4.39425, 0.4580153, 4.39425, -3.2061069
0.5177647, -0.0209812, 4.401, 0.1246338, 4.401, -0.9799194, 4.401, -0.2997437, 4.401, 1.3435115, 4.401, 0.3358779, 4.401, -3.3587787
0.5185588, -0.0186313, 4.40775, 0.1268921, 4.40775, -0.9797974, 4.40775, -0.302002, 4.40775, 1.2442749, 4.40775, 0.7557252, 4.40775, -3.3587787
0.5193529, -0.0179599, 4.4145, 0.1248169, 4.4145, -0.9775391, 4.4145, -0.3067627, 4.4145, 1.0763359, 4.4145, 1.4732825, 4.4145, -3.1068702
0.5201471, -0.0199741, 4.42125, 0.1192627, 4.42125, -0.9780273, 4.42125, -0.3052979, 4.42125, 0.9389313, 4.42125, 1.389313, 4.42125, -3.0152671
0.5209412, -0.0137636, 4.428, 0.1218872, 4.428, -0.9816284, 4.428, -0.305603, 4.428, 0.961832, 4.428, 1.7022901, 4.428, -2.6946564
0.5217353, -0.0117494, 4.43475, 0.1206055, 4.43475, -0.9768066, 4.43475, -0.310791, 4.43475, 0.8091603, 4.43475, 1.7328244, 4.43475, -2.8778627
0.5225294, -0.0166171, 4.4415, 0.1160889, 4.4415, -0.9763184, 4.4415, -0.3109741, 4.4415, 0.519084, 4.4415, 1.8091604, 4.4415, -3.1526718
0.5233235, -0.0162814, 4.44825, 0.1154785, 4.44825, -0.9784546, 4.44825, -0.3138428, 4.44825, 0.4885496, 4.44825, 1.519084, 4.44825, -2.9312978
0.5241176, -0.0152743, 4.455, 0.116272, 4.455, -0.9762573, 4.455, -0.3135986, 4.455, 0.5725191, 4.455, 1.3740458, 4.455, -3.0534351
0.5249118, -0.0125887, 4.46175, 0.1165771, 4.46175, -0.975708, 4.46175, -0.3118896, 4.46175, 0.7557252, 4.46175, 1.0839695, 4.46175, -2.8091602
0.5257059, -0.012253, 4.4685, 0.116333, 4.4685, -0.9764404, 4.4685, -0.3118286, 4.4685, 0.6335878, 4.4685, 1.0839695, 4.4685, -3.2366412
0.5265, -0.0102388, 4.47525, 0.1179199, 4.47525, -0.9776001, 4.47525, -0.3063354, 4.47525, 0.4580153, 4.47525, 0.7862595, 4.47525, -3.1984732
0.5272941, -0.0092317, 4.482, 0.119873, 4.482, -0.9789429, 4.482, -0.2992554, 4.482, 0.259542, 4.482, 0.5419847, 4.482, -3.4503818
0.5280882, -0.0092317, 4.48875, 0.1203613, 4.48875, -0.9767456, 4.48875, -0.3045044, 4.48875, 0.4351145, 4.48875, 0.5343512, 4.48875, -3.2290077
0.5288824, -0.012253, 4.4955, 0.1187744, 4.4955, -0.9761963, 4.4955, -0.3039551, 4.4955, 0.2824427, 4.4955, 0.9160305, 4.4955, -3.3282442
0.5296765, -0.0152743, 4.50225, 0.1192627, 4.50225, -0.9765015, 4.50225, -0.3001099, 4.50225, 0.2748092, 4.50225, 1.2442749, 4.50225, -3.091603
0.5304706, -0.0129244, 4.509, 0.1182251, 4.509, -0.975708, 4.509, -0.3027344, 4.509, 0.6030535, 4.509, 1.389313, 4.509, -3.3206108
0.5312647, -0.0132601, 4.51575, 0.1191406, 4.51575, -0.9753418, 4.51575, -0.3117065, 4.51575, 0.7022901, 4.51575, 1.259542, 4.51575, -3.2824428
0.5320588, -0.0149386, 4.5225, 0.1189575, 4.5225, -0.9755859, 4.5225, -0.3092651, 4.5225, 0.7557252, 4.5225, 1.2061069, 4.5225, -3.0687022
0.5328529, -0.0191348, 4.52925, 0.1154785, 4.52925, -0.9735718, 4.52925, -0.3103638, 4.52925, 0.7099237, 4.52925, 1.2137405, 4.52925, -3.1526718
0.5336471, -0.0193027, 4.536, 0.1176758, 4.536, -0.9768677, 4.536, -0.3148804, 4.536, 0.8320611, 4.536, 1.0839695, 4.536, -3.1984732
0.5344412, -0.0142672, 4.54275, 0.1210327, 4.54275, -0.9777832, 4.54275, -0.3126221, 4.54275, 0.7862595, 4.54275, 1.0610687, 4.54275, -3.3740458
0.5352353, -0.0135958, 4.5495, 0.1220703, 4.5495, -0.9777832, 4.5495, -0.3096313, 4.5495, 0.5954198, 4.5495, 0.7709923, 4.5495, -3.3664122
0.5360294, -0.0117494, 4.55625, 0.1199341, 4.55625, -0.9784546, 4.55625, -0.3121338, 4.55625, 0.7862595, 4.55625, 1.1221374, 4.55625, -3.3587787
0.5368235, -0.0164492, 4.563, 0.1177979, 4.563, -0.9782104, 4.563, -0.3135376, 4.563, 0.9160305, 4.563, 1.0610687, 4.563, -3.259542
0.5376176, -0.0142672, 4.56975, 0.1206055, 4.56975, -0.9786377, 4.56975, -0.3152466, 4.56975, 0.8778626, 4.56975, 0.5725191, 4.56975, -3.0229008
0.5384118, -0.01561, 4.5765, 0.1199951, 4.5765, -0.977356, 4.5765, -0.3106689, 4.5765, 0.8244275, 4.5765, 0.4732825, 4.5765, -3.4045801
0.5392059, -0.0162814, 4.58325, 0.1204834, 4.58325, -0.9761353, 4.58325, -0.3120117, 4.58325, 0.6030535, 4.58325, 0.221374, 4.58325, -3.3740458
0.54, -0.0149386, 4.59, 0.1160278, 4.59, -0.977478, 4.59, -0.3081665, 4.59, 0.7480916, 4.59, 0.1908397, 4.59, -3.4274809
0.5407941, -0.0112459, 4.59675, 0.1147461, 4.59675, -0.9778442, 4.59675, -0.3081665, 4.59675, 0.7328244, 4.59675, 0.129771, 4.59675, -3.2061069
0.5415882, -0.0083925, 4.6035, 0.1179199, 4.6035, -0.9760132, 4.6035, -0.3088989, 4.6035, 0.9694657, 4.6035, 0.2061069, 4.6035, -3.4045801
0.5423824, -0.0112459, 4.61025, 0.1195679, 4.61025, -0.9788208, 4.61025, -0.3112793, 4.61025, 1.1526718, 4.61025, 0.2061069, 4.61025, -3.2977099
0.5431765, -0.0125887, 4.617, 0.1235962, 4.617, -0.9764404, 4.617, -0.3106689, 4.617, 0.9541985, 4.617, 0.6564885, 4.617, -3.3664122
0.5439706, -0.0115816, 4.62375, 0.1225586, 4.62375, -0.977417, 4.62375, -0.3094482, 4.62375, 0.7633588, 4.62375, 0.961832, 4.62375, -3.1450381
0.5447647, -0.0129244, 4.6305, 0.1183472, 4.6305, -0.9793091, 4.6305, -0.3095093, 4.6305, 0.7480916, 4.6305, 1.0458015, 4.6305, -3.4122138
0.5455588, -0.0140993, 4.63725, 0.1121216, 4.63725, -0.9782715, 4.63725, -0.3108521, 4.63725, 0.9160305, 4.63725, 0.8167939, 4.63725, -3.1221373
0.5463529, -0.0172885, 4.644, 0.1138306, 4.644, -0.9781494, 4.644, -0.3101196, 4.644, 0.9312977, 4.644, 0.8091603, 4.644, -3.1984732
0.5471471, -0.01561, 4.65075, 0.1185913, 4.65075, -0.975647, 4.65075, -0.3085327, 4.65075, 0.9541985, 4.65075, 0.5877863, 4.65075, -3.259542
0.5479412, -0.0162814, 4.6575, 0.1166992, 4.6575, -0.9768677, 4.6575, -0.3057251, 4.6575, 1.1145039, 4.6575, 0.5419847, 4.6575, -3.4198472
0.5487353, -0.021149, 4.66425, 0.1171265, 4.66425, -0.9779053, 4.66425, -0.3050537, 4.66425, 1.1832061, 4.66425, 0.6564885, 4.66425, -3.2900763
0.5495294, -0.0203098, 4.671, 0.1174927, 4.671, -0.9753418, 4.671, -0.303772, 4.671, 1.0992366, 4.671, 0.6717557, 4.671, -3.129771
0.5503235, -0.0196384, 4.67775, 0.1194458, 4.67775, -0.9761353, 4.67775, -0.3044434, 4.67775, 1.389313, 4.67775, 0.8549618, 4.67775, -3.1450381
0.5511176, -0.0179599, 4.6845, 0.1184692, 4.6845, -0.973938, 4.6845, -0.3070068, 4.6845, 1.5419847, 4.6845, 1.0305344, 4.6845, -3.2519083
0.5519118, -0.021149, 4.69125, 0.1193848, 4.69125, -0.9761963, 4.69125, -0.3062744, 4.69125, 1.6564885, 4.69125, 1.1908396, 4.69125, -3.351145
0.5527059, -0.0250095, 4.698, 0.118042, 4.698, -0.9780273, 4.698, -0.3099976, 4.698, 1.5343511, 4.698, 0.8931298, 4.698, -3.3664122
0.5535, -0.0223239, 4.70475, 0.1134644, 4.70475, -0.9781494, 4.70475, -0.31073, 4.70475, 1.7099236, 4.70475, 0.6870229, 4.70475, -3.4656489
0.5542941, -0.0216526, 4.7115, 0.1118164, 4.7115, -0.9798584, 4.7115, -0.3097534, 4.7115, 1.6793894, 4.7115, 0.5419847, 4.7115, -3.3740458
0.5550882, -0.0223239, 4.71825, 0.1141968, 4.71825, -0.9799805, 4.71825, -0.3136597, 4.71825, 1.1679389, 4.71825, 0.2290076, 4.71825, -3.4122138
0.5558824, -0.0169528, 4.725, 0.1174316, 4.725, -0.9749756, 4.725, -0.3093262, 4.725, 0.5725191, 4.725, -0.8015267, 4.725, -3.6412213
0.5566765, -0.0166171, 4.73175, 0.121582, 4.73175, -0.9752808, 4.73175, -0.3060913, 4.73175, 0.5267175, 4.73175, -1.0839695, 4.73175, -3.7862597
0.5574706, -0.0129244, 4.7385, 0.1255493, 4.7385, -0.9766846, 4.7385, -0.309021, 4.7385, 0.4885496, 4.7385, -0.6946565, 4.7385, -3.7862597
0.5582647, -0.0142672, 4.74525, 0.1237183, 4.74525, -0.9782104, 4.74525, -0.3040161, 4.74525, 0.1603053, 4.74525, -0.4427481, 4.74525, -3.6641221
0.5590588, -0.0162814, 4.752, 0.1257324, 4.752, -0.9796753, 4.752, -0.3043213, 4.752, 0.4885496, 4.752, -0.129771, 4.752, -3.4580152
0.5598529, -0.0162814, 4.75875, 0.1185913, 4.75875, -0.9779663, 4.75875, -0.3053589, 4.75875, 0.6183206, 4.75875, 0.2366412, 4.75875, -3.519084
0.5606471, -0.0166171, 4.7655, 0.1147461, 4.7655, -0.9761353, 4.7655, -0.307373, 4.7655, 0.6641222, 4.7655, 0.2748092, 4.7655, -3.4351146
0.5614412, -0.0167849, 4.77225, 0.1172485, 4.77225, -0.9745483, 4.77225, -0.3049316, 4.77225, 0.7099237, 4.77225, 0.3587786, 4.77225, -3.5114503
0.5622353, -0.0181277, 4.779, 0.116272, 4.779, -0.9744263, 4.779, -0.3046875, 4.779, 0.6335878, 4.779, 0.5496183, 4.779, -3.4274809
0.5630294, -0.012253, 4.78575, 0.1157227, 4.78575, -0.97229, 4.78575, -0.3085938, 4.78575, 0.8854962, 4.78575, 0.3587786, 4.78575, -3.5572519
0.5638235, -0.0105745, 4.7925, 0.1127319, 4.7925, -0.9768066, 4.7925, -0.3087769, 4.7925, 0.7862595, 4.7925, 0.1832061, 4.7925, -3.5725191
0.5646176, -0.0129244, 4.79925, 0.1220093, 4.79925, -0.9801636, 4.79925, -0.3068848, 4.79925, 1.0076336, 4.79925, 0.4122137, 4.79925, -3.5343511
0.5654118, -0.017792, 4.806, 0.1274414, 4.806, -0.9802856, 4.806, -0.3099365, 4.806, 1.2748091, 4.806, 0.6946565, 4.806, -3.4503818
0.5662059, -0.0169528, 4.81275, 0.1293945, 4.81275, -0.9797974, 4.81275, -0.3093872, 4.81275, 1.1908396, 4.81275, 0.9541985, 4.81275, -3.5572519
0.567, -0.0132601, 4.8195, 0.1288452, 4.8195, -0.9798584, 4.8195, -0.3079224, 4.8195, 1.2748091, 4.8195, 0.7175573, 4.8195, -3.389313
0.5677941, -0.0129244, 4.82625, 0.1268921, 4.82625, -0.9781494, 4.82625, -0.3076782, 4.82625, 1.1603054, 4.82625, 0.5877863, 4.82625, -3.2671757
0.5685882, -0.0152743, 4.833, 0.1260986, 4.833, -0.9783936, 4.833, -0.3032227, 4.833, 1.1374046, 4.833, 0.7938932, 4.833, -3.389313
0.5693824, -0.017792, 4.83975, 0.1265259, 4.83975, -0.9834595, 4.83975, -0.3021851, 4.83975, 1.0992366, 4.83975, 0.9160305, 4.83975, -3.3664122
0.5701765, -0.0182956, 4.8465, 0.1253052, 4.8465, -0.9744263, 4.8465, -0.3062134, 4.8465, 1.2824427, 4.8465, 1.1984733, 4.8465, -3.4656489
0.5709706, -0.0194705, 4.85325, 0.1176147, 4.85325, -0.973999, 4.85325, -0.3135986, 4.85325, 1.1679389, 4.85325, 1.6717557, 4.85325, -3.5419848
0.5717647, -0.0193027, 4.86, 0.1160889, 4.86, -0.9765625, 4.86, -0.3151855, 4.86, 1.0687023, 4.86, 1.6030535, 4.86, -3.3969467
0.5725588, -0.0142672, 4.86675, 0.1184692, 4.86675, -0.9747925, 4.86675, -0.3084717, 4.86675, 0.8015267, 4.86675, 1.351145, 4.86675, -3.3969467
0.5733529, -0.0146029, 4.8735, 0.1170654, 4.8735, -0.9798584, 4.8735, -0.3049927, 4.8735, 0.8778626, 4.8735, 1.4503816, 4.8735, -3.2900763
0.5741471, -0.0135958, 4.88025, 0.1141357, 4.88025, -0.9797363, 4.88025, -0.307251, 4.88025, 0.908397, 4.88025, 1.6259542, 4.88025, -3.4885497
0.5749412, -0.0117494, 4.887, 0.1222534, 4.887, -0.9790649, 4.887, -0.3095703, 4.887, 0.7938932, 4.887, 1.7709924, 4.887, -3.4274809
0.5757353, -0.0125887, 4.89375, 0.1221924, 4.89375, -0.9760742, 4.89375, -0.3084717, 4.89375, 0.8167939, 4.89375, 1.4961832, 4.89375, -3.4503818
0.5765294, -0.0137636, 4.9005, 0.1219482, 4.9005, -0.9729614, 4.9005, -0.307373, 4.9005, 0.8244275, 4.9005, 1.740458, 4.9005, -3.038168
0.5773235, -0.0132601, 4.90725, 0.1224365, 4.90725, -0.9749146, 4.90725, -0.307251, 4.90725, 0.870229, 4.90725, 1.870229, 4.90725, -3
0.5781176, -0.0112459, 4.914, 0.1228027, 4.914, -0.9781494, 4.914, -0.3131104, 4.914, 0.6946565, 4.914, 1.5954199, 4.914, -2.8931298
0.5789118, -0.0132601, 4.92075, 0.1196289, 4.92075, -0.9788208, 4.92075, -0.3084106, 4.92075, 0.6870229, 4.92075, 1.7175573, 4.92075, -3.1908398
0.5797059, -0.0135958, 4.9275, 0.1171265, 4.9275, -0.9743042, 4.9275, -0.3117065, 4.9275, 0.8244275, 4.9275, 1.5114504, 4.9275, -3.0687022
0.5805, -0.0152743, 4.93425, 0.1184692, 4.93425, -0.9733887, 4.93425, -0.3070068, 4.93425, 1.1603054, 4.93425, 1.6412214, 4.93425, -3.0076337
0.5812941, -0.018967, 4.941, 0.119873, 4.941, -0.9769897, 4.941, -0.307373, 4.941, 1.0839695, 4.941, 1.5419847, 4.941, -3.1145039
0.5820882, -0.0206455, 4.94775, 0.1199951, 4.94775, -0.9765015, 4.94775, -0.3146973, 4.94775, 0.961832, 4.94775, 1.1755725, 4.94775, -3.1068702
0.5828824, -0.0229953, 4.9545, 0.1176147, 4.9545, -0.9765625, 4.9545, -0.3066406, 4.9545, 0.3969466, 4.9545, 0.4961832, 4.9545, -3.4580152
0.5836765, -0.0236667, 4.96125, 0.1173706, 4.96125, -0.9760132, 4.96125, -0.3051758, 4.96125, 0.5114504, 4.96125, 0.2977099, 4.96125, -3.5496182
0.5844706, -0.0224918, 4.968, 0.1193237, 4.968, -0.9802856, 4.968, -0.3019409, 4.968, 0.1068702, 4.968, 0.0534351, 4.968, -3.3664122
0.5852647, -0.0223239, 4.97475, 0.1257935, 4.97475, -0.9798584, 4.97475, -0.3013916, 4.97475, 0.5038168, 4.97475, 0.2137405, 4.97475, -3.3969467
0.5860588, -0.018967, 4.9815, 0.1254272, 4.9815, -0.9793701, 4.9815, -0.3078613, 4.9815, 0.6030535, 4.9815, 0.4274809, 4.9815, -3.2137403
0.5868529, -0.0129244, 4.98825, 0.1238403, 4.98825, -0.9769897, 4.98825, -0.3067627, 4.98825, 0.6564885, 4.98825, 0.7862595, 4.98825, -3.2137403
0.5876471, -0.0085603, 4.995, 0.1209106, 4.995, -0.9765625, 4.995, -0.307373, 4.995, 0.6183206, 4.995, 0.6946565, 4.995, -3.389313
0.5884412, -0.0115816, 5.00175, 0.1205444, 5.00175, -0.9753418, 5.00175, -0.3110352, 5.00175, 0.7557252, 5.00175, 0.5877863, 5.00175, -3.0458016
0.5892353, -0.0142672, 5.0085, 0.123291, 5.0085, -0.9780884, 5.0085, -0.3114014, 5.0085, 0.7480916, 5.0085, 0.870229, 5.0085, -3.1068702
0.5900294, -0.0135958, 5.01525, 0.1154785, 5.01525, -0.9759521, 5.01525, -0.3057861, 5.01525, 0.9007633, 5.01525, 0.9007633, 5.01525, -3.2061069
0.5908235, -0.0102388, 5.022, 0.1141968, 5.022, -0.9794922, 5.022, -0.3024292, 5.022, 0.8320611, 5.022, 0.778626, 5.022, -3.2137403
0.5916176, -0.0058747, 5.02875, 0.1119385, 5.02875, -0.9793701, 5.02875, -0.3029785, 5.02875, 0.9160305, 5.02875, 0.7480916, 5.02875, -3.2748091
0.5924118, -0.0045319, 5.0355, 0.1193237, 5.0355, -0.9796753, 5.0355, -0.3065186, 5.0355, 1.1221374, 5.0355, 0.3282443, 5.0355, -3.259542
0.5932059, -0.0072175, 5.04225, 0.119812, 5.04225, -0.9754028, 5.04225, -0.3028564, 5.04225, 0.9923664, 5.04225, 0.2748092, 5.04225, -3.4274809
0.594, -0.0063783, 5.049, 0.1212158, 5.049, -0.9780884, 5.049, -0.303772, 5.049, 0.8015267, 5.049, 0.4045801, 5.049, -3.1679389
0.5947941, -0.005539, 5.05575, 0.1217651, 5.05575, -0.9784546, 5.05575, -0.3005371, 5.05575, 0.9694657, 5.05575, 0.5419847, 5.05575, -3.351145
0.5955882, -0.0092317, 5.0625, 0.1208496, 5.0625, -0.9796143, 5.0625, -0.3084106, 5.0625, 1.3282443, 5.0625, 0.7480916, 5.0625, -3.1374047
0.5963824, -0.0102388, 5.06925, 0.1236572, 5.06925, -0.9737549, 5.06925, -0.31073, 5.06925, 1.129771, 5.06925, 1.1145039, 5.06925, -3.0610688
0.5971765, -0.0063783, 5.076, 0.1240234, 5.076, -0.9753418, 5.076, -0.3081665, 5.076, 0.8015267, 5.076, 0.9770992, 5.076, -3.1221373
0.5979706, -0.0065461, 5.08275, 0.1206665, 5.08275, -0.9780884, 5.08275, -0.3070679, 5.08275, 1.0458015, 5.08275, 1.1755725, 5.08275, -3.1526718
0.5987647, -0.0078889, 5.0895, 0.1200562, 5.0895, -0.9760132, 5.0895, -0.3114014, 5.0895, 0.7709923, 5.0895, 1.3358779, 5.0895, -3.3129771
0.5995588, -0.0095674, 5.09625, 0.1188965, 5.09625, -0.9790649, 5.09625, -0.3116455, 5.09625, 0.4274809, 5.09625, 1.5343511, 5.09625, -3.2137403
0.6003529, -0.0092317, 5.103, 0.1235352, 5.103, -0.9772339, 5.103, -0.305481, 5.103, 0.3587786, 5.103, 0.8549618, 5.103, -3.3358779
0.6011471, -0.0062104, 5.10975, 0.1266479, 5.10975, -0.9758911, 5.10975, -0.3066406, 5.10975, 0.519084, 5.10975, 0.2671756, 5.10975, -3.4656489
0.6019412, -0.008896, 5.1165, 0.1221313, 5.1165, -0.9735107, 5.1165, -0.3092651, 5.1165, 0.480916, 5.1165, 0.5496183, 5.1165, -3.2671757
0.6027353, -0.0099031, 5.12325, 0.1209106, 5.12325, -0.9754639, 5.12325, -0.3128662, 5.12325, 0.4961832, 5.12325, 0.6335878, 5.12325, -3.3129771
0.6035294, -0.0117494, 5.13, 0.1195068, 5.13, -0.9770508, 5.13, -0.3121948, 5.13, 0.5038168, 5.13, 0.8854962, 5.13, -3.2137403
0.6043235, -0.0129244, 5.13675, 0.1205444, 5.13675, -0.9798584, 5.13675, -0.3110352, 5.13675, 0.7175573, 5.13675, 1.1755725, 5.13675, -3.1450381
0.6051176, -0.0154421, 5.1435, 0.119751, 5.1435, -0.9760132, 5.1435, -0.3100586, 5.1435, 0.7175573, 5.1435, 0.9541985, 5.1435, -3.1450381
0.6059118, -0.01561, 5.15025, 0.119873, 5.15025, -0.977417, 5.15025, -0.3104858, 5.15025, 0.7862595, 5.15025, 1.0229008, 5.15025, -3.1450381
0.6067059, -0.0109102, 5.157, 0.1146851, 5.157, -0.9753418, 5.157, -0.3110962, 5.157, 0.7175573, 5.157, 0.8015267, 5.157, -3.2061069
0.6075, -0.0068818, 5.16375, 0.1154175, 5.16375, -0.9752197, 5.16375, -0.3048096, 5.16375, 0.7862595, 5.16375, 0.5419847, 5.16375, -3.2977099
0.6082941, -0.0102388, 5.1705, 0.1193237, 5.1705, -0.9794312, 5.1705, -0.3102417, 5.1705, 0.7938932, 5.1705, 0.8244275, 5.1705, -3.2442749
0.6090882, -0.018967, 5.17725, 0.1239624, 5.17725, -0.9779663, 5.17725, -0.3034058, 5.17725, 1.091603, 5.17725, 0.6030535, 5.17725, -3.129771
0.6098824, -0.0229953, 5.184, 0.12323, 5.184, -0.9750366, 5.184, -0.3070679, 5.184, 1.259542, 5.184, 0.9236641, 5.184, -3.3587787
0.6106765, -0.0209812, 5.19075, 0.1281128, 5.19075, -0.9789429, 5.19075, -0.3046875, 5.19075, 0.9847328, 5.19075, 1.1832061, 5.19075, -3.2977099
0.6114706, -0.0157778, 5.1975, 0.1256714, 5.1975, -0.9801025, 5.1975, -0.3057861, 5.1975, 1.1984733, 5.1975, 0.9541985, 5.1975, -3.2900763
0.6122647, -0.0176242, 5.20425, 0.1274414, 5.20425, -0.9778442, 5.20425, -0.3104248, 5.20425, 0.9694657, 5.20425, 0.8244275, 5.20425, -3.0534351
0.6130588, -0.0203098, 5.211, 0.1244507, 5.211, -0.9785767, 5.211, -0.3130493, 5.211, 1.259542, 5.211, 0.6641222, 5.211, -3.3129771
0.6138529, -0.0164492, 5.21775, 0.1208496, 5.21775, -0.9788818, 5.21775, -0.31073, 5.21775, 1.1145039, 5.21775, 0.4427481, 5.21775, -3.2442749
0.6146471, -0.0146029, 5.2245, 0.1134644, 5.2245, -0.9782104, 5.2245, -0.312439, 5.2245, 1.2366412, 5.2245, 0.3587786, 5.2245, -3.2671757
0.6154412, -0.0204776, 5.23125, 0.1170044, 5.23125, -0.9775391, 5.23125, -0.3085327, 5.23125, 1.129771, 5.23125, 0.1755725, 5.23125, -3.389313
0.6162353, -0.0149386, 5.238, 0.1184082, 5.238, -0.9788208, 5.238, -0.3129272, 5.238, 1.1526718, 5.238, 0.351145, 5.238, -3.351145
0.6170294, -0.0172885, 5.24475, 0.1154785, 5.24475, -0.9760742, 5.24475, -0.3118896, 5.24475, 0.8778626, 5.24475, 0.6946565, 5.24475, -3.480916
0.6178235, -0.0236667, 5.2515, 0.1184692, 5.2515, -0.9778442, 5.2515, -0.303772, 5.2515, 0.7480916, 5.2515, 0.740458, 5.2515, -3.3969467
0.6186176, -0.0243381, 5.25825, 0.1173096, 5.25825, -0.9780884, 5.25825, -0.3059692, 5.25825, 0.9923664, 5.25825, 0.8854962, 5.25825, -3.2442749
0.6194118, -0.0223239, 5.265, 0.1177979, 5.265, -0.9750977, 5.265, -0.3088989, 5.265, 0.8931298, 5.265, 0.5114504, 5.265, -3.3282442
0.6202059, -0.0246738, 5.27175, 0.1140747, 5.27175, -0.9780273, 5.27175, -0.3080444, 5.27175, 0.7175573, 5.27175, 0.7099237, 5.27175, -3.2977099
0.621, -0.0270237, 5.2785, 0.1168213, 5.2785, -0.9779053, 5.2785, -0.3065796, 5.2785, 0.961832, 5.2785, 0.6870229, 5.2785, -3.2061069
0.6217941, -0.0260166, 5.28525, 0.1193848, 5.28525, -0.9749756, 5.28525, -0.3077393, 5.28525, 0.7328244, 5.28525, 0.5114504, 5.28525, -3.259542
0.6225882, -0.0243381, 5.292, 0.1184692, 5.292, -0.973999, 5.292, -0.3077393, 5.292, 0.5343512, 5.292, 0.5419847, 5.292, -3.2824428
0.6233824, -0.0201419, 5.29875, 0.118042, 5.29875, -0.9776001, 5.29875, -0.3060913, 5.29875, 0.6793893, 5.29875, 0.7938932, 5.29875, -3.1984732
0.6241765, -0.0157778, 5.3055, 0.1235352, 5.3055, -0.9785156, 5.3055, -0.3102417, 5.3055, 0.7633588, 5.3055, 0.8167939, 5.3055, -3.129771
0.6249706, -0.0132601, 5.31225, 0.1225586, 5.31225, -0.9768066, 5.31225, -0.3187256, 5.31225, 0.8167939, 5.31225, 0.8778626, 5.31225, -3.1068702
0.6257647, -0.0102388, 5.319, 0.1218262, 5.319, -0.9730225, 5.319, -0.3192749, 5.319, 0.7633588, 5.319, 0.870229, 5.319, -3.1755726
0.6265588, -0.0102388, 5.32575, 0.1237793, 5.32575, -0.9763794, 5.32575, -0.3086548, 5.32575, 0.4503817, 5.32575, 1.2137405, 5.32575, -3.3816793
0.6273529, -0.0109102, 5.3325, 0.1221313, 5.3325, -0.9783325, 5.3325, -0.3074951, 5.3325, 0.778626, 5.3325, 1.2671756, 5.3325, -3.3435113
0.6281471, -0.0099031, 5.33925, 0.1176758, 5.33925, -0.9796753, 5.33925, -0.3076172, 5.33925, 0.6259542, 5.33925, 1.1755725, 5.33925, -3.4045801
0.6289412, -0.0130922, 5.346, 0.1174316, 5.346, -0.9775391, 5.346, -0.3095703, 5.346, 0.8091603, 5.346, 0.9007633, 5.346, -3.4732823
0.6297353, -0.011078, 5.35275, 0.1233521, 5.35275, -0.9747925, 5.35275, -0.312561, 5.35275, 0.5954198, 5.35275, 0.610687, 5.35275, -3.5343511
0.6305294, -0.0102388, 5.3595, 0.1228027, 5.3595, -0.9768066, 5.3595, -0.305481, 5.3595, 0.8931298, 5.3595, 0.8396947, 5.3595, -3.5038168
0.6313235, -0.008896, 5.36625, 0.1259155, 5.36625, -0.9766235, 5.36625, -0.3035278, 5.36625, 1, 5.36625, 0.8320611, 5.36625, -3.480916
0.6321176, -0.0105745, 5.373, 0.1213379, 5.373, -0.9782715, 5.373, -0.305603, 5.373, 1.0839695, 5.373, 1, 5.373, -3.389313
0.6329118, -0.0149386, 5.37975, 0.1193848, 5.37975, -0.9769287, 5.37975, -0.3095703, 5.37975, 1.1755725, 5.37975, 0.908397, 5.37975, -3.3740458
0.6337059, -0.0151064, 5.3865, 0.1152344, 5.3865, -0.9798584, 5.3865, -0.3110962, 5.3865, 1.3053435, 5.3865, 0.6641222, 5.3865, -3.5725191
0.6345, -0.0164492, 5.39325, 0.1173096, 5.39325, -0.9784546, 5.39325, -0.3088379, 5.39325, 1.3664122, 5.39325, 0.648855, 5.39325, -3.4427481
0.6352941, -0.0203098, 5.4, 0.1199341, 5.4, -0.9780273, 5.4, -0.3050537, 5.4, 1.4045801, 5.4, 0.4656489, 5.4, -3.3587787
0.6360882, -0.0182956, 5.40675, 0.1240234, 5.40675, -0.9763794, 5.40675, -0.307251, 5.40675, 1.3587786, 5.40675, 0.5343512, 5.40675, -3.3435113
0.6368824, -0.0152743, 5.4135, 0.1212769, 5.4135, -0.9761353, 5.4135, -0.3109741, 5.4135, 1.3358779, 5.4135, 0.4656489, 5.4135, -3.5419848
0.6376765, -0.0149386, 5.42025, 0.1228027, 5.42025, -0.977356, 5.42025, -0.3078003, 5.42025, 1.2366412, 5.42025, 0.1526718, 5.42025, -3.5038168
0.6384706, -0.0157778, 5.427, 0.1223145, 5.427, -0.9790039, 5.427, -0.3069458, 5.427, 1.2977099, 5.427, 0.3053435, 5.427, -3.3282442
0.6392647, -0.0105745, 5.43375, 0.1196289, 5.43375, -0.9785156, 5.43375, -0.3078003, 5.43375, 1.5267175, 5.43375, -0.0992366, 5.43375, -3.1984732
0.6400588, -0.0070497, 5.4405, 0.1190796, 5.4405, -0.9745483, 5.4405, -0.3065796, 5.4405, 1.5877863, 5.4405, -0.259542, 5.4405, -3.1908398
0.6408529, -0.0075532, 5.44725, 0.1173706, 5.44725, -0.9789429, 5.44725, -0.3079834, 5.44725, 1.778626, 5.44725, -0.2977099, 5.44725, -3.3664122
0.6416471, -0.0062104, 5.454, 0.1166382, 5.454, -0.977356, 5.454, -0.3103638, 5.454, 1.3282443, 5.454, -0.7938932, 5.454, -3.389313
0.6424412, -0.0058747, 5.46075, 0.1209717, 5.46075, -0.9770508, 5.46075, -0.3083496, 5.46075, 1.4198474, 5.46075, -0.9312977, 5.46075, -3.4351146
0.6432353, -0.005539, 5.4675, 0.1297607, 5.4675, -0.975769, 5.4675, -0.3114014, 5.4675, 1.4198474, 5.4675, -1.1145039, 5.4675, -3.4656489
0.6440294, -0.0073854, 5.47425, 0.1276245, 5.47425, -0.9755859, 5.47425, -0.3070679, 5.47425, 1.091603, 5.47425, -0.740458, 5.47425, -3.4198472
0.6448235, -0.0092317, 5.481, 0.1278076, 5.481, -0.9769287, 5.481, -0.3098145, 5.481, 0.961832, 5.481, 0.0839695, 5.481, -3.3969467
0.6456176, -0.0082246, 5.48775, 0.1226807, 5.48775, -0.9747925, 5.48775, -0.3109131, 5.48775, 0.778626, 5.48775, 0.9007633, 5.48775, -3.2519083
0.6464118, -0.0129244, 5.4945, 0.1229248, 5.4945, -0.9760132, 5.4945, -0.3071289, 5.4945, 0.7175573, 5.4945, 1.0992366, 5.4945, -3.3053436
0.6472059, -0.012253, 5.50125, 0.1217041, 5.50125, -0.9751587, 5.50125, -0.3117676, 5.50125, 0.6641222, 5.50125, 1.3740458, 5.50125, -3.1603053
0.648, -0.0154421, 5.508, 0.1225586, 5.508, -0.9786377, 5.508, -0.3084106, 5.508, 0.740458, 5.508, 1.4351145, 5.508, -2.9847329
0.6487941, -0.01561, 5.51475, 0.1246948, 5.51475, -0.9787598, 5.51475, -0.3069458, 5.51475, 0.8549618, 5.51475, 1.7633588, 5.51475, -2.9923663
0.6495882, -0.0186313, 5.5215, 0.1213989, 5.5215, -0.973938, 5.5215, -0.3099365, 5.5215, 0.9465649, 5.5215, 1.5801526, 5.5215, -2.9312978
0.6503824, -0.026688, 5.52825, 0.121582, 5.52825, -0.9733276, 5.52825, -0.3114014, 5.52825, 1.1832061, 5.52825, 1.4580153, 5.52825, -2.9847329
0.6511765, -0.0246738, 5.535, 0.118042, 5.535, -0.9783936, 5.535, -0.3044434, 5.535, 1.2137405, 5.535, 1.3053435, 5.535, -2.8854961
0.6519706, -0.0193027, 5.54175, 0.1202393, 5.54175, -0.9803467, 5.54175, -0.303772, 5.54175, 1.351145, 5.54175, 1.2824427, 5.54175, -2.8396947
0.6527647, -0.0196384, 5.5485, 0.1231689, 5.5485, -0.9772339, 5.5485, -0.3048706, 5.5485, 1.3206106, 5.5485, 1.2748091, 5.5485, -2.6717558
0.6535588, -0.0127565, 5.55525, 0.1213989, 5.55525, -0.9759521, 5.55525, -0.3132324, 5.55525, 1.1832061, 5.55525, 1.5419847, 5.55525, -2.6335878
0.6543529, -0.0085603, 5.562, 0.1219482, 5.562, -0.9768066, 5.562, -0.3117065, 5.562, 0.9694657, 5.562, 1.5343511, 5.562, -2.7938931
0.6551471, -0.0099031, 5.56875, 0.1200562, 5.56875, -0.9759521, 5.56875, -0.3148804, 5.56875, 0.6870229, 5.56875, 1.2137405, 5.56875, -2.7480917
0.6559412, -0.0115816, 5.5755, 0.1166382, 5.5755, -0.9755859, 5.5755, -0.3060303, 5.5755, 0.389313, 5.5755, 0.5877863, 5.5755, -3.0152671
0.6567353, -0.0095674, 5.58225, 0.1142578, 5.58225, -0.9754028, 5.58225, -0.3120117, 5.58225, 0.4427481, 5.58225, 0.4732825, 5.58225, -3.1603053
0.6575294, -0.0152743, 5.589, 0.1116333, 5.589, -0.9793701, 5.589, -0.3082886, 5.589, 0.389313, 5.589, 0.259542, 5.589, -3.2900763
0.6583235, -0.0236667, 5.59575, 0.1119385, 5.59575, -0.9796753, 5.59575, -0.3035889, 5.59575, 0.5648855, 5.59575, -0.0610687, 5.59575, -3.259542
0.6591176, -0.0209812, 5.6025, 0.1226807, 5.6025, -0.9789429, 5.6025, -0.3026733, 5.6025, 0.8320611, 5.6025, -0.0916031, 5.6025, -3.221374
0.6599118, -0.0182956, 5.60925, 0.1282959, 5.60925, -0.980957, 5.60925, -0.3009033, 5.60925, 0.908397, 5.60925, 0.3740458, 5.60925, -3.5114503
0.6607059, -0.0142672, 5.616, 0.1268921, 5.616, -0.9768066, 5.616, -0.3084717, 5.616, 1.0687023, 5.616, 0.519084, 5.616, -3.3358779
0.6615, -0.0109102, 5.62275, 0.123291, 5.62275, -0.9776611, 5.62275, -0.3067017, 5.62275, 0.9847328, 5.62275, 0.5114504, 5.62275, -3.2290077
0.6622941, -0.0109102, 5.6295, 0.1190796, 5.6295, -0.9762573, 5.6295, -0.3080444, 5.6295, 1.0534351, 5.6295, 0.8091603, 5.6295, -3.1984732
0.6630882, -0.0129244, 5.63625, 0.1229248, 5.63625, -0.9768677, 5.63625, -0.3059692, 5.63625, 0.961832, 5.63625, 0.8396947, 5.63625, -2.9389312
0.6638824, -0.0169528, 5.643, 0.1156006, 5.643, -0.9758911, 5.643, -0.3071899, 5.643, 1.1450381, 5.643, 1.1068702, 5.643, -2.9312978
0.6646765, -0.0193027, 5.64975, 0.1175537, 5.64975, -0.9718018, 5.64975, -0.3076172, 5.64975, 1.3129771, 5.64975, 1.0458015, 5.64975, -2.8473282
0.6654706, -0.0182956, 5.6565, 0.1187134, 5.6565, -0.9708862, 5.6565, -0.3102417, 5.6565, 1.2519084, 5.6565, 1.2061069, 5.6565, -2.9236641
0.6662647, -0.0179599, 5.66325, 0.1203003, 5.66325, -0.9746094, 5.66325, -0.3092041, 5.66325, 1.2824427, 5.66325, 1.1221374, 5.66325, -2.7022901
0.6670588, -0.0203098, 5.67, 0.1233521, 5.67, -0.9768066, 5.67, -0.3080444, 5.67, 1.3129771, 5.67, 1.091603, 5.67, -2.648855
0.6678529, -0.0204776, 5.67675, 0.1212769, 5.67675, -0.9751587, 5.67675, -0.3093872, 5.67675, 1.129771, 5.67675, 1.3282443, 5.67675, -2.8167939
0.6686471, -0.0250095, 5.6835, 0.119751, 5.6835, -0.9758911, 5.6835, -0.3115845, 5.6835, 1.0687023, 5.6835, 1.091603, 5.6835, -2.8931298
0.6694412, -0.0263523, 5.69025, 0.1225586, 5.69025, -0.9760742, 5.69025, -0.3085327, 5.69025, 1.2061069, 5.69025, 0.9007633, 5.69025, -2.9465649
0.6702353, -0.0243381, 5.697, 0.1217041, 5.697, -0.9801636, 5.697, -0.3099365, 5.697, 1.1221374, 5.697, 0.8015267, 5.697, -2.8244274
0.6710294, -0.0203098, 5.70375, 0.1189575, 5.70375, -0.977356, 5.70375, -0.3087769, 5.70375, 1.0763359, 5.70375, 0.6793893, 5.70375, -2.9312978
0.6718235, -0.0196384, 5.7105, 0.1185913, 5.7105, -0.9776611, 5.7105, -0.3065186, 5.7105, 0.778626, 5.7105, 0.6946565, 5.7105, -3
0.6726176, -0.018967, 5.71725, 0.1168213, 5.71725, -0.9772949, 5.71725, -0.3065186, 5.71725, 0.8320611, 5.71725, 0.6793893, 5.71725, -2.9007633
0.6734118, -0.0157778, 5.724, 0.1228027, 5.724, -0.9780273, 5.724, -0.3110352, 5.724, 0.8549618, 5.724, 0.4961832, 5.724, -3.1068702
0.6742059, -0.0149386, 5.73075, 0.1156006, 5.73075, -0.9744873, 5.73075, -0.309082, 5.73075, 0.5267175, 5.73075, 0.8625954, 5.73075, -3.0458016
0.675, -0.0132601, 5.7375, 0.1137085, 5.7375, -0.9772949, 5.7375, -0.3039551, 5.7375, 0.7557252, 5.7375, 0.8396947, 5.7375, -3.129771
0.6757941, -0.0151064, 5.74425, 0.1166992, 5.74425, -0.9745483, 5.74425, -0.3126221, 5.74425, 1.1450381, 5.74425, 0.6335878, 5.74425, -2.9007633
0.6765882, -0.018967, 5.751, 0.1168213, 5.751, -0.9783936, 5.751, -0.3155518, 5.751, 0.9236641, 5.751, 0.8244275, 5.751, -3.129771
0.6773824, -0.0130922, 5.75775, 0.116272, 5.75775, -0.9772339, 5.75775, -0.3082886, 5.75775, 0.8625954, 5.75775, 0.6564885, 5.75775, -3.0992367
0.6781765, -0.0117494, 5.7645, 0.1171265, 5.7645, -0.9770508, 5.7645, -0.3062134, 5.7645, 1.038168, 5.7645, 0.648855, 5.7645, -3.129771
0.6789706, -0.011078, 5.77125, 0.117981, 5.77125, -0.9775391, 5.77125, -0.3044434, 5.77125, 1.1679389, 5.77125, 0.7099237, 5.77125, -3.0610688
