Application:, Trigno Discover (1.7.0)
Date/Time:, 2026/9/9 上午 10:15:30
Collection Length (seconds):, 41.769
Avanti Sensor 11 (69574)
sensor mode: 50
EMG 1 Time Series (s), EMG 1 (mV), ACC X Time Series (s), ACC X (G), ACC Y Time Series (s), ACC Y (G), ACC Z Time Series (s), ACC Z (G), GYRO X Time Series (s), GYRO X (deg/s), GYRO Y Time Series (s), GYRO Y (deg/s), GYRO Z Time Series (s), GYRO Z (deg/s)
, 1259.2593 Hz, , 148.1481 Hz, , 148.1481 Hz, , 148.1481 Hz, , 148.1481 Hz, , 148.1481 Hz, , 148.1481 Hz
0, -0.0164492, 0, -0.0580444, 0, -1.0004883, 0, -0.1989746, 0, 1.1603054, 0, 0.6793893, 0, -3.2442749
0.0007941, -0.014435, 0.00675, -0.057312, 0.00675, -0.9993896, 0.00675, -0.2015381, 0.00675, 1.0152671, 0.00675, 0.5877863, 0.00675, -3.2977099
0.0015882, -0.012253, 0.0135, -0.0577393, 0.0135, -0.9990234, 0.0135, -0.1993408, 0.0135, 1.1755725, 0.0135, 0.6259542, 0.0135, -3.2748091
0.0023824, -0.0157778, 0.02025, -0.0582886, 0.02025, -1.0012207, 0.02025, -0.2005615, 0.02025, 0.9694657, 0.02025, 0.610687, 0.02025, -3.1832061
0.0031765, -0.0154421, 0.027, -0.0549316, 0.027, -1.0010376, 0.027, -0.1989746, 0.027, 0.9847328, 0.027, 0.5114504, 0.027, -3.1374047
0.0039706, -0.0142672, 0.03375, -0.0584106, 0.03375, -1.0004272, 0.03375, -0.2005005, 0.03375, 1.0305344, 0.03375, 0.351145, 0.03375, -3.3053436
0.0047647, -0.0115816, 0.0405, -0.0609741, 0.0405, -0.9979248, 0.0405, -0.2025146, 0.0405, 1.129771, 0.0405, 0.3587786, 0.0405, -3.2824428
0.0055588, -0.0095674, 0.04725, -0.0580444, 0.04725, -1.0006714, 0.04725, -0.2005005, 0.04725, 0.9465649, 0.04725, 0.2824427, 0.04725, -3.221374
0.0063529, -0.0085603, 0.054, -0.0602417, 0.054, -1.0014038, 0.054, -0.1981812, 0.054, 1.0076336, 0.054, 0.2442748, 0.054, -3.1984732
0.0071471, -0.0082246, 0.06075, -0.0599976, 0.06075, -1.00177, 0.06075, -0.1993408, 0.06075, 1.0534351, 0.06075, 0.3587786, 0.06075, -3.4503818
0.0079412, -0.0105745, 0.0675, -0.0578613, 0.0675, -1.0015259, 0.0675, -0.1998901, 0.0675, 1.2366412, 0.0675, 0.4961832, 0.0675, -3.2442749
0.0087353, -0.0135958, 0.07425, -0.0608521, 0.07425, -0.9994507, 0.07425, -0.2017212, 0.07425, 1.1984733, 0.07425, 0.5114504, 0.07425, -3.3358779
0.0095294, -0.012253, 0.081, -0.0628052, 0.081, -0.9971924, 0.081, -0.2009888, 0.081, 1.0763359, 0.081, 0.6183206, 0.081, -3.4122138
0.0103235, -0.0142672, 0.08775, -0.0612793, 0.08775, -1.0012817, 0.08775, -0.2024536, 0.08775, 1.1068702, 0.08775, 0.1832061, 0.08775, -3.5343511
0.0111176, -0.01561, 0.0945, -0.0584106, 0.0945, -1.0006714, 0.0945, -0.199707, 0.0945, 1.0229008, 0.0945, 0.2748092, 0.0945, -3.3053436
0.0119118, -0.0182956, 0.10125, -0.0543213, 0.10125, -1.0012207, 0.10125, -0.1982422, 0.10125, 1.1374046, 0.10125, 0.1221374, 0.10125, -3.3969467
0.0127059, -0.0166171, 0.108, -0.0552979, 0.108, -0.9997559, 0.108, -0.1986694, 0.108, 1.0076336, 0.108, 0.3053435, 0.108, -3.3206108
0.0135, -0.0137636, 0.11475, -0.0524292, 0.11475, -1.0011597, 0.11475, -0.2003784, 0.11475, 1.3282443, 0.11475, 0.3358779, 0.11475, -3.3816793
0.0142941, -0.0162814, 0.1215, -0.0549927, 0.1215, -0.9996338, 0.1215, -0.2003784, 0.1215, 1.1068702, 0.1215, 0.2137405, 0.1215, -3.5267177
0.0150882, -0.0129244, 0.12825, -0.055542, 0.12825, -1.0014038, 0.12825, -0.199585, 0.12825, 1.1755725, 0.12825, 0.2671756, 0.12825, -3.3740458
0.0158824, -0.0129244, 0.135, -0.0551758, 0.135, -1.0009766, 0.135, -0.1975098, 0.135, 0.9541985, 0.135, 0.3129771, 0.135, -3.4732823
0.0166765, -0.0162814, 0.14175, -0.0545654, 0.14175, -1.0004272, 0.14175, -0.1963501, 0.14175, 1, 0.14175, 0.4656489, 0.14175, -3.3206108
0.0174706, -0.0135958, 0.1485, -0.0543823, 0.1485, -1.0007324, 0.1485, -0.1947021, 0.1485, 0.9694657, 0.1485, 0.7480916, 0.1485, -3.3587787
0.0182647, -0.0130922, 0.15525, -0.0548096, 0.15525, -1.0004272, 0.15525, -0.1957397, 0.15525, 1, 0.15525, 0.8167939, 0.15525, -3.5114503
0.0190588, -0.0125887, 0.162, -0.0544434, 0.162, -0.9989014, 0.162, -0.1984253, 0.162, 0.9694657, 0.162, 0.7862595, 0.162, -3.1984732
0.0198529, -0.0149386, 0.16875, -0.0559082, 0.16875, -1.000061, 0.16875, -0.1962891, 0.16875, 0.7328244, 0.16875, 0.8091603, 0.16875, -3.3129771
0.0206471, -0.0146029, 0.1755, -0.0518799, 0.1755, -0.9987183, 0.1755, -0.1983643, 0.1755, 0.7328244, 0.1755, 0.8778626, 0.1755, -3.1984732
0.0214412, -0.0152743, 0.18225, -0.0549927, 0.18225, -1.0003052, 0.18225, -0.1965332, 0.18225, 0.740458, 0.18225, 1.129771, 0.18225, -3.0458016
0.0222353, -0.012253, 0.189, -0.0552368, 0.189, -0.9997559, 0.189, -0.2009277, 0.189, 0.6412213, 0.189, 1.221374, 0.189, -3.1450381
0.0230294, -0.0139315, 0.19575, -0.0557861, 0.19575, -0.9986572, 0.19575, -0.2012329, 0.19575, 0.8778626, 0.19575, 1.1374046, 0.19575, -3.1755726
0.0238235, -0.0176242, 0.2025, -0.0534668, 0.2025, -0.9988403, 0.2025, -0.2009277, 0.2025, 0.9770992, 0.2025, 1.0610687, 0.2025, -3.2748091
0.0246176, -0.0176242, 0.20925, -0.0558472, 0.20925, -1.0007935, 0.20925, -0.2002563, 0.20925, 0.7938932, 0.20925, 1.0076336, 0.20925, -3.1755726
0.0254118, -0.0186313, 0.216, -0.0604858, 0.216, -0.9981689, 0.216, -0.203125, 0.216, 0.8167939, 0.216, 1.038168, 0.216, -3.2519083
0.0262059, -0.01561, 0.22275, -0.0598755, 0.22275, -0.9989014, 0.22275, -0.2054443, 0.22275, 0.9389313, 0.22275, 0.8854962, 0.22275, -3.1984732
0.027, -0.0137636, 0.2295, -0.0597534, 0.2295, -1.0001831, 0.2295, -0.2059937, 0.2295, 0.8473282, 0.2295, 0.8167939, 0.2295, -3.2824428
0.0277941, -0.0125887, 0.23625, -0.0570679, 0.23625, -0.9980469, 0.23625, -0.2025757, 0.23625, 0.9541985, 0.23625, 0.6564885, 0.23625, -3.2900763
0.0285882, -0.0137636, 0.243, -0.0549927, 0.243, -0.999939, 0.243, -0.204895, 0.243, 0.9160305, 0.243, 0.8015267, 0.243, -3.1450381
0.0293824, -0.0152743, 0.24975, -0.0541382, 0.24975, -1.0007324, 0.24975, -0.1992188, 0.24975, 0.9694657, 0.24975, 0.8549618, 0.24975, -3.129771
0.0301765, -0.0182956, 0.2565, -0.0548096, 0.2565, -1.0001831, 0.2565, -0.1999512, 0.2565, 0.8473282, 0.2565, 0.8931298, 0.2565, -3.2061069
0.0309706, -0.0182956, 0.26325, -0.0576782, 0.26325, -1.0006714, 0.26325, -0.1972046, 0.26325, 0.9923664, 0.26325, 0.9236641, 0.26325, -3.0763359
0.0317647, -0.0213169, 0.27, -0.0586548, 0.27, -1.0025635, 0.27, -0.2006226, 0.27, 1.1068702, 0.27, 0.8167939, 0.27, -3.2137403
0.0325588, -0.0218204, 0.27675, -0.0559692, 0.27675, -1.0004883, 0.27675, -0.1986694, 0.27675, 1.2671756, 0.27675, 0.6564885, 0.27675, -2.9694657
0.0333529, -0.0193027, 0.2835, -0.055603, 0.2835, -1.0018921, 0.2835, -0.1980591, 0.2835, 0.9694657, 0.2835, 0.6793893, 0.2835, -3.1908398
0.0341471, -0.0199741, 0.29025, -0.0531616, 0.29025, -1.0015259, 0.29025, -0.1992798, 0.29025, 1.0687023, 0.29025, 0.7480916, 0.29025, -3.2748091
0.0349412, -0.0204776, 0.297, -0.052063, 0.297, -1.00177, 0.297, -0.1994629, 0.297, 1.1526718, 0.297, 0.9007633, 0.297, -3.2290077
0.0357353, -0.0172885, 0.30375, -0.0567627, 0.30375, -0.998291, 0.30375, -0.1984253, 0.30375, 1.1221374, 0.30375, 1.0229008, 0.30375, -3.1526718
0.0365294, -0.0166171, 0.3105, -0.0558472, 0.3105, -1.0006714, 0.3105, -0.1974487, 0.3105, 0.9923664, 0.3105, 1.1679389, 0.3105, -3.0305343
0.0373235, -0.01561, 0.31725, -0.057312, 0.31725, -0.996521, 0.31725, -0.1981812, 0.31725, 0.9541985, 0.31725, 1.1603054, 0.31725, -2.9465649
0.0381176, -0.0135958, 0.324, -0.0570068, 0.324, -0.9996338, 0.324, -0.1991577, 0.324, 0.961832, 0.324, 1.1221374, 0.324, -3.1450381
0.0389118, -0.014435, 0.33075, -0.0582886, 0.33075, -0.9987183, 0.33075, -0.1995239, 0.33075, 0.9007633, 0.33075, 0.9923664, 0.33075, -3.1450381
0.0397059, -0.012253, 0.3375, -0.0588379, 0.3375, -1.0005493, 0.3375, -0.1984253, 0.3375, 0.8396947, 0.3375, 1.0152671, 0.3375, -3.1603053
0.0405, -0.0119173, 0.34425, -0.0570679, 0.34425, -1.001709, 0.34425, -0.201416, 0.34425, 0.8549618, 0.34425, 0.9236641, 0.34425, -3.1526718
0.0412941, -0.0129244, 0.351, -0.0543213, 0.351, -1.000061, 0.351, -0.2003784, 0.351, 0.908397, 0.351, 0.7862595, 0.351, -3.1679389
0.0420882, -0.0109102, 0.35775, -0.0566406, 0.35775, -1.0008545, 0.35775, -0.1999512, 0.35775, 0.9923664, 0.35775, 0.8549618, 0.35775, -3.0763359
0.0428824, -0.010071, 0.3645, -0.0620117, 0.3645, -0.9969482, 0.3645, -0.2025146, 0.3645, 0.9541985, 0.3645, 0.778626, 0.3645, -3.2137403
0.0436765, -0.0149386, 0.37125, -0.0626831, 0.37125, -0.9990234, 0.37125, -0.1986084, 0.37125, 0.8473282, 0.37125, 0.8396947, 0.37125, -3.2366412
0.0444706, -0.0119173, 0.378, -0.0605469, 0.378, -0.999939, 0.378, -0.2025146, 0.378, 1.0992366, 0.378, 0.7480916, 0.378, -3.3664122
0.0452647, -0.0127565, 0.38475, -0.0595703, 0.38475, -0.9978027, 0.38475, -0.2012329, 0.38475, 1.0687023, 0.38475, 0.7175573, 0.38475, -3.1984732
0.0460588, -0.0135958, 0.3915, -0.0582886, 0.3915, -0.9985352, 0.3915, -0.2014771, 0.3915, 1.0534351, 0.3915, 0.8091603, 0.3915, -3.1755726
0.0468529, -0.0149386, 0.39825, -0.0559082, 0.39825, -0.9993896, 0.39825, -0.2000732, 0.39825, 0.9465649, 0.39825, 0.8778626, 0.39825, -3.2824428
0.0476471, -0.0119173, 0.405, -0.0587158, 0.405, -0.9998779, 0.405, -0.1987305, 0.405, 0.9160305, 0.405, 0.9847328, 0.405, -3.259542
0.0484412, -0.0095674, 0.41175, -0.0582275, 0.41175, -0.9981689, 0.41175, -0.1988525, 0.41175, 1.1603054, 0.41175, 1.0992366, 0.41175, -3.2442749
0.0492353, -0.0078889, 0.4185, -0.0602417, 0.4185, -1.0001831, 0.4185, -0.1986084, 0.4185, 1.1755725, 0.4185, 1.091603, 0.4185, -3.3358779
0.0500294, -0.0085603, 0.42525, -0.0605469, 0.42525, -1.003418, 0.42525, -0.199646, 0.42525, 1.1526718, 0.42525, 1.2290076, 0.42525, -3.4045801
0.0508235, -0.0095674, 0.432, -0.060791, 0.432, -1.0023804, 0.432, -0.2004395, 0.432, 0.9770992, 0.432, 1.0229008, 0.432, -3.351145
0.0516176, -0.0125887, 0.43875, -0.0618286, 0.43875, -1.0030518, 0.43875, -0.2035522, 0.43875, 1.0687023, 0.43875, 0.961832, 0.43875, -3.2519083
0.0524118, -0.0140993, 0.4455, -0.0613403, 0.4455, -1.0050659, 0.4455, -0.199585, 0.4455, 1.1755725, 0.4455, 0.7480916, 0.4455, -3.4045801
0.0532059, -0.0146029, 0.45225, -0.0586548, 0.45225, -1.0020142, 0.45225, -0.1994019, 0.45225, 1.1679389, 0.45225, 0.648855, 0.45225, -3.3969467
0.054, -0.0135958, 0.459, -0.059082, 0.459, -1.0005493, 0.459, -0.2025146, 0.459, 1.1221374, 0.459, 0.5648855, 0.459, -3.3740458
0.0547941, -0.0132601, 0.46575, -0.0576782, 0.46575, -0.9990234, 0.46575, -0.2041626, 0.46575, 1.221374, 0.46575, 0.5038168, 0.46575, -3.610687
0.0555882, -0.011078, 0.4725, -0.0592041, 0.4725, -0.9996948, 0.4725, -0.2005615, 0.4725, 1.1603054, 0.4725, 0.5267175, 0.4725, -3.4885497
0.0563824, -0.0104067, 0.47925, -0.0611572, 0.47925, -1.0002441, 0.47925, -0.2026367, 0.47925, 1.0992366, 0.47925, 0.2366412, 0.47925, -3.5419848
0.0571765, -0.0129244, 0.486, -0.0564575, 0.486, -1.0012817, 0.486, -0.1986084, 0.486, 1.2137405, 0.486, 0.2900763, 0.486, -3.3053436
0.0579706, -0.0149386, 0.49275, -0.0556641, 0.49275, -1.0012207, 0.49275, -0.2011108, 0.49275, 0.961832, 0.49275, 0.1526718, 0.49275, -3.4961832
0.0587647, -0.0149386, 0.4995, -0.0570679, 0.4995, -0.9979858, 0.4995, -0.2001343, 0.4995, 1.1755725, 0.4995, 0.351145, 0.4995, -3.6030533
0.0595588, -0.0159457, 0.50625, -0.0571289, 0.50625, -0.9994507, 0.50625, -0.1990356, 0.50625, 1.0992366, 0.50625, 0.5267175, 0.50625, -3.610687
0.0603529, -0.0139315, 0.513, -0.0579834, 0.513, -1.0008545, 0.513, -0.2001953, 0.513, 1.2061069, 0.513, 0.6564885, 0.513, -3.4427481
0.0611471, -0.0149386, 0.51975, -0.0549316, 0.51975, -0.9991455, 0.51975, -0.2020264, 0.51975, 1.1908396, 0.51975, 0.6259542, 0.51975, -3.5496182
0.0619412, -0.0203098, 0.5265, -0.0559692, 0.5265, -0.9954224, 0.5265, -0.2009277, 0.5265, 1.0458015, 0.5265, 0.6946565, 0.5265, -3.3664122
0.0627353, -0.0169528, 0.53325, -0.0512695, 0.53325, -1.0001221, 0.53325, -0.2006836, 0.53325, 1.1984733, 0.53325, 0.8549618, 0.53325, -3.4656489
0.0635294, -0.01561, 0.54, -0.0494385, 0.54, -1.0015259, 0.54, -0.1969604, 0.54, 1.0687023, 0.54, 1.0534351, 0.54, -3.4732823
0.0643235, -0.0169528, 0.54675, -0.0517578, 0.54675, -1.0020752, 0.54675, -0.1978149, 0.54675, 1.0458015, 0.54675, 0.9923664, 0.54675, -3.3816793
0.0651176, -0.0157778, 0.5535, -0.0544434, 0.5535, -1.0010376, 0.5535, -0.1986694, 0.5535, 1.1145039, 0.5535, 1, 0.5535, -3.2977099
0.0659118, -0.0167849, 0.56025, -0.0546265, 0.56025, -1.0016479, 0.56025, -0.2001343, 0.56025, 1.1145039, 0.56025, 1.0687023, 0.56025, -3.221374
0.0667059, -0.0176242, 0.567, -0.059082, 0.567, -1.0011597, 0.567, -0.2000122, 0.567, 1.0763359, 0.567, 1.0687023, 0.567, -3.4427481
0.0675, -0.01561, 0.57375, -0.0557251, 0.57375, -1.0016479, 0.57375, -0.2004395, 0.57375, 1.0076336, 0.57375, 0.9160305, 0.57375, -3.3129771
0.0682941, -0.012253, 0.5805, -0.0560913, 0.5805, -0.9979858, 0.5805, -0.2000122, 0.5805, 1.0152671, 0.5805, 1.0992366, 0.5805, -3.2519083
0.0690882, -0.0102388, 0.58725, -0.0528564, 0.58725, -1.0039673, 0.58725, -0.1987305, 0.58725, 0.961832, 0.58725, 1.0992366, 0.58725, -3.3664122
0.0698824, -0.0102388, 0.594, -0.0521851, 0.594, -1.0048828, 0.594, -0.1986084, 0.594, 0.961832, 0.594, 1.0992366, 0.594, -3.2900763
0.0706765, -0.0109102, 0.60075, -0.052063, 0.60075, -1.00177, 0.60075, -0.2008057, 0.60075, 0.9847328, 0.60075, 1.1374046, 0.60075, -3.259542
0.0714706, -0.0132601, 0.6075, -0.055542, 0.6075, -1.0022583, 0.6075, -0.1987305, 0.6075, 1.1755725, 0.6075, 1.1908396, 0.6075, -3.0763359
0.0722647, -0.012253, 0.61425, -0.0569458, 0.61425, -1.0009766, 0.61425, -0.2017822, 0.61425, 0.9770992, 0.61425, 0.9770992, 0.61425, -3.1755726
0.0730588, -0.0132601, 0.621, -0.0579224, 0.621, -1.0033569, 0.621, -0.2017822, 0.621, 1.0305344, 0.621, 1.038168, 0.621, -3.1374047
0.0738529, -0.0129244, 0.62775, -0.0594482, 0.62775, -1.0003052, 0.62775, -0.2019653, 0.62775, 1.1679389, 0.62775, 0.9236641, 0.62775, -3.129771
0.0746471, -0.0132601, 0.6345, -0.0570068, 0.6345, -1.0009155, 0.6345, -0.2019043, 0.6345, 1.1679389, 0.6345, 0.961832, 0.6345, -3.2137403
0.0754412, -0.014435, 0.64125, -0.0569458, 0.64125, -0.9985962, 0.64125, -0.201355, 0.64125, 1.2442749, 0.64125, 1.0458015, 0.64125, -3.221374
0.0762353, -0.01561, 0.648, -0.0571899, 0.648, -0.9985962, 0.648, -0.201355, 0.648, 1.0610687, 0.648, 0.9312977, 0.648, -3.1068702
0.0770294, -0.0129244, 0.65475, -0.0582275, 0.65475, -0.9979248, 0.65475, -0.2005005, 0.65475, 1.129771, 0.65475, 0.9694657, 0.65475, -3.2366412
0.0778235, -0.0105745, 0.6615, -0.057312, 0.6615, -0.9992065, 0.6615, -0.2006836, 0.6615, 1.259542, 0.6615, 0.8625954, 0.6615, -3.1984732
0.0786176, -0.0162814, 0.66825, -0.0571289, 0.66825, -1.0004883, 0.66825, -0.2005005, 0.66825, 1.1526718, 0.66825, 0.8625954, 0.66825, -3.221374
0.0794118, -0.0164492, 0.675, -0.0582275, 0.675, -1.0001221, 0.675, -0.199585, 0.675, 1.0992366, 0.675, 0.9007633, 0.675, -3.3435113
0.0802059, -0.0146029, 0.68175, -0.0598755, 0.68175, -0.9979248, 0.68175, -0.2019043, 0.68175, 1.2442749, 0.68175, 0.7938932, 0.68175, -3.3282442
0.081, -0.0166171, 0.6885, -0.0603638, 0.6885, -0.9980469, 0.6885, -0.2015381, 0.6885, 1.2366412, 0.6885, 0.5648855, 0.6885, -3.3587787
0.0817941, -0.0196384, 0.69525, -0.0604858, 0.69525, -0.9973145, 0.69525, -0.1994629, 0.69525, 1.3206106, 0.69525, 0.4503817, 0.69525, -3.480916
0.0825882, -0.0204776, 0.702, -0.0615234, 0.702, -0.9996338, 0.702, -0.2022095, 0.702, 1.4045801, 0.702, 0.4198473, 0.702, -3.3435113
0.0833824, -0.0167849, 0.70875, -0.0609741, 0.70875, -1.0009766, 0.70875, -0.203125, 0.70875, 1.3587786, 0.70875, 0.2290076, 0.70875, -3.4732823
0.0841765, -0.0159457, 0.7155, -0.0609131, 0.7155, -1.0028076, 0.7155, -0.2017822, 0.7155, 1.3664122, 0.7155, 0.0076336, 0.7155, -3.3664122
0.0849706, -0.0137636, 0.72225, -0.0563354, 0.72225, -1.0025024, 0.72225, -0.1997681, 0.72225, 1.3206106, 0.72225, 0.1068702, 0.72225, -3.5267177
0.0857647, -0.0162814, 0.729, -0.0571289, 0.729, -1.0015869, 0.729, -0.1992188, 0.729, 1.5572519, 0.729, 0.0687023, 0.729, -3.5419848
0.0865588, -0.0142672, 0.73575, -0.0552979, 0.73575, -1.0007324, 0.73575, -0.1972656, 0.73575, 1.389313, 0.73575, 0, 0.73575, -3.480916
0.0873529, -0.0139315, 0.7425, -0.0541382, 0.7425, -1.0016479, 0.7425, -0.1973877, 0.7425, 1.610687, 0.7425, 0.1145038, 0.7425, -3.3587787
0.0881471, -0.0137636, 0.74925, -0.0548706, 0.74925, -1.0026245, 0.74925, -0.1970215, 0.74925, 1.3664122, 0.74925, 0.0610687, 0.74925, -3.5419848
0.0889412, -0.0132601, 0.756, -0.0598145, 0.756, -0.9995728, 0.756, -0.1980591, 0.756, 1.4351145, 0.756, 0.2290076, 0.756, -3.4198472
0.0897353, -0.0162814, 0.76275, -0.0601807, 0.76275, -0.9988403, 0.76275, -0.1962891, 0.76275, 1.1832061, 0.76275, 0.2519084, 0.76275, -3.3282442
0.0905294, -0.0166171, 0.7695, -0.0585327, 0.7695, -0.9979248, 0.7695, -0.1970215, 0.7695, 1.4274809, 0.7695, 0.1374046, 0.7695, -3.4732823
0.0913235, -0.0142672, 0.77625, -0.0540161, 0.77625, -0.9991455, 0.77625, -0.197998, 0.77625, 1.3664122, 0.77625, 0.2900763, 0.77625, -3.6183207
0.0921176, -0.0130922, 0.783, -0.0513306, 0.783, -0.999939, 0.783, -0.1983643, 0.783, 1.2442749, 0.783, 0.2900763, 0.783, -3.389313
0.0929118, -0.0125887, 0.78975, -0.0556641, 0.78975, -0.9988403, 0.78975, -0.1971436, 0.78975, 1.2061069, 0.78975, 0.4580153, 0.78975, -3.3435113
0.0937059, -0.0176242, 0.7965, -0.0560913, 0.7965, -0.9976807, 0.7965, -0.1973877, 0.7965, 1.3435115, 0.7965, 0.4503817, 0.7965, -3.3053436
0.0945, -0.0182956, 0.80325, -0.0557251, 0.80325, -0.9989624, 0.80325, -0.2000122, 0.80325, 1.1374046, 0.80325, 0.6183206, 0.80325, -3.389313
0.0952941, -0.0184634, 0.81, -0.055542, 0.81, -1.0004272, 0.81, -0.1939697, 0.81, 1.221374, 0.81, 0.4580153, 0.81, -3.3664122
0.0960882, -0.0169528, 0.81675, -0.055603, 0.81675, -1.0014038, 0.81675, -0.1999512, 0.81675, 1.2442749, 0.81675, 0.5648855, 0.81675, -3.4198472
0.0968824, -0.0157778, 0.8235, -0.0560303, 0.8235, -1.0006714, 0.8235, -0.1987915, 0.8235, 1.1450381, 0.8235, 0.3816794, 0.8235, -3.4656489
0.0976765, -0.0159457, 0.83025, -0.0582886, 0.83025, -1.0002441, 0.83025, -0.1957397, 0.83025, 1, 0.83025, 0.351145, 0.83025, -3.2900763
0.0984706, -0.0167849, 0.837, -0.0560303, 0.837, -0.9987793, 0.837, -0.1986694, 0.837, 1.1068702, 0.837, 0.2824427, 0.837, -3.3740458
0.0992647, -0.01561, 0.84375, -0.0526123, 0.84375, -0.9991455, 0.84375, -0.2000122, 0.84375, 1.038168, 0.84375, 0.3740458, 0.84375, -3.4274809
0.1000588, -0.0152743, 0.8505, -0.0511475, 0.8505, -1.0004272, 0.8505, -0.1990967, 0.8505, 1.0763359, 0.8505, 0.5572519, 0.8505, -3.1984732
0.1008529, -0.0139315, 0.85725, -0.0547485, 0.85725, -1.0021362, 0.85725, -0.2003174, 0.85725, 1.0992366, 0.85725, 0.5801527, 0.85725, -3.259542
0.1016471, -0.0142672, 0.864, -0.0529175, 0.864, -1.0013428, 0.864, -0.1981201, 0.864, 1.091603, 0.864, 0.5725191, 0.864, -3.1755726
0.1024412, -0.0112459, 0.87075, -0.0546265, 0.87075, -1.0009766, 0.87075, -0.1957397, 0.87075, 1.1068702, 0.87075, 0.7175573, 0.87075, -3.1755726
0.1032353, -0.010071, 0.8775, -0.0564575, 0.8775, -1.0014648, 0.8775, -0.1964722, 0.8775, 1.038168, 0.8775, 0.5801527, 0.8775, -3.1603053
0.1040294, -0.0092317, 0.88425, -0.0563354, 0.88425, -1.0007324, 0.88425, -0.2000732, 0.88425, 1, 0.88425, 0.6641222, 0.88425, -3.2290077
0.1048235, -0.0109102, 0.891, -0.0587769, 0.891, -1.00177, 0.891, -0.1997681, 0.891, 0.9694657, 0.891, 0.6259542, 0.891, -3.1603053
0.1056176, -0.0125887, 0.89775, -0.0556641, 0.89775, -1.0020752, 0.89775, -0.1974487, 0.89775, 0.908397, 0.89775, 0.5954198, 0.89775, -3.2442749
0.1064118, -0.0152743, 0.9045, -0.0556641, 0.9045, -1.0029907, 0.9045, -0.196228, 0.9045, 0.9541985, 0.9045, 0.7557252, 0.9045, -3.1832061
0.1072059, -0.0129244, 0.91125, -0.0524902, 0.91125, -1.0010986, 0.91125, -0.1973877, 0.91125, 1.1755725, 0.91125, 0.7175573, 0.91125, -3.0229008
0.108, -0.0142672, 0.918, -0.0543823, 0.918, -1.0018921, 0.918, -0.1989746, 0.918, 1.0458015, 0.918, 0.8244275, 0.918, -3.2519083
0.1087941, -0.0149386, 0.92475, -0.0551758, 0.92475, -0.9987183, 0.92475, -0.1998901, 0.92475, 1.0534351, 0.92475, 1.0076336, 0.92475, -3.221374
0.1095882, -0.0135958, 0.9315, -0.0584106, 0.9315, -1.0004883, 0.9315, -0.1986084, 0.9315, 1.0305344, 0.9315, 0.9236641, 0.9315, -3.1221373
0.1103824, -0.0162814, 0.93825, -0.0582886, 0.93825, -0.9995728, 0.93825, -0.1984253, 0.93825, 1.0229008, 0.93825, 1.0534351, 0.93825, -3.2442749
0.1111765, -0.0162814, 0.945, -0.059082, 0.945, -1.0003662, 0.945, -0.199707, 0.945, 1.0076336, 0.945, 0.8854962, 0.945, -3.1374047
0.1119706, -0.0159457, 0.95175, -0.0571899, 0.95175, -0.9981689, 0.95175, -0.2018433, 0.95175, 1.1526718, 0.95175, 0.6717557, 0.95175, -3.1374047
0.1127647, -0.0172885, 0.9585, -0.0571289, 0.9585, -0.9997559, 0.9585, -0.1981812, 0.9585, 0.9465649, 0.9585, 0.4885496, 0.9585, -3.091603
0.1135588, -0.0164492, 0.96525, -0.0581055, 0.96525, -0.9997559, 0.96525, -0.1981201, 0.96525, 0.9465649, 0.96525, 0.5572519, 0.96525, -3.1984732
0.1143529, -0.0137636, 0.972, -0.0562134, 0.972, -0.9988403, 0.972, -0.1989746, 0.972, 0.9465649, 0.972, 0.5038168, 0.972, -3.1526718
0.1151471, -0.0149386, 0.97875, -0.0550537, 0.97875, -1.0005493, 0.97875, -0.1999512, 0.97875, 1.0687023, 0.97875, 0.6641222, 0.97875, -3.1984732
0.1159412, -0.0196384, 0.9855, -0.0542603, 0.9855, -1.0009155, 0.9855, -0.2033081, 0.9855, 1.0687023, 0.9855, 0.7557252, 0.9855, -3.0763359
0.1167353, -0.0162814, 0.99225, -0.0552979, 0.99225, -1.0001831, 0.99225, -0.1975098, 0.99225, 0.9541985, 0.99225, 0.7862595, 0.99225, -3.1908398
0.1175294, -0.0135958, 0.999, -0.0541382, 0.999, -0.9989014, 0.999, -0.1982422, 0.999, 1.0229008, 0.999, 0.7557252, 0.999, -3.1832061
0.1183235, -0.0135958, 1.00575, -0.0548096, 1.00575, -0.9997559, 1.00575, -0.1989746, 1.00575, 0.8931298, 1.00575, 0.6946565, 1.00575, -3.1755726
0.1191176, -0.0135958, 1.0125, -0.0576782, 1.0125, -1.0010376, 1.0125, -0.2006836, 1.0125, 0.9312977, 1.0125, 0.6564885, 1.0125, -3.0992367
0.1199118, -0.0169528, 1.01925, -0.0562744, 1.01925, -1.0009766, 1.01925, -0.1989136, 1.01925, 1, 1.01925, 0.8549618, 1.01925, -3.259542
0.1207059, -0.0169528, 1.026, -0.057373, 1.026, -0.9988403, 1.026, -0.199585, 1.026, 0.9389313, 1.026, 0.6412213, 1.026, -3.1450381
0.1215, -0.0137636, 1.03275, -0.0554199, 1.03275, -1.0007324, 1.03275, -0.2014771, 1.03275, 0.9236641, 1.03275, 0.519084, 1.03275, -2.961832
0.1222941, -0.014435, 1.0395, -0.0604858, 1.0395, -0.9992065, 1.0395, -0.2011719, 1.0395, 0.9312977, 1.0395, 0.7099237, 1.0395, -3.038168
0.1230882, -0.0151064, 1.04625, -0.059021, 1.04625, -1.0006104, 1.04625, -0.2007446, 1.04625, 1.038168, 1.04625, 0.6412213, 1.04625, -3.0839694
0.1238824, -0.0166171, 1.053, -0.0579224, 1.053, -1.0004272, 1.053, -0.2001953, 1.053, 1.1832061, 1.053, 0.648855, 1.053, -3.0229008
0.1246765, -0.0186313, 1.05975, -0.0565796, 1.05975, -0.9992065, 1.05975, -0.2010498, 1.05975, 0.9694657, 1.05975, 0.7175573, 1.05975, -3.1145039
0.1254706, -0.0162814, 1.0665, -0.0581055, 1.0665, -1.0032349, 1.0665, -0.2021484, 1.0665, 0.9160305, 1.0665, 0.5954198, 1.0665, -3.1755726
0.1262647, -0.01561, 1.07325, -0.0575562, 1.07325, -1.0012817, 1.07325, -0.199646, 1.07325, 0.9770992, 1.07325, 0.610687, 1.07325, -3.2519083
0.1270588, -0.0162814, 1.08, -0.0571899, 1.08, -0.9981079, 1.08, -0.197876, 1.08, 1.2290076, 1.08, 0.7099237, 1.08, -3.351145
0.1278529, -0.0159457, 1.08675, -0.0570679, 1.08675, -0.9991455, 1.08675, -0.2007446, 1.08675, 1.1526718, 1.08675, 0.5114504, 1.08675, -3.2671757
0.1286471, -0.0149386, 1.0935, -0.0603638, 1.0935, -0.9971924, 1.0935, -0.2005005, 1.0935, 1.0305344, 1.0935, 0.4351145, 1.0935, -3.0992367
0.1294412, -0.0169528, 1.10025, -0.0552979, 1.10025, -1.0006104, 1.10025, -0.1983643, 1.10025, 0.9770992, 1.10025, 0.4961832, 1.10025, -3.2671757
0.1302353, -0.0137636, 1.107, -0.0582275, 1.107, -0.9993286, 1.107, -0.201416, 1.107, 1.0610687, 1.107, 0.2442748, 1.107, -3.2137403
0.1310294, -0.0125887, 1.11375, -0.057312, 1.11375, -1.0011597, 1.11375, -0.1999512, 1.11375, 1.1145039, 1.11375, 0.5038168, 1.11375, -3.1450381
0.1318235, -0.0146029, 1.1205, -0.0549927, 1.1205, -1.0001831, 1.1205, -0.1994629, 1.1205, 1.0076336, 1.1205, 0.480916, 1.1205, -3.3358779
0.1326176, -0.01561, 1.12725, -0.0570068, 1.12725, -1.0018311, 1.12725, -0.1983643, 1.12725, 1.1679389, 1.12725, 0.519084, 1.12725, -3.2824428
0.1334118, -0.0149386, 1.134, -0.0578613, 1.134, -1.0006104, 1.134, -0.1972046, 1.134, 1.0458015, 1.134, 0.4885496, 1.134, -3.1068702
0.1342059, -0.0129244, 1.14075, -0.0580444, 1.14075, -0.9987183, 1.14075, -0.1987915, 1.14075, 1.1603054, 1.14075, 0.4885496, 1.14075, -3.1908398
0.135, -0.0139315, 1.1475, -0.0577393, 1.1475, -0.9996948, 1.1475, -0.1975098, 1.1475, 1.1603054, 1.1475, 0.5343512, 1.1475, -3.3206108
0.1357941, -0.0176242, 1.15425, -0.0560303, 1.15425, -0.9996948, 1.15425, -0.1975098, 1.15425, 1.0992366, 1.15425, 0.4503817, 1.15425, -3.3282442
0.1365882, -0.0132601, 1.161, -0.057251, 1.161, -1.0015869, 1.161, -0.1972656, 1.161, 1.038168, 1.161, 0.389313, 1.161, -3.221374
0.1373824, -0.0154421, 1.16775, -0.0565186, 1.16775, -1.0008545, 1.16775, -0.2001953, 1.16775, 1.0839695, 1.16775, 0.5038168, 1.16775, -3.1755726
0.1381765, -0.0193027, 1.1745, -0.0563354, 1.1745, -0.9997559, 1.1745, -0.1967163, 1.1745, 1.1679389, 1.1745, 0.5343512, 1.1745, -3.2977099
0.1389706, -0.0171206, 1.18125, -0.0562744, 1.18125, -0.9997559, 1.18125, -0.1976929, 1.18125, 1.1755725, 1.18125, 0.6564885, 1.18125, -3.2061069
0.1397647, -0.0149386, 1.188, -0.0574341, 1.188, -1.00177, 1.188, -0.197876, 1.188, 1.1450381, 1.188, 0.5496183, 1.188, -3.1908398
0.1405588, -0.012253, 1.19475, -0.0606079, 1.19475, -0.9998779, 1.19475, -0.2005005, 1.19475, 1.0839695, 1.19475, 0.4198473, 1.19475, -3.2290077
0.1413529, -0.0125887, 1.2015, -0.0568848, 1.2015, -1.0012207, 1.2015, -0.1986084, 1.2015, 1.1221374, 1.2015, 0.3053435, 1.2015, -3.4427481
0.1421471, -0.0135958, 1.20825, -0.0563354, 1.20825, -0.9993286, 1.20825, -0.1964722, 1.20825, 1.0839695, 1.20825, 0.351145, 1.20825, -3.3053436
0.1429412, -0.0115816, 1.215, -0.0563965, 1.215, -1, 1.215, -0.1983032, 1.215, 0.9312977, 1.215, 0.351145, 1.215, -3.2519083
0.1437353, -0.0139315, 1.22175, -0.0541992, 1.22175, -1.0009155, 1.22175, -0.1973267, 1.22175, 0.8625954, 1.22175, 0.4961832, 1.22175, -3.4274809
0.1445294, -0.0130922, 1.2285, -0.0542603, 1.2285, -1, 1.2285, -0.1976318, 1.2285, 1.0992366, 1.2285, 0.5343512, 1.2285, -3.1755726
0.1453235, -0.011078, 1.23525, -0.0552368, 1.23525, -0.99823, 1.23525, -0.1975708, 1.23525, 0.9770992, 1.23525, 0.6564885, 1.23525, -3.1755726
0.1461176, -0.0132601, 1.242, -0.0570068, 1.242, -0.9995728, 1.242, -0.1966553, 1.242, 0.9923664, 1.242, 0.7633588, 1.242, -3.1832061
0.1469118, -0.0132601, 1.24875, -0.0566406, 1.24875, -0.9985962, 1.24875, -0.1978149, 1.24875, 1.0152671, 1.24875, 0.8091603, 1.24875, -3.2900763
0.1477059, -0.0077211, 1.2555, -0.0565796, 1.2555, -1.0006714, 1.2555, -0.199707, 1.2555, 0.9465649, 1.2555, 0.8931298, 1.2555, -3.2977099
0.1485, -0.008896, 1.26225, -0.0602417, 1.26225, -1.0009155, 1.26225, -0.197876, 1.26225, 0.9389313, 1.26225, 0.8244275, 1.26225, -3.2671757
0.1492941, -0.0119173, 1.269, -0.0571899, 1.269, -1.00354, 1.269, -0.1995239, 1.269, 0.9312977, 1.269, 0.6870229, 1.269, -3.2442749
0.1500882, -0.0135958, 1.27575, -0.0565186, 1.27575, -1.0019531, 1.27575, -0.1989746, 1.27575, 0.8091603, 1.27575, 0.8854962, 1.27575, -3.221374
0.1508824, -0.0135958, 1.2825, -0.0543823, 1.2825, -1.0014648, 1.2825, -0.2003174, 1.2825, 1.0152671, 1.2825, 0.9160305, 1.2825, -3.2824428
0.1516765, -0.0137636, 1.28925, -0.0559082, 1.28925, -0.9995117, 1.28925, -0.1990967, 1.28925, 0.9236641, 1.28925, 0.8320611, 1.28925, -3.2748091
0.1524706, -0.0149386, 1.296, -0.0545044, 1.296, -1.0019531, 1.296, -0.2005615, 1.296, 0.9847328, 1.296, 0.9312977, 1.296, -3.2748091
0.1532647, -0.0137636, 1.30275, -0.0552368, 1.30275, -1.0029907, 1.30275, -0.2005005, 1.30275, 0.9236641, 1.30275, 1, 1.30275, -3.0534351
0.1540588, -0.0146029, 1.3095, -0.0562744, 1.3095, -1.0012207, 1.3095, -0.1995239, 1.3095, 1.0610687, 1.3095, 0.9007633, 1.3095, -3.0687022
0.1548529, -0.01561, 1.31625, -0.0559082, 1.31625, -0.9992065, 1.31625, -0.2005005, 1.31625, 0.9694657, 1.31625, 0.8320611, 1.31625, -3.2748091
0.1556471, -0.0152743, 1.323, -0.0588379, 1.323, -0.9985352, 1.323, -0.2020264, 1.323, 1, 1.323, 0.8244275, 1.323, -3.1832061
0.1564412, -0.0166171, 1.32975, -0.0606689, 1.32975, -1.0007324, 1.32975, -0.1995239, 1.32975, 1.0992366, 1.32975, 0.5801527, 1.32975, -3.3129771
0.1572353, -0.0115816, 1.3365, -0.059082, 1.3365, -1.0025024, 1.3365, -0.197998, 1.3365, 0.9694657, 1.3365, 0.5954198, 1.3365, -3.2824428
0.1580294, -0.0125887, 1.34325, -0.0551758, 1.34325, -1.0007935, 1.34325, -0.1986084, 1.34325, 1.0687023, 1.34325, 0.5954198, 1.34325, -3.4580152
0.1588235, -0.01561, 1.35, -0.0574951, 1.35, -1.0001831, 1.35, -0.1983032, 1.35, 0.9770992, 1.35, 0.5648855, 1.35, -3.1832061
0.1596176, -0.0184634, 1.35675, -0.0543213, 1.35675, -1.0006714, 1.35675, -0.1973267, 1.35675, 0.9312977, 1.35675, 0.5725191, 1.35675, -3.1450381
0.1604118, -0.0162814, 1.3635, -0.0551147, 1.3635, -0.9968262, 1.3635, -0.1968994, 1.3635, 1.3129771, 1.3635, 0.778626, 1.3635, -3.0992367
0.1612059, -0.01561, 1.37025, -0.057251, 1.37025, -0.9968262, 1.37025, -0.1993408, 1.37025, 1.1984733, 1.37025, 0.9770992, 1.37025, -3.0152671
0.162, -0.0162814, 1.377, -0.0577393, 1.377, -0.9946289, 1.377, -0.2001953, 1.377, 1.0610687, 1.377, 1.0763359, 1.377, -2.9541984
0.1627941, -0.0132601, 1.38375, -0.0570068, 1.38375, -0.9978027, 1.38375, -0.1958008, 1.38375, 0.9312977, 1.38375, 1.0763359, 1.38375, -2.9847329
0.1635882, -0.0166171, 1.3905, -0.0546265, 1.3905, -0.9985352, 1.3905, -0.1951904, 1.3905, 1.091603, 1.3905, 0.9770992, 1.3905, -3.0992367
0.1643824, -0.0184634, 1.39725, -0.0535278, 1.39725, -1.0009766, 1.39725, -0.1964722, 1.39725, 1.0763359, 1.39725, 1.0229008, 1.39725, -3.0610688
0.1651765, -0.0151064, 1.404, -0.0550537, 1.404, -0.9995117, 1.404, -0.1973267, 1.404, 1, 1.404, 0.7709923, 1.404, -3.0458016
0.1659706, -0.0149386, 1.41075, -0.0577393, 1.41075, -0.9997559, 1.41075, -0.1994019, 1.41075, 1.0458015, 1.41075, 0.9465649, 1.41075, -3.0839694
0.1667647, -0.0159457, 1.4175, -0.0579224, 1.4175, -1.0003662, 1.4175, -0.2001343, 1.4175, 0.9923664, 1.4175, 0.8167939, 1.4175, -3.129771
0.1675588, -0.0152743, 1.42425, -0.0597534, 1.42425, -0.9987183, 1.42425, -0.2035522, 1.42425, 0.8549618, 1.42425, 0.6030535, 1.42425, -3.1221373
0.1683529, -0.0129244, 1.431, -0.0579834, 1.431, -1.0005493, 1.431, -0.1969604, 1.431, 1.0229008, 1.431, 0.4351145, 1.431, -3
0.1691471, -0.0142672, 1.43775, -0.0569458, 1.43775, -1.0021973, 1.43775, -0.1988525, 1.43775, 1.0305344, 1.43775, 0.5343512, 1.43775, -3.1832061
0.1699412, -0.0135958, 1.4445, -0.0563354, 1.4445, -1.0048218, 1.4445, -0.194397, 1.4445, 1.1526718, 1.4445, 0.5114504, 1.4445, -3.091603
0.1707353, -0.0137636, 1.45125, -0.0561523, 1.45125, -1.0031738, 1.45125, -0.1976929, 1.45125, 1.2366412, 1.45125, 0.3358779, 1.45125, -3.1450381
0.1715294, -0.0152743, 1.458, -0.0591431, 1.458, -1.0028076, 1.458, -0.1940918, 1.458, 1.4656489, 1.458, 0.259542, 1.458, -3.2290077
0.1723235, -0.0135958, 1.46475, -0.0610962, 1.46475, -1.001709, 1.46475, -0.1945801, 1.46475, 1.7480916, 1.46475, 0.1832061, 1.46475, -3.3053436
0.1731176, -0.0102388, 1.4715, -0.0640259, 1.4715, -1.0019531, 1.4715, -0.1968994, 1.4715, 1.8320611, 1.4715, 0.1068702, 1.4715, -3.3969467
0.1739118, -0.0112459, 1.47825, -0.067627, 1.47825, -1.0030518, 1.47825, -0.2041626, 1.47825, 1.7480916, 1.47825, -0.0687023, 1.47825, -3.221374
0.1747059, -0.01561, 1.485, -0.0735474, 1.485, -1.0028687, 1.485, -0.2020264, 1.485, 1.8244275, 1.485, -0.6717557, 1.485, -3.3587787
0.1755, -0.0125887, 1.49175, -0.0708618, 1.49175, -1.0078125, 1.49175, -0.2021484, 1.49175, 1.9312977, 1.49175, -1.0458015, 1.49175, -3.3358779
0.1762941, -0.0109102, 1.4985, -0.0793457, 1.4985, -1.0112305, 1.4985, -0.2030029, 1.4985, 2.2900763, 1.4985, -1.9694656, 1.4985, -3.5267177
0.1770882, -0.0154421, 1.50525, -0.098999, 1.50525, -1.010376, 1.50525, -0.2059937, 1.50525, 3.1832061, 1.50525, -2.5496182, 1.50525, -3.4656489
0.1778824, -0.0179599, 1.512, -0.1072388, 1.512, -1.0092163, 1.512, -0.2116699, 1.512, 3.6412213, 1.512, -3.8015268, 1.512, -3.5343511
0.1786765, -0.0186313, 1.51875, -0.0848389, 1.51875, -1.0115967, 1.51875, -0.1973877, 1.51875, 4.2442746, 1.51875, -5.4427481, 1.51875, -4
0.1794706, -0.0176242, 1.5255, -0.074585, 1.5255, -1.0098267, 1.5255, -0.1985474, 1.5255, 4.961832, 1.5255, -6.3206105, 1.5255, -4.0610685
0.1802647, -0.0157778, 1.53225, -0.055481, 1.53225, -1.0028076, 1.53225, -0.1972656, 1.53225, 5.038168, 1.53225, -6.1679387, 1.53225, -3.9541984
0.1810588, -0.0166171, 1.539, -0.0466919, 1.539, -1.0059814, 1.539, -0.2023315, 1.539, 5.2137403, 1.539, -5.2748094, 1.539, -4.0610685
0.1818529, -0.0142672, 1.54575, -0.0457153, 1.54575, -1.0012817, 1.54575, -0.1969604, 1.54575, 5.3816795, 1.54575, -4.4656487, 1.54575, -4.0305343
0.1826471, -0.0142672, 1.5525, -0.0507812, 1.5525, -1.0075073, 1.5525, -0.1955566, 1.5525, 5.2519083, 1.5525, -4.5419846, 1.5525, -4.0305343
0.1834412, -0.0119173, 1.55925, -0.0686035, 1.55925, -1.008728, 1.55925, -0.1983032, 1.55925, 5.3282442, 1.55925, -4.8778625, 1.55925, -4.4198475
0.1842353, -0.0135958, 1.566, -0.0755615, 1.566, -1.0074463, 1.566, -0.1931763, 1.566, 5.259542, 1.566, -6.3969464, 1.566, -4.519084
0.1850294, -0.0129244, 1.57275, -0.0674438, 1.57275, -1.0067749, 1.57275, -0.1876221, 1.57275, 5.4580154, 1.57275, -7.8244276, 1.57275, -4.8473282
0.1858235, -0.0115816, 1.5795, -0.0582886, 1.5795, -1.0022583, 1.5795, -0.1864014, 1.5795, 5, 1.5795, -8.5725193, 1.5795, -5.0305343
0.1866176, -0.0124208, 1.58625, -0.050354, 1.58625, -1.0028687, 1.58625, -0.1884155, 1.58625, 5.0610685, 1.58625, -8.7480917, 1.58625, -5.2442746
0.1874118, -0.0129244, 1.593, -0.0443115, 1.593, -0.9979858, 1.593, -0.1832886, 1.593, 4.8854961, 1.593, -8.5343513, 1.593, -5.3816795
0.1882059, -0.0140993, 1.59975, -0.0492554, 1.59975, -0.9863281, 1.59975, -0.1891479, 1.59975, 4.6793895, 1.59975, -7.1832061, 1.59975, -5.4274807
0.189, -0.012253, 1.6065, -0.0484619, 1.6065, -0.9862061, 1.6065, -0.1939697, 1.6065, 4.5419846, 1.6065, -5.6564884, 1.6065, -5.4503818
0.1897941, -0.012253, 1.61325, -0.0561523, 1.61325, -0.9801025, 1.61325, -0.2043457, 1.61325, 4.221374, 1.61325, -4.8931298, 1.61325, -5.6793895
0.1905882, -0.01561, 1.62, -0.0650024, 1.62, -0.9834595, 1.62, -0.2087402, 1.62, 4.5419846, 1.62, -3.7557251, 1.62, -6.0305343
0.1913824, -0.0169528, 1.62675, -0.0801392, 1.62675, -0.9884033, 1.62675, -0.2260132, 1.62675, 4.6717558, 1.62675, -3.3816793, 1.62675, -6.221374
0.1921765, -0.0176242, 1.6335, -0.0994263, 1.6335, -0.9888306, 1.6335, -0.234375, 1.6335, 4.9083967, 1.6335, -3.1450381, 1.6335, -6.8854961
0.1929706, -0.01561, 1.64025, -0.1002197, 1.64025, -0.9969482, 1.64025, -0.2432861, 1.64025, 5.7480917, 1.64025, -3.1984732, 1.64025, -7.259542
0.1937647, -0.0161135, 1.647, -0.0916748, 1.647, -1.0048218, 1.647, -0.2600708, 1.647, 6.9770994, 1.647, -2.778626, 1.647, -7.480916
0.1945588, -0.0135958, 1.65375, -0.0883789, 1.65375, -1.0050049, 1.65375, -0.2682495, 1.65375, 8.0916033, 1.65375, -1.7709924, 1.65375, -7.7709923
0.1953529, -0.0132601, 1.6605, -0.0886841, 1.6605, -1.0099487, 1.6605, -0.2686157, 1.6605, 9.0458012, 1.6605, -1.1679389, 1.6605, -8.0992365
0.1961471, -0.0139315, 1.66725, -0.0789185, 1.66725, -1.0167847, 1.66725, -0.2566528, 1.66725, 10.1450386, 1.66725, -1.1145039, 1.66725, -8.4732828
0.1969412, -0.0146029, 1.674, -0.0701294, 1.674, -1.0145874, 1.674, -0.2527466, 1.674, 11.1755724, 1.674, -1.5267175, 1.674, -8.8702288
0.1977353, -0.0149386, 1.68075, -0.0632324, 1.68075, -1.0119019, 1.68075, -0.2510986, 1.68075, 12.1908398, 1.68075, -1.8778626, 1.68075, -9.2290077
0.1985294, -0.0129244, 1.6875, -0.0559692, 1.6875, -1.0128784, 1.6875, -0.2457886, 1.6875, 13.3893127, 1.6875, -2.0305343, 1.6875, -9.7480917
0.1993235, -0.0149386, 1.69425, -0.0541382, 1.69425, -1.0073853, 1.69425, -0.2365723, 1.69425, 13.8320608, 1.69425, -2.1526718, 1.69425, -9.8702288
0.2001176, -0.0135958, 1.701, -0.055481, 1.701, -1.0020142, 1.701, -0.2246094, 1.701, 14.2366409, 1.701, -2.3969467, 1.701, -9.9236641
0.2009118, -0.0129244, 1.70775, -0.0422363, 1.70775, -1.0033569, 1.70775, -0.203125, 1.70775, 14.4656487, 1.70775, -2.6946564, 1.70775, -9.8091602
0.2017059, -0.0162814, 1.7145, -0.0303955, 1.7145, -1.0071411, 1.7145, -0.184021, 1.7145, 14.9007635, 1.7145, -2.6412213, 1.7145, -9.8625956
0.2025, -0.0149386, 1.72125, -0.0197144, 1.72125, -1.0060425, 1.72125, -0.1625977, 1.72125, 15.1221371, 1.72125, -2.1832061, 1.72125, -9.8854961
0.2032941, -0.0132601, 1.728, -0.0159912, 1.728, -1.0054321, 1.728, -0.145874, 1.728, 15.0152674, 1.728, -1.6259542, 1.728, -9.8091602
0.2040882, -0.0166171, 1.73475, -0.0145874, 1.73475, -1.0026855, 1.73475, -0.1297607, 1.73475, 14.7786255, 1.73475, -0.7633588, 1.73475, -9.801527
0.2048824, -0.0162814, 1.7415, -0.0117188, 1.7415, -1.0008545, 1.7415, -0.1192627, 1.7415, 14.0839691, 1.7415, 0.1908397, 1.7415, -9.4503813
0.2056765, -0.0149386, 1.74825, -0.0060425, 1.74825, -0.9957275, 1.74825, -0.1112061, 1.74825, 13.2977095, 1.74825, 1.6030535, 1.74825, -8.8473282
0.2064706, -0.0146029, 1.755, 0.0006714, 1.755, -0.9956665, 1.755, -0.1086426, 1.755, 12.5114508, 1.755, 2.961832, 1.755, -8.3129768
0.2072647, -0.0139315, 1.76175, 0.0016479, 1.76175, -0.994873, 1.76175, -0.1119385, 1.76175, 11.8931293, 1.76175, 4.3206105, 1.76175, -7.8549619
0.2080588, -0.0135958, 1.7685, -0.0028076, 1.7685, -0.9992065, 1.7685, -0.1096191, 1.7685, 11.3435116, 1.7685, 5.2977099, 1.7685, -7.5572519
0.2088529, -0.0139315, 1.77525, -0.005188, 1.77525, -0.9959106, 1.77525, -0.1216431, 1.77525, 10.7480917, 1.77525, 6.1145039, 1.77525, -7.1221375
0.2096471, -0.0159457, 1.782, -0.0115356, 1.782, -0.9978027, 1.782, -0.1321411, 1.782, 10.6030531, 1.782, 6.3511453, 1.782, -7.0763359
0.2104412, -0.0152743, 1.78875, -0.0245361, 1.78875, -0.9987183, 1.78875, -0.152832, 1.78875, 10.2748089, 1.78875, 6.9847326, 1.78875, -6.8473282
0.2112353, -0.0159457, 1.7955, -0.0390015, 1.7955, -1.0007324, 1.7955, -0.1616211, 1.7955, 10.1068707, 1.7955, 6.8931298, 1.7955, -6.7022901
0.2120294, -0.0146029, 1.80225, -0.0464478, 1.80225, -1.0062866, 1.80225, -0.1693726, 1.80225, 9.961832, 1.80225, 6.4656487, 1.80225, -6.5954199
0.2128235, -0.0152743, 1.809, -0.0569458, 1.809, -1.0031128, 1.809, -0.1816406, 1.809, 10.3511448, 1.809, 5.5572519, 1.809, -6.7862597
0.2136176, -0.0159457, 1.81575, -0.0734863, 1.81575, -1.0026245, 1.81575, -0.1960449, 1.81575, 10.801527, 1.81575, 4.4503818, 1.81575, -6.7938933
0.2144118, -0.0152743, 1.8225, -0.0714722, 1.8225, -1.0088501, 1.8225, -0.1971436, 1.8225, 10.9083967, 1.8225, 3.1374047, 1.8225, -7.0229006
0.2152059, -0.0152743, 1.82925, -0.0681152, 1.82925, -1.0175171, 1.82925, -0.1884155, 1.82925, 11.4122133, 1.82925, 1.9389313, 1.82925, -7.5725193
0.216, -0.0139315, 1.836, -0.0635986, 1.836, -1.0144043, 1.836, -0.1881104, 1.836, 12.2290077, 1.836, 1.3053435, 1.836, -7.8320613
0.2167941, -0.0135958, 1.84275, -0.0550537, 1.84275, -1.0162964, 1.84275, -0.1915283, 1.84275, 12.7862597, 1.84275, 1.1755725, 1.84275, -8.0687027
0.2175882, -0.0125887, 1.8495, -0.0444336, 1.8495, -1.0128174, 1.8495, -0.1864624, 1.8495, 13.2977095, 1.8495, 1.389313, 1.8495, -8.1374044
0.2183824, -0.0159457, 1.85625, -0.0327759, 1.85625, -1.0060425, 1.85625, -0.178894, 1.85625, 13.5267172, 1.85625, 2.3282442, 1.85625, -8.3358774
0.2191765, -0.0169528, 1.863, -0.0287476, 1.863, -0.9991455, 1.863, -0.1665039, 1.863, 13.8778629, 1.863, 2.8625953, 1.863, -8.2900763
0.2199706, -0.0142672, 1.86975, -0.0251465, 1.86975, -1.00354, 1.86975, -0.1536255, 1.86975, 14.1221371, 1.86975, 3.7862597, 1.86975, -8.5877867
0.2207647, -0.0135958, 1.8765, -0.0248413, 1.8765, -1.0015259, 1.8765, -0.1467896, 1.8765, 14.3893127, 1.8765, 4.6564884, 1.8765, -8.7938929
0.2215588, -0.0095674, 1.88325, -0.0352173, 1.88325, -1.0045776, 1.88325, -0.1386719, 1.88325, 14.5038166, 1.88325, 5.8396945, 1.88325, -8.7709923
0.2223529, -0.0078889, 1.89, -0.0444946, 1.89, -1.0045776, 1.89, -0.1382446, 1.89, 14.7786255, 1.89, 6.5038166, 1.89, -8.8473282
0.2231471, -0.0102388, 1.89675, -0.0462646, 1.89675, -1.0098267, 1.89675, -0.1277466, 1.89675, 14.5725193, 1.89675, 6.4732823, 1.89675, -8.6488552
0.2239412, -0.012253, 1.9035, -0.0516357, 1.9035, -1.0166016, 1.9035, -0.1271362, 1.9035, 14.9770994, 1.9035, 6.3358779, 1.9035, -8.8244276
0.2247353, -0.0135958, 1.91025, -0.0557251, 1.91025, -1.0168457, 1.91025, -0.1307983, 1.91025, 15.198473, 1.91025, 5.9694657, 1.91025, -8.8320608
0.2255294, -0.0169528, 1.917, -0.0568237, 1.917, -1.0150757, 1.917, -0.1298218, 1.917, 15.0916033, 1.917, 4.778626, 1.917, -8.7251911
0.2263235, -0.0152743, 1.92375, -0.0474243, 1.92375, -1.0151978, 1.92375, -0.1220093, 1.92375, 15.198473, 1.92375, 3.908397, 1.92375, -8.5496187
0.2271176, -0.0112459, 1.9305, -0.0427856, 1.9305, -1.0111694, 1.9305, -0.124939, 1.9305, 15.3740454, 1.9305, 3.0687022, 1.9305, -8.7404585
0.2279118, -0.0130922, 1.93725, -0.0358887, 1.93725, -1.0133057, 1.93725, -0.1273804, 1.93725, 15.3969469, 1.93725, 2.4656489, 1.93725, -8.5954199
0.2287059, -0.0162814, 1.944, -0.02771, 1.944, -1.0192261, 1.944, -0.1174927, 1.944, 15.5267172, 1.944, 1.5572519, 1.944, -8.5114508
0.2295, -0.0172885, 1.95075, -0.017334, 1.95075, -1.0137939, 1.95075, -0.1138306, 1.95075, 15.3435116, 1.95075, 1, 1.95075, -8.6259546
0.2302941, -0.0159457, 1.9575, -0.005127, 1.9575, -1.0080566, 1.9575, -0.1121216, 1.9575, 15.2137403, 1.9575, 0.3969466, 1.9575, -8.4961834
0.2310882, -0.0191348, 1.96425, 0.0024414, 1.96425, -1.0053101, 1.96425, -0.1057739, 1.96425, 14.7938929, 1.96425, 0.4427481, 1.96425, -8.4503813
0.2318824, -0.0176242, 1.971, -0.0021973, 1.971, -1.0042725, 1.971, -0.0919189, 1.971, 14.2977095, 1.971, 0.2366412, 1.971, -8.1145039
0.2326765, -0.0162814, 1.97775, -0.0036011, 1.97775, -1.0012207, 1.97775, -0.0949097, 1.97775, 13.9847326, 1.97775, 0.4961832, 1.97775, -8.160305
0.2334706, -0.0166171, 1.9845, -0.0056763, 1.9845, -1.0018921, 1.9845, -0.0913086, 1.9845, 13.6259546, 1.9845, 0.1450382, 1.9845, -7.8931298
0.2342647, -0.0166171, 1.99125, -0.0048828, 1.99125, -0.99823, 1.99125, -0.0875244, 1.99125, 13.198473, 1.99125, -0.2366412, 1.99125, -7.5343513
0.2350588, -0.0152743, 1.998, -0.0025024, 1.998, -1.0002441, 1.998, -0.0827637, 1.998, 12.9083967, 1.998, -0.221374, 1.998, -7.5343513
0.2358529, -0.0169528, 2.00475, -0.0006104, 2.00475, -1.00177, 2.00475, -0.0842896, 2.00475, 12.5496187, 2.00475, 0.2290076, 2.00475, -7.2900763
0.2366471, -0.0186313, 2.0115, -0.0006104, 2.0115, -0.9971924, 2.0115, -0.0877686, 2.0115, 11.9847326, 2.0115, 0.3053435, 2.0115, -7.1832061
0.2374412, -0.0182956, 2.01825, -0.0050049, 2.01825, -1.0015869, 2.01825, -0.0845947, 2.01825, 11.8167934, 2.01825, 0.5267175, 2.01825, -6.961832
0.2382353, -0.0139315, 2.025, -0.0054932, 2.025, -1.0040894, 2.025, -0.0859985, 2.025, 11.519084, 2.025, 1.1755725, 2.025, -6.4427481
0.2390294, -0.0132601, 2.03175, -0.0106812, 2.03175, -0.9997559, 2.03175, -0.0906372, 2.03175, 11.4045801, 2.03175, 1.3206106, 2.03175, -6.2900763
0.2398235, -0.0149386, 2.0385, -0.0117798, 2.0385, -0.9956665, 2.0385, -0.0930176, 2.0385, 10.8931293, 2.0385, 1.6335878, 2.0385, -6.0229006
0.2406176, -0.01561, 2.04525, -0.0092163, 2.04525, -0.9904785, 2.04525, -0.0961304, 2.04525, 10.7938929, 2.04525, 1.3129771, 2.04525, -6.0610685
0.2414118, -0.0142672, 2.052, -0.0043335, 2.052, -0.9923096, 2.052, -0.0980835, 2.052, 10.1755724, 2.052, 1.5877863, 2.052, -5.8320613
0.2422059, -0.0139315, 2.05875, -0.0043945, 2.05875, -0.996521, 2.05875, -0.0959473, 2.05875, 9.801527, 2.05875, 1.8854961, 2.05875, -5.6717558
0.243, -0.0129244, 2.0655, 0.0018311, 2.0655, -0.9920654, 2.0655, -0.0958252, 2.0655, 9.6946564, 2.0655, 1.6946565, 2.0655, -5.4427481
0.2437941, -0.0149386, 2.07225, 0.0031128, 2.07225, -0.9927368, 2.07225, -0.0919189, 2.07225, 9.3358774, 2.07225, 1.7251909, 2.07225, -5.2671757
0.2445882, -0.0149386, 2.079, -0.0055542, 2.079, -0.9960327, 2.079, -0.0904541, 2.079, 8.9923668, 2.079, 1.6259542, 2.079, -5.221374
0.2453824, -0.0142672, 2.08575, -0.0130615, 2.08575, -1.0026245, 2.08575, -0.0914917, 2.08575, 9.0687027, 2.08575, 1.0687023, 2.08575, -5.3740458
0.2461765, -0.0139315, 2.0925, -0.0246582, 2.0925, -1.0167847, 2.0925, -0.0861206, 2.0925, 8.8549614, 2.0925, 0.6030535, 2.0925, -5.4274807
0.2469706, -0.0166171, 2.09925, -0.0341187, 2.09925, -1.0187988, 2.09925, -0.0825806, 2.09925, 8.9236641, 2.09925, -0.5419847, 2.09925, -5.3358779
0.2477647, -0.0129244, 2.106, -0.03125, 2.106, -1.0230713, 2.106, -0.0914917, 2.106, 8.9847326, 2.106, -1.351145, 2.106, -5.3435116
0.2485588, -0.0099031, 2.11275, -0.0250244, 2.11275, -1.0271606, 2.11275, -0.0886841, 2.11275, 9.0839691, 2.11275, -2.4732823, 2.11275, -5.0839696
0.2493529, -0.0135958, 2.1195, -0.017395, 2.1195, -1.0206909, 2.1195, -0.0806274, 2.1195, 9.2900763, 2.1195, -2.5801528, 2.1195, -5.0229006
0.2501471, -0.0182956, 2.12625, -0.0143433, 2.12625, -1.0143433, 2.12625, -0.0797729, 2.12625, 9.5343513, 2.12625, -1.8473282, 2.12625, -4.8015265
0.2509412, -0.0164492, 2.133, -0.0098267, 2.133, -1.0062866, 2.133, -0.0759888, 2.133, 9.2977095, 2.133, -1.4732825, 2.133, -4.3816795
0.2517353, -0.011078, 2.13975, -0.0043335, 2.13975, -1.0076294, 2.13975, -0.0753174, 2.13975, 9.1374044, 2.13975, -1.038168, 2.13975, -4.3511453
0.2525294, -0.012253, 2.1465, 0.0018921, 2.1465, -1.0105591, 2.1465, -0.0722046, 2.1465, 9.0610685, 2.1465, -0.4198473, 2.1465, -3.9389312
0.2533235, -0.0129244, 2.15325, 0.0039062, 2.15325, -1.0131836, 2.15325, -0.0704956, 2.15325, 8.9007635, 2.15325, 0.3206107, 2.15325, -3.7175572
0.2541176, -0.0149386, 2.16, 0.0046387, 2.16, -1.0074463, 2.16, -0.0772095, 2.16, 8.5267172, 2.16, 0.8625954, 2.16, -3.7022901
0.2549118, -0.0149386, 2.16675, 0.0100098, 2.16675, -1.0026245, 2.16675, -0.0761719, 2.16675, 8.0152674, 2.16675, 1.1603054, 2.16675, -3.5725191
0.2557059, -0.01561, 2.1735, 0.0097656, 2.1735, -1.00177, 2.1735, -0.0754395, 2.1735, 7.8015265, 2.1735, 1.091603, 2.1735, -3.5877862
0.2565, -0.0135958, 2.18025, 0.0040283, 2.18025, -0.9994507, 2.18025, -0.0736694, 2.18025, 7.5343513, 2.18025, 1.4732825, 2.18025, -3.3740458
0.2572941, -0.0125887, 2.187, -0.0009766, 2.187, -1.0071411, 2.187, -0.0751953, 2.187, 7.1068702, 2.187, 1.351145, 2.187, -3.259542
0.2580882, -0.0151064, 2.19375, -0.0081177, 2.19375, -1.0119019, 2.19375, -0.078125, 2.19375, 6.9236641, 2.19375, 1.3206106, 2.19375, -3.1603053
0.2588824, -0.0129244, 2.2005, -0.0103149, 2.2005, -1.0133057, 2.2005, -0.0825195, 2.2005, 7.0305343, 2.2005, 1.3587786, 2.2005, -3.1450381
0.2596765, -0.0142672, 2.20725, -0.008606, 2.20725, -1.0094604, 2.20725, -0.0813599, 2.20725, 7.1221375, 2.20725, 1.4198474, 2.20725, -2.9541984
0.2604706, -0.0151064, 2.214, -0.0093384, 2.214, -1.0032349, 2.214, -0.0830078, 2.214, 7.0305343, 2.214, 1.7251909, 2.214, -2.8091602
0.2612647, -0.0139315, 2.22075, -0.0032959, 2.22075, -0.99646, 2.22075, -0.081604, 2.22075, 6.8167939, 2.22075, 2.5801528, 2.22075, -2.4198472
0.2620588, -0.0146029, 2.2275, -0.0029297, 2.2275, -0.9908447, 2.2275, -0.0813599, 2.2275, 6.5038166, 2.2275, 3.3740458, 2.2275, -2.038168
0.2628529, -0.0182956, 2.23425, 0.0045776, 2.23425, -0.9916382, 2.23425, -0.0755005, 2.23425, 6.4656487, 2.23425, 3.8015268, 2.23425, -2.3206108
0.2636471, -0.0176242, 2.241, 0.0131226, 2.241, -1.0026245, 2.241, -0.0738525, 2.241, 6.0534353, 2.241, 4.4198475, 2.241, -2.0458016
0.2644412, -0.0176242, 2.24775, 0.0130005, 2.24775, -1.0067749, 2.24775, -0.0645142, 2.24775, 6.2061067, 2.24775, 5.0305343, 2.24775, -2.0229008
0.2652353, -0.0159457, 2.2545, 0.0048218, 2.2545, -1.0059204, 2.2545, -0.06604, 2.2545, 6.1603055, 2.2545, 5.8778625, 2.2545, -1.9541985
0.2660294, -0.0142672, 2.26125, -0.0089722, 2.26125, -1.0040283, 2.26125, -0.0637207, 2.26125, 6.0229006, 2.26125, 5.8473282, 2.26125, -2.091603
0.2668235, -0.0149386, 2.268, -0.0218506, 2.268, -1.0049438, 2.268, -0.0665894, 2.268, 5.8473282, 2.268, 5.3053436, 2.268, -1.908397
0.2676176, -0.0142672, 2.27475, -0.0350342, 2.27475, -1.0038452, 2.27475, -0.0690918, 2.27475, 5.4274807, 2.27475, 4.3587785, 2.27475, -1.6946565
0.2684118, -0.0129244, 2.2815, -0.0309448, 2.2815, -1.012207, 2.2815, -0.0655518, 2.2815, 5.3511453, 2.2815, 2.9847329, 2.2815, -1.7480916
0.2692059, -0.0139315, 2.28825, -0.0291748, 2.28825, -1.0128784, 2.28825, -0.0662842, 2.28825, 5.1679387, 2.28825, 2.1984732, 2.28825, -1.8854961
0.27, -0.0127565, 2.295, -0.0238037, 2.295, -1.0169678, 2.295, -0.0685425, 2.295, 5.1221375, 2.295, 1.9312977, 2.295, -1.9465649
0.2707941, -0.0109102, 2.30175, -0.0253296, 2.30175, -1.015564, 2.30175, -0.0703735, 2.30175, 5.7022901, 2.30175, 1.6946565, 2.30175, -1.9389313
0.2715882, -0.0149386, 2.3085, -0.0332642, 2.3085, -1.0077515, 2.3085, -0.0736694, 2.3085, 5.5038166, 2.3085, 2.1603053, 2.3085, -1.7328244
0.2723824, -0.01561, 2.31525, -0.036499, 2.31525, -1.0029907, 2.31525, -0.079895, 2.31525, 5.3282442, 2.31525, 2.1679389, 2.31525, -1.5801526
0.2731765, -0.0149386, 2.322, -0.0377808, 2.322, -1.0027466, 2.322, -0.0844116, 2.322, 5.1221375, 2.322, 1.8015267, 2.322, -1.351145
0.2739706, -0.0137636, 2.32875, -0.0345459, 2.32875, -1.0079956, 2.32875, -0.0835571, 2.32875, 4.9770994, 2.32875, 1.3816794, 2.32875, -1.2061069
0.2747647, -0.0124208, 2.3355, -0.0239868, 2.3355, -1.0090942, 2.3355, -0.0751343, 2.3355, 4.9007635, 2.3355, 0.610687, 2.3355, -1.3129771
0.2755588, -0.0135958, 2.34225, -0.0236816, 2.34225, -1.0059204, 2.34225, -0.0723267, 2.34225, 4.6106873, 2.34225, 0.1679389, 2.34225, -1.1145039
0.2763529, -0.0142672, 2.349, -0.0075684, 2.349, -1.0014038, 2.349, -0.0628052, 2.349, 4.2824426, 2.349, -0.5419847, 2.349, -1.0992366
0.2771471, -0.0166171, 2.35575, 0.0151367, 2.35575, -1.0056152, 2.35575, -0.0484619, 2.35575, 4.2290077, 2.35575, -1.1068702, 2.35575, -1.1068702
0.2779412, -0.018967, 2.3625, 0.0244751, 2.3625, -1.0042114, 2.3625, -0.0440063, 2.3625, 3.6641221, 2.3625, -0.5343512, 2.3625, -0.7251908
0.2787353, -0.0179599, 2.36925, 0.0241089, 2.36925, -1.0077515, 2.36925, -0.0380859, 2.36925, 3.129771, 2.36925, 0.5648855, 2.36925, -0.5801527
0.2795294, -0.0162814, 2.376, 0.0202637, 2.376, -1.0073242, 2.376, -0.0343018, 2.376, 2.8854961, 2.376, 1.7175573, 2.376, -0.2442748
0.2803235, -0.0142672, 2.38275, 0.0177612, 2.38275, -1.0077515, 2.38275, -0.0298462, 2.38275, 2.4580152, 2.38275, 2.2366412, 2.38275, 0.0687023
0.2811176, -0.0129244, 2.3895, 0.0012817, 2.3895, -1.0099487, 2.3895, -0.02948, 2.3895, 2.3969467, 2.3895, 2.2366412, 2.3895, 0.3816794
0.2819118, -0.0142672, 2.39625, -0.0048828, 2.39625, -1.0089722, 2.39625, -0.0371704, 2.39625, 1.9465649, 2.39625, 1.9312977, 2.39625, 0.4274809
0.2827059, -0.0129244, 2.403, -0.0058594, 2.403, -1.0019531, 2.403, -0.0476685, 2.403, 1.648855, 2.403, 1.7099236, 2.403, 0.4656489
0.2835, -0.0149386, 2.40975, -0.0078125, 2.40975, -1.0076294, 2.40975, -0.0493164, 2.40975, 1.0305344, 2.40975, 1.6564885, 2.40975, 0.7175573
0.2842941, -0.0125887, 2.4165, -0.0072632, 2.4165, -1.0089111, 2.4165, -0.0558472, 2.4165, 0.6870229, 2.4165, 1.480916, 2.4165, 1.1221374
0.2850882, -0.0130922, 2.42325, -0.008667, 2.42325, -1.0072021, 2.42325, -0.0565186, 2.42325, 0.6564885, 2.42325, 1.0992366, 2.42325, 1.1221374
0.2858824, -0.0149386, 2.43, -0.007019, 2.43, -0.9990234, 2.43, -0.0635986, 2.43, 0.0763359, 2.43, 1.4732825, 2.43, 1.2824427
0.2866765, -0.0142672, 2.43675, -0.0116577, 2.43675, -1.0020142, 2.43675, -0.06427, 2.43675, -0.351145, 2.43675, 1.5648855, 2.43675, 1.4198474
0.2874706, -0.012253, 2.4435, -0.0183105, 2.4435, -1.0031128, 2.4435, -0.0664673, 2.4435, -0.7175573, 2.4435, 1.3358779, 2.4435, 1.4351145
0.2882647, -0.0112459, 2.45025, -0.0255127, 2.45025, -1.0028687, 2.45025, -0.0635376, 2.45025, -1.0152671, 2.45025, 1.1450381, 2.45025, 1.5419847
0.2890588, -0.0115816, 2.457, -0.0266724, 2.457, -1.0053711, 2.457, -0.0644531, 2.457, -1.1908396, 2.457, 0.7938932, 2.457, 1.4503816
0.2898529, -0.0139315, 2.46375, -0.0300903, 2.46375, -1.00354, 2.46375, -0.0669556, 2.46375, -1.4503816, 2.46375, 0.1145038, 2.46375, 1.4198474
0.2906471, -0.0142672, 2.4705, -0.031189, 2.4705, -1.0045776, 2.4705, -0.0681763, 2.4705, -1.5343511, 2.4705, -0.2366412, 2.4705, 1.610687
0.2914412, -0.0142672, 2.47725, -0.0350952, 2.47725, -1.0040283, 2.47725, -0.0742188, 2.47725, -1.6259542, 2.47725, -1.091603, 2.47725, 1.3587786
0.2922353, -0.0139315, 2.484, -0.036499, 2.484, -0.9998779, 2.484, -0.0745239, 2.484, -1.6946565, 2.484, -1.2290076, 2.484, 1.4198474
0.2930294, -0.0142672, 2.49075, -0.043396, 2.49075, -1.0059814, 2.49075, -0.0774536, 2.49075, -1.6335878, 2.49075, -1.4885496, 2.49075, 1.4198474
0.2938235, -0.0139315, 2.4975, -0.0462646, 2.4975, -1.006897, 2.4975, -0.0772705, 2.4975, -1.389313, 2.4975, -1.8778626, 2.4975, 1.5038168
0.2946176, -0.0135958, 2.50425, -0.0481567, 2.50425, -1.0071411, 2.50425, -0.0836182, 2.50425, -1.2900764, 2.50425, -2.2442749, 2.50425, 1.4351145
0.2954118, -0.01561, 2.511, -0.0501099, 2.511, -1.0048828, 2.511, -0.083374, 2.511, -1.1603054, 2.511, -2.6641221, 2.511, 1.1679389
0.2962059, -0.0130922, 2.51775, -0.0517578, 2.51775, -1.0120239, 2.51775, -0.0838013, 2.51775, -0.8244275, 2.51775, -3.1603053, 2.51775, 0.8549618
0.297, -0.0135958, 2.5245, -0.0442505, 2.5245, -1.0151367, 2.5245, -0.0866699, 2.5245, -0.3816794, 2.5245, -3.5419848, 2.5245, 0.8167939
0.2977941, -0.0162814, 2.53125, -0.0429688, 2.53125, -1.0111694, 2.53125, -0.0858154, 2.53125, -0.0610687, 2.53125, -3.4961832, 2.53125, 0.648855
0.2985882, -0.017792, 2.538, -0.0453491, 2.538, -1.0096436, 2.538, -0.0866699, 2.538, 0.2824427, 2.538, -3.2671757, 2.538, 0.6717557
0.2993824, -0.0209812, 2.54475, -0.0465088, 2.54475, -1.008728, 2.54475, -0.0892334, 2.54475, 0.4732825, 2.54475, -3.3816793, 2.54475, 0.4961832
0.3001765, -0.0169528, 2.5515, -0.0493774, 2.5515, -1.0078735, 2.5515, -0.0845337, 2.5515, 0.5267175, 2.5515, -3.221374, 2.5515, 0.389313
0.3009706, -0.0172885, 2.55825, -0.0478516, 2.55825, -1.0045166, 2.55825, -0.0873413, 2.55825, 0.648855, 2.55825, -3.3282442, 2.55825, 0.3129771
0.3017647, -0.01561, 2.565, -0.0479736, 2.565, -1.0046387, 2.565, -0.0853882, 2.565, 0.7328244, 2.565, -3.7480917, 2.565, 0.221374
0.3025588, -0.0137636, 2.57175, -0.0463257, 2.57175, -1.003479, 2.57175, -0.0862427, 2.57175, 0.6183206, 2.57175, -3.5419848, 2.57175, -0.0610687
0.3033529, -0.0115816, 2.5785, -0.0429688, 2.5785, -1.0021973, 2.5785, -0.0856323, 2.5785, 0.8091603, 2.5785, -3.5801528, 2.5785, -0.0229008
0.3041471, -0.0146029, 2.58525, -0.0365601, 2.58525, -1.0026855, 2.58525, -0.0836792, 2.58525, 0.7480916, 2.58525, -3.5877862, 2.58525, -0.1526718
0.3049412, -0.0139315, 2.592, -0.0358276, 2.592, -1.0025635, 2.592, -0.0770874, 2.592, 0.6946565, 2.592, -3.3587787, 2.592, -0.2366412
0.3057353, -0.0109102, 2.59875, -0.0378418, 2.59875, -1.0106201, 2.59875, -0.0774536, 2.59875, 0.9923664, 2.59875, -2.8167939, 2.59875, -0.2824427
0.3065294, -0.0132601, 2.6055, -0.0401001, 2.6055, -1.0113525, 2.6055, -0.0843506, 2.6055, 1.1755725, 2.6055, -2.4198472, 2.6055, -0.3129771
0.3073235, -0.0146029, 2.61225, -0.0461426, 2.61225, -1.0073242, 2.61225, -0.0856323, 2.61225, 1.6259542, 2.61225, -2.610687, 2.61225, -0.5419847
0.3081176, -0.0171206, 2.619, -0.0548706, 2.619, -1.0093384, 2.619, -0.0862427, 2.619, 1.7099236, 2.619, -2.7099237, 2.619, -0.6793893
0.3089118, -0.0182956, 2.62575, -0.0576782, 2.62575, -1.010376, 2.62575, -0.0878296, 2.62575, 2.0152671, 2.62575, -3.3129771, 2.62575, -0.7328244
0.3097059, -0.0149386, 2.6325, -0.0526123, 2.6325, -1.0080566, 2.6325, -0.0897217, 2.6325, 2.3053436, 2.6325, -4.0534353, 2.6325, -0.7175573
0.3105, -0.0129244, 2.63925, -0.0530396, 2.63925, -1.0065308, 2.63925, -0.0845947, 2.63925, 2.3129771, 2.63925, -4.1374044, 2.63925, -0.9465649
0.3112941, -0.0135958, 2.646, -0.0458374, 2.646, -1.0040894, 2.646, -0.0806274, 2.646, 2.5725191, 2.646, -4.3358779, 2.646, -0.7328244
0.3120882, -0.0171206, 2.65275, -0.0419312, 2.65275, -1.0059814, 2.65275, -0.0760498, 2.65275, 2.7022901, 2.65275, -4.6793895, 2.65275, -0.778626
0.3128824, -0.0181277, 2.6595, -0.0408936, 2.6595, -1.0032349, 2.6595, -0.0761108, 2.6595, 2.8320611, 2.6595, -4.4503818, 2.6595, -0.8091603
0.3136765, -0.0152743, 2.66625, -0.0380249, 2.66625, -1, 2.66625, -0.0757446, 2.66625, 2.8778627, 2.66625, -4.4122138, 2.66625, -1
0.3144706, -0.01561, 2.673, -0.0391235, 2.673, -0.9956665, 2.673, -0.0776978, 2.673, 2.9160306, 2.673, -4.480916, 2.673, -1.0458015
0.3152647, -0.0162814, 2.67975, -0.0325928, 2.67975, -0.9998779, 2.67975, -0.0756226, 2.67975, 2.8778627, 2.67975, -4.5877862, 2.67975, -0.9923664
0.3160588, -0.0140993, 2.6865, -0.0291748, 2.6865, -0.9979248, 2.6865, -0.0756226, 2.6865, 2.8931298, 2.6865, -4.3893127, 2.6865, -1.1450381
0.3168529, -0.0132601, 2.69325, -0.029541, 2.69325, -0.9969482, 2.69325, -0.0774536, 2.69325, 3.0610688, 2.69325, -3.9694657, 2.69325, -1.221374
0.3176471, -0.0146029, 2.7, -0.0285034, 2.7, -0.9994507, 2.7, -0.0792236, 2.7, 2.8091602, 2.7, -3.4427481, 2.7, -1.4656489
0.3184412, -0.0149386, 2.70675, -0.0322266, 2.70675, -1.0003052, 2.70675, -0.0757446, 2.70675, 2.9236641, 2.70675, -3.1145039, 2.70675, -1.4580153
0.3192353, -0.0146029, 2.7135, -0.0335083, 2.7135, -1.0020752, 2.7135, -0.0745239, 2.7135, 2.9923663, 2.7135, -3.0458016, 2.7135, -1.3206106
0.3200294, -0.0135958, 2.72025, -0.0457764, 2.72025, -1.0028687, 2.72025, -0.0745239, 2.72025, 3.1068702, 2.72025, -2.9694657, 2.72025, -1.648855
0.3208235, -0.0149386, 2.727, -0.0526123, 2.727, -1.0089722, 2.727, -0.0754395, 2.727, 3.3206108, 2.727, -3.3664122, 2.727, -1.6412214
0.3216176, -0.0139315, 2.73375, -0.0591431, 2.73375, -1.0102539, 2.73375, -0.0734863, 2.73375, 3.5114503, 2.73375, -4.038168, 2.73375, -1.6335878
0.3224118, -0.0135958, 2.7405, -0.0576782, 2.7405, -1.0140381, 2.7405, -0.072937, 2.7405, 3.7709923, 2.7405, -4.4580154, 2.7405, -1.6793894
0.3232059, -0.0139315, 2.74725, -0.0458984, 2.74725, -1.0119629, 2.74725, -0.0702515, 2.74725, 3.8549619, 2.74725, -4.7709923, 2.74725, -1.6717557
0.324, -0.012253, 2.754, -0.0390625, 2.754, -1.008606, 2.754, -0.0644531, 2.754, 3.9847329, 2.754, -4.9694657, 2.754, -2.0458016
0.3247941, -0.0149386, 2.76075, -0.038208, 2.76075, -1.0084229, 2.76075, -0.0631714, 2.76075, 4.1145039, 2.76075, -4.0229006, 2.76075, -1.8473282
0.3255882, -0.01561, 2.7675, -0.0366821, 2.7675, -1.0068359, 2.7675, -0.0644531, 2.7675, 3.9847329, 2.7675, -3.610687, 2.7675, -1.9236641
0.3263824, -0.0137636, 2.77425, -0.0418091, 2.77425, -1.0091553, 2.77425, -0.0682373, 2.77425, 4, 2.77425, -3.259542, 2.77425, -1.7938931
0.3271765, -0.0149386, 2.781, -0.0443726, 2.781, -1.0057373, 2.781, -0.0670776, 2.781, 4.0992365, 2.781, -2.6717558, 2.781, -1.8473282
0.3279706, -0.0149386, 2.78775, -0.0408936, 2.78775, -1.0056152, 2.78775, -0.0611572, 2.78775, 3.9236641, 2.78775, -2.6335878, 2.78775, -1.9923664
0.3287647, -0.0166171, 2.7945, -0.039917, 2.7945, -1.0070801, 2.7945, -0.0582275, 2.7945, 4.0076337, 2.7945, -2.5725191, 2.7945, -2.0763359
0.3295588, -0.0176242, 2.80125, -0.041626, 2.80125, -1.0045776, 2.80125, -0.0601807, 2.80125, 3.7557251, 2.80125, -2.2977099, 2.80125, -2.0534351
0.3303529, -0.0149386, 2.808, -0.0409546, 2.808, -1.0023193, 2.808, -0.0584717, 2.808, 3.6793892, 2.808, -1.8931298, 2.808, -2.0229008
0.3311471, -0.0132601, 2.81475, -0.0392456, 2.81475, -1.0063477, 2.81475, -0.0603027, 2.81475, 3.610687, 2.81475, -1.6412214, 2.81475, -2.0763359
0.3319412, -0.0117494, 2.8215, -0.0413208, 2.8215, -1.0038452, 2.8215, -0.0581055, 2.8215, 3.5419848, 2.8215, -1.7709924, 2.8215, -2.1679389
0.3327353, -0.0097353, 2.82825, -0.0430908, 2.82825, -1.00354, 2.82825, -0.0601807, 2.82825, 3.4427481, 2.82825, -1.8549619, 2.82825, -2.1603053
0.3335294, -0.0115816, 2.835, -0.0463257, 2.835, -1.0031128, 2.835, -0.0631104, 2.835, 3.4885497, 2.835, -1.6870229, 2.835, -2.3740458
0.3343235, -0.012253, 2.84175, -0.0475464, 2.84175, -1.0033569, 2.84175, -0.065918, 2.84175, 3.519084, 2.84175, -1.7633588, 2.84175, -2.5801528
0.3351176, -0.0099031, 2.8485, -0.0502319, 2.8485, -1.0031128, 2.8485, -0.0661011, 2.8485, 3.3816793, 2.8485, -2.0152671, 2.8485, -2.5648854
0.3359118, -0.011078, 2.85525, -0.0467529, 2.85525, -1.0024414, 2.85525, -0.0623779, 2.85525, 3.1984732, 2.85525, -2.0763359, 2.85525, -2.5343511
0.3367059, -0.0109102, 2.862, -0.046875, 2.862, -1.0039673, 2.862, -0.0656738, 2.862, 3.1221373, 2.862, -2.1374047, 2.862, -2.7480917
0.3375, -0.0112459, 2.86875, -0.0453491, 2.86875, -1.0042114, 2.86875, -0.0604858, 2.86875, 3.0152671, 2.86875, -2.1679389, 2.86875, -2.6870229
0.3382941, -0.01561, 2.8755, -0.0424194, 2.8755, -1.0043945, 2.8755, -0.0570679, 2.8755, 3.0229008, 2.8755, -1.908397, 2.8755, -2.8473282
0.3390882, -0.0176242, 2.88225, -0.0402832, 2.88225, -1.0050659, 2.88225, -0.0568848, 2.88225, 2.9389312, 2.88225, -1.2977099, 2.88225, -2.778626
0.3398824, -0.0151064, 2.889, -0.041626, 2.889, -1.0080566, 2.889, -0.050293, 2.889, 2.9465649, 2.889, -0.8015267, 2.889, -2.8931298
0.3406765, -0.0142672, 2.89575, -0.043396, 2.89575, -1.0072021, 2.89575, -0.0535889, 2.89575, 2.7099237, 2.89575, -0.2442748, 2.89575, -2.9312978
0.3414706, -0.0179599, 2.9025, -0.0489502, 2.9025, -1.0037842, 2.9025, -0.0522461, 2.9025, 2.6717558, 2.9025, 0.0381679, 2.9025, -2.8625953
0.3422647, -0.0182956, 2.90925, -0.0516357, 2.90925, -0.9989014, 2.90925, -0.0518188, 2.90925, 2.4122138, 2.90925, 0.2824427, 2.90925, -3.1832061
0.3430588, -0.0213169, 2.916, -0.0526733, 2.916, -1.0043335, 2.916, -0.0496826, 2.916, 2.4274809, 2.916, 0.2290076, 2.916, -3.1374047
0.3438529, -0.021149, 2.92275, -0.0494385, 2.92275, -1.0053711, 2.92275, -0.0522461, 2.92275, 2.2900763, 2.92275, 0.3129771, 2.92275, -3.0229008
0.3446471, -0.0213169, 2.9295, -0.0488281, 2.9295, -1.007019, 2.9295, -0.0513916, 2.9295, 2.221374, 2.9295, 0.6335878, 2.9295, -3.2519083
0.3454412, -0.0219883, 2.93625, -0.0492554, 2.93625, -1.0047607, 2.93625, -0.0518188, 2.93625, 1.9312977, 2.93625, 0.8167939, 2.93625, -3.1755726
0.3462353, -0.0193027, 2.943, -0.0473633, 2.943, -1.0004272, 2.943, -0.0517578, 2.943, 1.7175573, 2.943, 1.0534351, 2.943, -3.1984732
0.3470294, -0.0176242, 2.94975, -0.045105, 2.94975, -1.0018311, 2.94975, -0.0523071, 2.94975, 1.7557251, 2.94975, 0.961832, 2.94975, -3.1526718
0.3478235, -0.01561, 2.9565, -0.0465698, 2.9565, -1.0027466, 2.9565, -0.057251, 2.9565, 1.7328244, 2.9565, 1.4503816, 2.9565, -3.4351146
0.3486176, -0.0164492, 2.96325, -0.0446167, 2.96325, -1.0041504, 2.96325, -0.0592651, 2.96325, 1.610687, 2.96325, 1.5877863, 2.96325, -3.4580152
0.3494118, -0.0142672, 2.97, -0.0460815, 2.97, -1.0080566, 2.97, -0.0582886, 2.97, 1.7099236, 2.97, 1.8473282, 2.97, -3.4122138
0.3502059, -0.01561, 2.97675, -0.0420532, 2.97675, -1.008728, 2.97675, -0.0588989, 2.97675, 1.7022901, 2.97675, 2.0992367, 2.97675, -3.3282442
0.351, -0.0182956, 2.9835, -0.043457, 2.9835, -1.0092163, 2.9835, -0.0628052, 2.9835, 1.6717557, 2.9835, 2.3129771, 2.9835, -3.4427481
0.3517941, -0.0152743, 2.99025, -0.046875, 2.99025, -1.0080566, 2.99025, -0.0635986, 2.99025, 1.4580153, 2.99025, 2.3740458, 2.99025, -3.5801528
0.3525882, -0.0164492, 2.997, -0.0492554, 2.997, -1.0111694, 2.997, -0.0578003, 2.997, 1.4045801, 2.997, 2.4732823, 2.997, -3.7099237
0.3533824, -0.0166171, 3.00375, -0.0482178, 3.00375, -1.012085, 3.00375, -0.0597534, 3.00375, 1.4045801, 3.00375, 2.5114503, 3.00375, -3.5954199
0.3541765, -0.014435, 3.0105, -0.0463867, 3.0105, -1.0037231, 3.0105, -0.0567017, 3.0105, 1.351145, 3.0105, 2.5343511, 3.0105, -3.7175572
0.3549706, -0.0112459, 3.01725, -0.0458374, 3.01725, -1.0012207, 3.01725, -0.0574341, 3.01725, 1.1984733, 3.01725, 2.8854961, 3.01725, -3.8091602
0.3557647, -0.0142672, 3.024, -0.0424194, 3.024, -1.0015869, 3.024, -0.0536499, 3.024, 1.1374046, 3.024, 2.9389312, 3.024, -3.7862597
0.3565588, -0.0169528, 3.03075, -0.0355225, 3.03075, -1.0032349, 3.03075, -0.0518799, 3.03075, 1.091603, 3.03075, 3.4885497, 3.03075, -3.6564887
0.3573529, -0.0159457, 3.0375, -0.0335693, 3.0375, -1.0039673, 3.0375, -0.0467529, 3.0375, 0.7099237, 3.0375, 4.0229006, 3.0375, -3.6030533
0.3581471, -0.01561, 3.04425, -0.0357056, 3.04425, -1.0020142, 3.04425, -0.0474854, 3.04425, 0.610687, 3.04425, 4.8854961, 3.04425, -3.6717558
0.3589412, -0.0114137, 3.051, -0.0361328, 3.051, -1.0010986, 3.051, -0.0510864, 3.051, 0.5954198, 3.051, 5.5343513, 3.051, -3.6564887
0.3597353, -0.012253, 3.05775, -0.0384521, 3.05775, -0.9998169, 3.05775, -0.0488281, 3.05775, 0.2061069, 3.05775, 6, 3.05775, -3.3282442
0.3605294, -0.0129244, 3.0645, -0.0395508, 3.0645, -0.9983521, 3.0645, -0.0527954, 3.0645, -0.0076336, 3.0645, 6.6030536, 3.0645, -3.3358779
0.3613235, -0.0129244, 3.07125, -0.0422974, 3.07125, -0.9954834, 3.07125, -0.0602417, 3.07125, -0.221374, 3.07125, 6.6564884, 3.07125, -3.351145
0.3621176, -0.011078, 3.078, -0.0440063, 3.078, -0.9971313, 3.078, -0.0610352, 3.078, -0.3969466, 3.078, 6.9236641, 3.078, -3.3129771
0.3629118, -0.0104067, 3.08475, -0.0461426, 3.08475, -1.0007935, 3.08475, -0.0606079, 3.08475, -0.778626, 3.08475, 6.7938933, 3.08475, -3.1603053
0.3637059, -0.0135958, 3.0915, -0.0469971, 3.0915, -1.0001831, 3.0915, -0.0679321, 3.0915, -1.0076336, 3.0915, 6.6641221, 3.0915, -3.0076337
0.3645, -0.012253, 3.09825, -0.0490112, 3.09825, -0.9993896, 3.09825, -0.0699463, 3.09825, -1.0534351, 3.09825, 6.3511453, 3.09825, -3.0076337
0.3652941, -0.0109102, 3.105, -0.0490723, 3.105, -1.0020142, 3.105, -0.0681763, 3.105, -1.1145039, 3.105, 6.2977099, 3.105, -3.2519083
0.3660882, -0.0152743, 3.11175, -0.0480957, 3.11175, -1.0060425, 3.11175, -0.0687256, 3.11175, -1.038168, 3.11175, 5.8167939, 3.11175, -3.0763359
0.3668824, -0.0135958, 3.1185, -0.0430298, 3.1185, -1.0134888, 3.1185, -0.0697632, 3.1185, -1.2977099, 3.1185, 5.1679387, 3.1185, -2.9312978
0.3676765, -0.0149386, 3.12525, -0.0395508, 3.12525, -1.0200806, 3.12525, -0.0671387, 3.12525, -0.8244275, 3.12525, 4.5954199, 3.12525, -2.9923663
0.3684706, -0.0135958, 3.132, -0.0389404, 3.132, -1.0143433, 3.132, -0.0690918, 3.132, -0.7709923, 3.132, 3.8931298, 3.132, -3.0839694
0.3692647, -0.0115816, 3.13875, -0.0426025, 3.13875, -1.0085449, 3.13875, -0.0673828, 3.13875, -0.7938932, 3.13875, 3.961832, 3.13875, -3.2137403
0.3700588, -0.0125887, 3.1455, -0.0443726, 3.1455, -1.0110474, 3.1455, -0.0648804, 3.1455, -0.7938932, 3.1455, 4.0458016, 3.1455, -3.3206108
0.3708529, -0.010071, 3.15225, -0.0437012, 3.15225, -1.0085449, 3.15225, -0.0628052, 3.15225, -0.6717557, 3.15225, 4, 3.15225, -3.3129771
0.3716471, -0.0115816, 3.159, -0.0419922, 3.159, -1.0062256, 3.159, -0.0646362, 3.159, -0.8091603, 3.159, 3.8854961, 3.159, -3.3664122
0.3724412, -0.012253, 3.16575, -0.0457764, 3.16575, -1.0040894, 3.16575, -0.064209, 3.16575, -0.5114504, 3.16575, 3.8625953, 3.16575, -3.3816793
0.3732353, -0.0095674, 3.1725, -0.0425415, 3.1725, -1.0047607, 3.1725, -0.0638428, 3.1725, -0.6335878, 3.1725, 3.7175572, 3.1725, -3.4045801
0.3740294, -0.0102388, 3.17925, -0.0446777, 3.17925, -1.007019, 3.17925, -0.0650024, 3.17925, -0.5419847, 3.17925, 3.6870229, 3.17925, -3.3969467
0.3748235, -0.012253, 3.186, -0.0444946, 3.186, -1.0067749, 3.186, -0.071106, 3.186, -0.5267175, 3.186, 3.8015268, 3.186, -3.2671757
0.3756176, -0.0099031, 3.19275, -0.048584, 3.19275, -1.008606, 3.19275, -0.0707397, 3.19275, -0.6030535, 3.19275, 4.1832061, 3.19275, -3.2671757
0.3764118, -0.0125887, 3.1995, -0.0498047, 3.1995, -1.0076904, 3.1995, -0.069397, 3.1995, -0.6030535, 3.1995, 4.3358779, 3.1995, -3.3740458
0.3772059, -0.0179599, 3.20625, -0.0506592, 3.20625, -1.0101318, 3.20625, -0.0690308, 3.20625, -0.5114504, 3.20625, 4.0839696, 3.20625, -3.6259542
0.378, -0.0151064, 3.213, -0.0498047, 3.213, -1.0044556, 3.213, -0.0681152, 3.213, -0.2824427, 3.213, 3.9465649, 3.213, -3.4351146
0.3787941, -0.0159457, 3.21975, -0.0477295, 3.21975, -1.0019531, 3.21975, -0.0726929, 3.21975, -0.351145, 3.21975, 3.7480917, 3.21975, -3.3740458
0.3795882, -0.0149386, 3.2265, -0.0409546, 3.2265, -0.9993896, 3.2265, -0.0717163, 3.2265, -0.5648855, 3.2265, 3.5267177, 3.2265, -3.480916
0.3803824, -0.0139315, 3.23325, -0.0400391, 3.23325, -1.0026245, 3.23325, -0.0687256, 3.23325, -0.5725191, 3.23325, 3.5954199, 3.23325, -3.2671757
0.3811765, -0.0129244, 3.24, -0.0385132, 3.24, -1.0026245, 3.24, -0.0670166, 3.24, -0.6335878, 3.24, 3.8167939, 3.24, -3.3587787
0.3819706, -0.0129244, 3.24675, -0.0379639, 3.24675, -1.0024414, 3.24675, -0.0715942, 3.24675, -0.6946565, 3.24675, 3.870229, 3.24675, -3.4351146
0.3827647, -0.012253, 3.2535, -0.0384521, 3.2535, -1.0037231, 3.2535, -0.0709839, 3.2535, -0.8549618, 3.2535, 3.6183207, 3.2535, -3.4198472
0.3835588, -0.01561, 3.26025, -0.038208, 3.26025, -1.0014648, 3.26025, -0.06604, 3.26025, -0.9770992, 3.26025, 3.7328243, 3.26025, -3.3282442
0.3843529, -0.0184634, 3.267, -0.0396118, 3.267, -1.001709, 3.267, -0.0661011, 3.267, -1.1984733, 3.267, 3.4656489, 3.267, -3.2977099
0.3851471, -0.01561, 3.27375, -0.0377808, 3.27375, -1.0057983, 3.27375, -0.0667114, 3.27375, -1.3816794, 3.27375, 3.3129771, 3.27375, -3.3740458
0.3859412, -0.0151064, 3.2805, -0.0375977, 3.2805, -1.0059814, 3.2805, -0.0637817, 3.2805, -1.4122137, 3.2805, 3.2748091, 3.2805, -3.2290077
0.3867353, -0.0176242, 3.28725, -0.0383911, 3.28725, -1.008606, 3.28725, -0.0584717, 3.28725, -1.4961832, 3.28725, 3.1908398, 3.28725, -3.3282442
0.3875294, -0.0146029, 3.294, -0.0370483, 3.294, -1.0128174, 3.294, -0.0598755, 3.294, -1.2900764, 3.294, 3.259542, 3.294, -3.2977099
0.3883235, -0.0152743, 3.30075, -0.0396729, 3.30075, -1.0118408, 3.30075, -0.0615845, 3.30075, -1.3206106, 3.30075, 3.1908398, 3.30075, -3.091603
0.3891176, -0.0216526, 3.3075, -0.0376587, 3.3075, -1.0137329, 3.3075, -0.0599976, 3.3075, -1.091603, 3.3075, 3.0305343, 3.3075, -2.961832
0.3899118, -0.018967, 3.31425, -0.0401611, 3.31425, -1.0136108, 3.31425, -0.0621948, 3.31425, -1.1832061, 3.31425, 2.961832, 3.31425, -3.0076337
0.3907059, -0.0182956, 3.321, -0.0374146, 3.321, -1.0126343, 3.321, -0.0654297, 3.321, -1.091603, 3.321, 3.0152671, 3.321, -2.8625953
0.3915, -0.0182956, 3.32775, -0.0426025, 3.32775, -1.0128784, 3.32775, -0.06427, 3.32775, -1.1832061, 3.32775, 2.9847329, 3.32775, -2.8091602
0.3922941, -0.0194705, 3.3345, -0.0427246, 3.3345, -1.015564, 3.3345, -0.0681152, 3.3345, -1.1374046, 3.3345, 3.091603, 3.3345, -2.8473282
0.3930882, -0.0213169, 3.34125, -0.046875, 3.34125, -1.0148926, 3.34125, -0.0670166, 3.34125, -0.8244275, 3.34125, 2.8320611, 3.34125, -2.7633588
0.3938824, -0.018967, 3.348, -0.0459595, 3.348, -1.0112305, 3.348, -0.071167, 3.348, -0.7251908, 3.348, 2.6335878, 3.348, -2.6412213
0.3946765, -0.018967, 3.35475, -0.0425415, 3.35475, -1.0064697, 3.35475, -0.0678711, 3.35475, -0.778626, 3.35475, 2.3664122, 3.35475, -2.5954199
0.3954706, -0.0186313, 3.3615, -0.0396729, 3.3615, -1.0098877, 3.3615, -0.0695801, 3.3615, -0.7251908, 3.3615, 2.3664122, 3.3615, -2.6564887
0.3962647, -0.0135958, 3.36825, -0.0343018, 3.36825, -1.0056763, 3.36825, -0.0684814, 3.36825, -0.7633588, 3.36825, 2.3435113, 3.36825, -2.4122138
0.3970588, -0.0142672, 3.375, -0.0371704, 3.375, -1.0053711, 3.375, -0.0690918, 3.375, -0.7099237, 3.375, 2.6183207, 3.375, -2.3664122
0.3978529, -0.0169528, 3.38175, -0.0361938, 3.38175, -1.0048218, 3.38175, -0.0714722, 3.38175, -0.870229, 3.38175, 2.6259542, 3.38175, -2.0610688
0.3986471, -0.0166171, 3.3885, -0.0346069, 3.3885, -1.0042725, 3.3885, -0.0722046, 3.3885, -1.1679389, 3.3885, 2.6183207, 3.3885, -2.0763359
0.3994412, -0.014435, 3.39525, -0.0330811, 3.39525, -1.0065918, 3.39525, -0.0693359, 3.39525, -1.1832061, 3.39525, 2.648855, 3.39525, -2.1679389
0.4002353, -0.0129244, 3.402, -0.0350952, 3.402, -1.0088501, 3.402, -0.0670166, 3.402, -1.3129771, 3.402, 2.6183207, 3.402, -1.9847329
0.4010294, -0.0149386, 3.40875, -0.0350342, 3.40875, -1.0056152, 3.40875, -0.067749, 3.40875, -1.5801526, 3.40875, 2.6412213, 3.40875, -1.7862595
0.4018235, -0.01561, 3.4155, -0.0378418, 3.4155, -1.0065918, 3.4155, -0.0629883, 3.4155, -1.5648855, 3.4155, 2.5954199, 3.4155, -1.7633588
0.4026176, -0.0135958, 3.42225, -0.0374756, 3.42225, -1.0048828, 3.42225, -0.0666504, 3.42225, -1.6259542, 3.42225, 2.7709923, 3.42225, -1.7938931
0.4034118, -0.0135958, 3.429, -0.0386353, 3.429, -1.0021362, 3.429, -0.0631714, 3.429, -1.7709924, 3.429, 2.3969467, 3.429, -1.5419847
0.4042059, -0.014435, 3.43575, -0.0367432, 3.43575, -0.9978027, 3.43575, -0.0698853, 3.43575, -1.9312977, 3.43575, 2.5343511, 3.43575, -1.4045801
0.405, -0.0115816, 3.4425, -0.0324707, 3.4425, -0.9989014, 3.4425, -0.0665283, 3.4425, -2.4045801, 3.4425, 2.2061069, 3.4425, -1.4580153
0.4057941, -0.0114137, 3.44925, -0.0363159, 3.44925, -1.0003662, 3.44925, -0.0681763, 3.44925, -2.610687, 3.44925, 2.6412213, 3.44925, -1.1526718
0.4065882, -0.0115816, 3.456, -0.036499, 3.456, -1.0020142, 3.456, -0.0701294, 3.456, -2.7557251, 3.456, 2.7557251, 3.456, -1.2061069
0.4073824, -0.0102388, 3.46275, -0.039856, 3.46275, -0.9989624, 3.46275, -0.0713501, 3.46275, -2.7022901, 3.46275, 2.9847329, 3.46275, -1.1984733
0.4081765, -0.0092317, 3.4695, -0.0413208, 3.4695, -1.0005493, 3.4695, -0.0769043, 3.4695, -2.870229, 3.4695, 3.129771, 3.4695, -1.0534351
0.4089706, -0.0109102, 3.47625, -0.0438843, 3.47625, -1.0028076, 3.47625, -0.0731812, 3.47625, -2.9465649, 3.47625, 3.1984732, 3.47625, -1.0687023
0.4097647, -0.0125887, 3.483, -0.0473022, 3.483, -1.0089722, 3.483, -0.0769653, 3.483, -2.7022901, 3.483, 3.2748091, 3.483, -1
0.4105588, -0.0129244, 3.48975, -0.0492554, 3.48975, -1.0079956, 3.48975, -0.0803223, 3.48975, -2.7251909, 3.48975, 3.1145039, 3.48975, -1.2137405
0.4113529, -0.0166171, 3.4965, -0.0580444, 3.4965, -1.0125122, 3.4965, -0.0871582, 3.4965, -2.4427481, 3.4965, 2.9847329, 3.4965, -1.0152671
0.4121471, -0.0164492, 3.50325, -0.0603027, 3.50325, -1.0100708, 3.50325, -0.088623, 3.50325, -2.2137403, 3.50325, 2.6793892, 3.50325, -1.259542
0.4129412, -0.0115816, 3.51, -0.0603638, 3.51, -1.0129395, 3.51, -0.0861816, 3.51, -2.091603, 3.51, 2.3129771, 3.51, -1.1832061
0.4137353, -0.0137636, 3.51675, -0.0598755, 3.51675, -1.0126953, 3.51675, -0.0914307, 3.51675, -1.870229, 3.51675, 2.2519083, 3.51675, -1.1984733
0.4145294, -0.01561, 3.5235, -0.0587769, 3.5235, -1.0100098, 3.5235, -0.0935059, 3.5235, -1.5572519, 3.5235, 1.9236641, 3.5235, -1.2977099
0.4153235, -0.0129244, 3.53025, -0.05896, 3.53025, -1.0130005, 3.53025, -0.0910034, 3.53025, -1.3053435, 3.53025, 1.8320611, 3.53025, -1.5877863
0.4161176, -0.0125887, 3.537, -0.0614624, 3.537, -1.0136108, 3.537, -0.088562, 3.537, -0.8244275, 3.537, 1.740458, 3.537, -1.7099236
0.4169118, -0.0142672, 3.54375, -0.0617676, 3.54375, -1.0136719, 3.54375, -0.0891113, 3.54375, -0.4351145, 3.54375, 1.6793894, 3.54375, -1.6717557
0.4177059, -0.0162814, 3.5505, -0.06073, 3.5505, -1.0117188, 3.5505, -0.0915527, 3.5505, -0.1755725, 3.5505, 1.7251909, 3.5505, -1.7938931
0.4185, -0.01561, 3.55725, -0.0581055, 3.55725, -1.0120239, 3.55725, -0.0899658, 3.55725, -0.1145038, 3.55725, 1.5801526, 3.55725, -2.0763359
0.4192941, -0.0171206, 3.564, -0.0619507, 3.564, -1.0110474, 3.564, -0.0881958, 3.564, 0.1603053, 3.564, 1.648855, 3.564, -1.9312977
0.4200882, -0.0125887, 3.57075, -0.0592651, 3.57075, -1.0107422, 3.57075, -0.085144, 3.57075, 0.3587786, 3.57075, 1.6793894, 3.57075, -2
0.4208824, -0.012253, 3.5775, -0.0559692, 3.5775, -1.0058594, 3.5775, -0.0874634, 3.5775, 0.6183206, 3.5775, 1.480916, 3.5775, -2.0687022
0.4216765, -0.0115816, 3.58425, -0.0576782, 3.58425, -1.0015259, 3.58425, -0.0869141, 3.58425, 0.7328244, 3.58425, 1.1068702, 3.58425, -2.0610688
0.4224706, -0.0109102, 3.591, -0.0535278, 3.591, -1.0031738, 3.591, -0.0843506, 3.591, 0.9236641, 3.591, 0.9312977, 3.591, -2.038168
0.4232647, -0.0109102, 3.59775, -0.0518188, 3.59775, -1.0064087, 3.59775, -0.0844116, 3.59775, 0.9312977, 3.59775, 0.610687, 3.59775, -2.4732823
0.4240588, -0.0124208, 3.6045, -0.0523682, 3.6045, -1.0067749, 3.6045, -0.0846558, 3.6045, 1.129771, 3.6045, 0.259542, 3.6045, -2.4274809
0.4248529, -0.0142672, 3.61125, -0.0523071, 3.61125, -1.0056152, 3.61125, -0.0827637, 3.61125, 1.3358779, 3.61125, 0.2290076, 3.61125, -2.4427481
0.4256471, -0.0119173, 3.618, -0.0561523, 3.618, -1.0067139, 3.618, -0.085144, 3.618, 1.4122137, 3.618, -0.2061069, 3.618, -2.5114503
0.4264412, -0.0140993, 3.62475, -0.0567017, 3.62475, -1.0067139, 3.62475, -0.0831909, 3.62475, 1.6335878, 3.62475, -0.648855, 3.62475, -2.5648854
0.4272353, -0.0169528, 3.6315, -0.057373, 3.6315, -1.0076294, 3.6315, -0.0865479, 3.6315, 1.6030535, 3.6315, -1.0152671, 3.6315, -2.6030533
0.4280294, -0.0169528, 3.63825, -0.0593872, 3.63825, -1.0098267, 3.63825, -0.0871582, 3.63825, 1.7175573, 3.63825, -1.3740458, 3.63825, -2.7633588
0.4288235, -0.018967, 3.645, -0.0574951, 3.645, -1.010376, 3.645, -0.0894775, 3.645, 1.8015267, 3.645, -1.5954199, 3.645, -2.6259542
0.4296176, -0.0162814, 3.65175, -0.0568237, 3.65175, -1.0089722, 3.65175, -0.0863037, 3.65175, 1.7862595, 3.65175, -1.961832, 3.65175, -2.6641221
0.4304118, -0.018967, 3.6585, -0.0545044, 3.6585, -1.0105591, 3.6585, -0.0841675, 3.6585, 1.8320611, 3.6585, -2.0763359, 3.6585, -2.6717558
0.4312059, -0.0191348, 3.66525, -0.0524292, 3.66525, -1.0130615, 3.66525, -0.0789795, 3.66525, 2.0229008, 3.66525, -2.1679389, 3.66525, -2.8396947
0.432, -0.01561, 3.672, -0.0487671, 3.672, -1.0102539, 3.672, -0.0769043, 3.672, 2.2061069, 3.672, -2.1221373, 3.672, -2.8244274
0.4327941, -0.01561, 3.67875, -0.0477295, 3.67875, -1.0068359, 3.67875, -0.0733643, 3.67875, 2.1603053, 3.67875, -2, 3.67875, -2.7328243
0.4335882, -0.0179599, 3.6855, -0.0460205, 3.6855, -1.00354, 3.6855, -0.0759277, 3.6855, 2.1984732, 3.6855, -1.6946565, 3.6855, -2.6335878
0.4343824, -0.0172885, 3.69225, -0.0450439, 3.69225, -1.0063477, 3.69225, -0.072876, 3.69225, 2.1450381, 3.69225, -1.4961832, 3.69225, -2.7251909
0.4351765, -0.0172885, 3.699, -0.0438843, 3.699, -1.0077515, 3.699, -0.074585, 3.699, 2.2137403, 3.699, -1.3206106, 3.699, -2.6946564
0.4359706, -0.0182956, 3.70575, -0.0449829, 3.70575, -1.0056763, 3.70575, -0.0759277, 3.70575, 2.1755726, 3.70575, -0.9389313, 3.70575, -2.6717558
0.4367647, -0.0162814, 3.7125, -0.0473022, 3.7125, -1.0047607, 3.7125, -0.0734253, 3.7125, 2.2977099, 3.7125, -0.8854962, 3.7125, -2.6564887
0.4375588, -0.0137636, 3.71925, -0.0495605, 3.71925, -1.0042725, 3.71925, -0.0759277, 3.71925, 2.2137403, 3.71925, -0.6946565, 3.71925, -2.7938931
0.4383529, -0.0161135, 3.726, -0.0507202, 3.726, -1.0022583, 3.726, -0.0750732, 3.726, 2.3053436, 3.726, -0.7022901, 3.726, -2.4351146
0.4391471, -0.01561, 3.73275, -0.0505981, 3.73275, -1.0036011, 3.73275, -0.0827637, 3.73275, 2.4045801, 3.73275, -0.5877863, 3.73275, -2.5572519
0.4399412, -0.0139315, 3.7395, -0.0526123, 3.7395, -1.0031738, 3.7395, -0.0834351, 3.7395, 2.1526718, 3.7395, -0.9389313, 3.7395, -2.5419848
0.4407353, -0.0095674, 3.74625, -0.0509033, 3.74625, -1.003418, 3.74625, -0.0810547, 3.74625, 2.1984732, 3.74625, -0.9465649, 3.74625, -2.5648854
0.4415294, -0.0135958, 3.753, -0.0487671, 3.753, -1.0050659, 3.753, -0.0809937, 3.753, 2.1603053, 3.753, -1.2519084, 3.753, -2.6335878
0.4423235, -0.0169528, 3.75975, -0.052063, 3.75975, -1.005249, 3.75975, -0.0797119, 3.75975, 2.1603053, 3.75975, -1.3816794, 3.75975, -2.648855
0.4431176, -0.0135958, 3.7665, -0.0565186, 3.7665, -1.0039673, 3.7665, -0.0780029, 3.7665, 2.2061069, 3.7665, -1.5419847, 3.7665, -2.8396947
0.4439118, -0.014435, 3.77325, -0.0560913, 3.77325, -1.0036011, 3.77325, -0.0793457, 3.77325, 2.2977099, 3.77325, -1.5954199, 3.77325, -2.7251909
0.4447059, -0.0157778, 3.78, -0.055481, 3.78, -1.0037231, 3.78, -0.0809326, 3.78, 2.2519083, 3.78, -1.9465649, 3.78, -2.7251909
0.4455, -0.0115816, 3.78675, -0.0512695, 3.78675, -1.0031738, 3.78675, -0.0739136, 3.78675, 2.2671757, 3.78675, -1.9312977, 3.78675, -2.7709923
0.4462941, -0.012253, 3.7935, -0.0495605, 3.7935, -1.0077515, 3.7935, -0.0757446, 3.7935, 2.1221373, 3.7935, -1.9694656, 3.7935, -2.6259542
0.4470882, -0.0129244, 3.80025, -0.0476074, 3.80025, -1.0059814, 3.80025, -0.0717163, 3.80025, 2.1679389, 3.80025, -1.7633588, 3.80025, -2.6335878
0.4478824, -0.014435, 3.807, -0.0458374, 3.807, -1.0107422, 3.807, -0.0701904, 3.807, 2.1908398, 3.807, -1.6641221, 3.807, -2.8320611
0.4486765, -0.01561, 3.81375, -0.0492554, 3.81375, -1.0102539, 3.81375, -0.0698853, 3.81375, 2.1145039, 3.81375, -1.6030535, 3.81375, -2.6641221
0.4494706, -0.0154421, 3.8205, -0.0502319, 3.8205, -1.0090332, 3.8205, -0.071106, 3.8205, 2.1450381, 3.8205, -1.1679389, 3.8205, -2.8854961
0.4502647, -0.0157778, 3.82725, -0.0525513, 3.82725, -1.0065308, 3.82725, -0.0732422, 3.82725, 1.9847329, 3.82725, -1.2519084, 3.82725, -2.5114503
0.4510588, -0.0115816, 3.834, -0.0523682, 3.834, -1.00354, 3.834, -0.0734863, 3.834, 2.038168, 3.834, -1.3740458, 3.834, -2.4961832
0.4518529, -0.0132601, 3.84075, -0.0527954, 3.84075, -1.0053101, 3.84075, -0.071106, 3.84075, 1.9312977, 3.84075, -1.3969465, 3.84075, -2.519084
0.4526471, -0.014435, 3.8475, -0.0556641, 3.8475, -1.0039062, 3.8475, -0.0731201, 3.8475, 1.8854961, 3.8475, -1.5038168, 3.8475, -2.7099237
0.4534412, -0.0129244, 3.85425, -0.0524902, 3.85425, -1.0053101, 3.85425, -0.0722046, 3.85425, 1.9312977, 3.85425, -1.5114504, 3.85425, -2.7328243
0.4542353, -0.0115816, 3.861, -0.052063, 3.861, -1.0043335, 3.861, -0.0761719, 3.861, 1.9312977, 3.861, -1.7251909, 3.861, -2.6641221
0.4550294, -0.0149386, 3.86775, -0.0501099, 3.86775, -1.0049438, 3.86775, -0.0753784, 3.86775, 1.7022901, 3.86775, -1.6717557, 3.86775, -2.5877862
0.4558235, -0.0149386, 3.8745, -0.0485229, 3.8745, -1.0091553, 3.8745, -0.0739136, 3.8745, 1.8091604, 3.8745, -1.3435115, 3.8745, -2.4961832
0.4566176, -0.0140993, 3.88125, -0.0457764, 3.88125, -1.0059204, 3.88125, -0.0698242, 3.88125, 1.8931298, 3.88125, -1.2519084, 3.88125, -2.4045801
0.4574118, -0.014435, 3.888, -0.0455322, 3.888, -1.0048218, 3.888, -0.0722656, 3.888, 1.6946565, 3.888, -1.0305344, 3.888, -2.5496182
0.4582059, -0.01561, 3.89475, -0.045166, 3.89475, -1.005249, 3.89475, -0.0700684, 3.89475, 1.4580153, 3.89475, -0.870229, 3.89475, -2.4351146
0.459, -0.0135958, 3.9015, -0.0485229, 3.9015, -1.0036011, 3.9015, -0.0696411, 3.9015, 1.5648855, 3.9015, -0.5419847, 3.9015, -2.519084
0.4597941, -0.0102388, 3.90825, -0.0488281, 3.90825, -1.0004883, 3.90825, -0.0702515, 3.90825, 1.389313, 3.90825, -0.1984733, 3.90825, -2.5419848
0.4605882, -0.0115816, 3.915, -0.0476074, 3.915, -1.0050659, 3.915, -0.0704346, 3.915, 1.4885496, 3.915, -0.1374046, 3.915, -2.480916
0.4613824, -0.0115816, 3.92175, -0.0512085, 3.92175, -1.0021973, 3.92175, -0.0720825, 3.92175, 1.259542, 3.92175, 0.0305344, 3.92175, -2.3740458
0.4621765, -0.0146029, 3.9285, -0.0506592, 3.9285, -1.0039673, 3.9285, -0.0716553, 3.9285, 1.1908396, 3.9285, -0.1068702, 3.9285, -2.4274809
0.4629706, -0.0166171, 3.93525, -0.0528564, 3.93525, -1.0057373, 3.93525, -0.0721436, 3.93525, 1.0076336, 3.93525, -0.1221374, 3.93525, -2.610687
0.4637647, -0.0171206, 3.942, -0.0532227, 3.942, -1.0081787, 3.942, -0.0703125, 3.942, 1.1755725, 3.942, -0.3435115, 3.942, -2.4732823
0.4645588, -0.018967, 3.94875, -0.0592041, 3.94875, -1.007019, 3.94875, -0.0736084, 3.94875, 0.9465649, 3.94875, -0.2824427, 3.94875, -2.7633588
0.4653529, -0.0169528, 3.9555, -0.0559082, 3.9555, -1.0082397, 3.9555, -0.0733643, 3.9555, 1.0687023, 3.9555, -0.5114504, 3.9555, -2.6717558
0.4661471, -0.0135958, 3.96225, -0.0561523, 3.96225, -1.0081177, 3.96225, -0.0706787, 3.96225, 0.9312977, 3.96225, -0.5954198, 3.96225, -2.5801528
0.4669412, -0.0146029, 3.969, -0.0557861, 3.969, -1.0097656, 3.969, -0.0700684, 3.969, 1.0305344, 3.969, -0.4427481, 3.969, -2.5496182
0.4677353, -0.0139315, 3.97575, -0.0552368, 3.97575, -1.0116577, 3.97575, -0.0720825, 3.97575, 0.9465649, 3.97575, -0.3664122, 3.97575, -2.5419848
0.4685294, -0.0149386, 3.9825, -0.0534058, 3.9825, -1.0081787, 3.9825, -0.0679321, 3.9825, 0.8473282, 3.9825, -0.4045801, 3.9825, -2.5038168
0.4693235, -0.0112459, 3.98925, -0.0535278, 3.98925, -1.008606, 3.98925, -0.0722656, 3.98925, 0.8931298, 3.98925, -0.3358779, 3.98925, -2.4656489
0.4701176, -0.0112459, 3.996, -0.0563965, 3.996, -1.0055542, 3.996, -0.0710449, 3.996, 0.7709923, 3.996, -0.0229008, 3.996, -2.5419848
0.4709118, -0.0119173, 4.00275, -0.0548096, 4.00275, -1.0059814, 4.00275, -0.0724487, 4.00275, 0.8625954, 4.00275, 0.2442748, 4.00275, -2.4122138
0.4717059, -0.0129244, 4.0095, -0.057312, 4.0095, -1.0067749, 4.0095, -0.0726318, 4.0095, 0.9694657, 4.0095, 0.351145, 4.0095, -2.4274809
0.4725, -0.01561, 4.01625, -0.0562744, 4.01625, -1.0022583, 4.01625, -0.0766602, 4.01625, 0.9236641, 4.01625, 0.4885496, 4.01625, -2.3664122
0.4732941, -0.0151064, 4.023, -0.057251, 4.023, -1.0022583, 4.023, -0.0754395, 4.023, 0.8320611, 4.023, 0.3587786, 4.023, -2.2442749
0.4740882, -0.0132601, 4.02975, -0.0554199, 4.02975, -1.0009766, 4.02975, -0.0761108, 4.02975, 1, 4.02975, 0.4885496, 4.02975, -2.3740458
0.4748824, -0.0135958, 4.0365, -0.0552368, 4.0365, -1.0032349, 4.0365, -0.0754395, 4.0365, 0.7709923, 4.0365, 0.4961832, 4.0365, -2.3816793
0.4756765, -0.0149386, 4.04325, -0.0527344, 4.04325, -1.0045776, 4.04325, -0.0783081, 4.04325, 0.8931298, 4.04325, 0.4122137, 4.04325, -2.5343511
0.4764706, -0.0162814, 4.05, -0.0530396, 4.05, -1.0014038, 4.05, -0.0805054, 4.05, 0.908397, 4.05, 0.4198473, 4.05, -2.4885497
0.4772647, -0.0182956, 4.05675, -0.0524902, 4.05675, -1.0021362, 4.05675, -0.0809326, 4.05675, 0.9847328, 4.05675, 0.351145, 4.05675, -2.7862597
0.4780588, -0.0216526, 4.0635, -0.0482178, 4.0635, -1.0025635, 4.0635, -0.0797729, 4.0635, 0.7328244, 4.0635, 0.5572519, 4.0635, -2.6412213
0.4788529, -0.0219883, 4.07025, -0.0535278, 4.07025, -1.0073242, 4.07025, -0.0823364, 4.07025, 0.6335878, 4.07025, 0.6259542, 4.07025, -2.7099237
0.4796471, -0.0182956, 4.077, -0.0571289, 4.077, -1.0037231, 4.077, -0.0751953, 4.077, 0.778626, 4.077, 0.6717557, 4.077, -2.6946564
0.4804412, -0.0176242, 4.08375, -0.0606079, 4.08375, -1.0053711, 4.08375, -0.0767822, 4.08375, 0.8931298, 4.08375, 0.6793893, 4.08375, -2.9236641
0.4812353, -0.0179599, 4.0905, -0.0583496, 4.0905, -1.0075073, 4.0905, -0.0749512, 4.0905, 0.8931298, 4.0905, 0.5725191, 4.0905, -2.8167939
0.4820294, -0.0184634, 4.09725, -0.0574951, 4.09725, -1.0061035, 4.09725, -0.076416, 4.09725, 0.9160305, 4.09725, 0.3358779, 4.09725, -2.961832
0.4828235, -0.0157778, 4.104, -0.0559692, 4.104, -1.0115967, 4.104, -0.0778809, 4.104, 1.1832061, 4.104, 0.5343512, 4.104, -2.9847329
0.4836176, -0.018967, 4.11075, -0.0576782, 4.11075, -1.0090942, 4.11075, -0.0785522, 4.11075, 1.2290076, 4.11075, 0.4274809, 4.11075, -2.7251909
0.4844118, -0.0203098, 4.1175, -0.0552368, 4.1175, -1.0084839, 4.1175, -0.0762329, 4.1175, 1.0992366, 4.1175, 0.7099237, 4.1175, -2.8854961
0.4852059, -0.0157778, 4.12425, -0.055481, 4.12425, -1.0080566, 4.12425, -0.0738525, 4.12425, 1.091603, 4.12425, 0.9541985, 4.12425, -2.8778627
0.486, -0.0105745, 4.131, -0.0566406, 4.131, -1.0101318, 4.131, -0.0726929, 4.131, 1.2748091, 4.131, 1.2366412, 4.131, -2.9541984
0.4867941, -0.0109102, 4.13775, -0.0562744, 4.13775, -1.0065918, 4.13775, -0.0753174, 4.13775, 1.3282443, 4.13775, 1.221374, 4.13775, -3.0992367
0.4875882, -0.0115816, 4.1445, -0.055603, 4.1445, -1.0043945, 4.1445, -0.0787964, 4.1445, 1.3435115, 4.1445, 1.3053435, 4.1445, -2.9770992
0.4883824, -0.0095674, 4.15125, -0.0610962, 4.15125, -1.0036011, 4.15125, -0.0756836, 4.15125, 1.4503816, 4.15125, 1.4045801, 4.15125, -3.0763359
0.4891765, -0.0097353, 4.158, -0.0592041, 4.158, -1.0045776, 4.158, -0.0745239, 4.158, 1.1832061, 4.158, 1.2824427, 4.158, -3.1908398
0.4899706, -0.0132601, 4.16475, -0.0596313, 4.16475, -1.0053711, 4.16475, -0.0737915, 4.16475, 1.3358779, 4.16475, 1.4351145, 4.16475, -3.0992367
0.4907647, -0.0137636, 4.1715, -0.0605469, 4.1715, -1.0075073, 4.1715, -0.0772095, 4.1715, 1.3282443, 4.1715, 1.3435115, 4.1715, -3.2748091
0.4915588, -0.0125887, 4.17825, -0.0605469, 4.17825, -1.0075073, 4.17825, -0.0772095, 4.17825, 1.3358779, 4.17825, 1.2824427, 4.17825, -3.1832061
0.4923529, -0.0135958, 4.185, -0.0584106, 4.185, -1.0026245, 4.185, -0.0747681, 4.185, 1.3206106, 4.185, 1.038168, 4.185, -3.351145
0.4931471, -0.0162814, 4.19175, -0.0560913, 4.19175, -1.008667, 4.19175, -0.0735474, 4.19175, 1.3587786, 4.19175, 1.0839695, 4.19175, -3.1984732
0.4939412, -0.0162814, 4.1985, -0.0543823, 4.1985, -1.0070801, 4.1985, -0.074585, 4.1985, 1.4122137, 4.1985, 1.3053435, 4.1985, -3.129771
0.4947353, -0.0184634, 4.20525, -0.0560913, 4.20525, -1.0047607, 4.20525, -0.0762939, 4.20525, 1.3358779, 4.20525, 1.4122137, 4.20525, -3.2061069
0.4955294, -0.0179599, 4.212, -0.052124, 4.212, -1.0054321, 4.212, -0.0732422, 4.212, 1.3587786, 4.212, 1.6641221, 4.212, -3.2442749
0.4963235, -0.011078, 4.21875, -0.055603, 4.21875, -1.0054932, 4.21875, -0.0723877, 4.21875, 1.2824427, 4.21875, 1.7480916, 4.21875, -3.1450381
0.4971176, -0.0125887, 4.2255, -0.0516968, 4.2255, -1.0078125, 4.2255, -0.0717773, 4.2255, 1.3206106, 4.2255, 1.7633588, 4.2255, -3.1679389
0.4979118, -0.0132601, 4.23225, -0.0523071, 4.23225, -1.0067749, 4.23225, -0.0722656, 4.23225, 1.2366412, 4.23225, 1.8931298, 4.23225, -3.2290077
0.4987059, -0.0162814, 4.239, -0.0510864, 4.239, -1.005188, 4.239, -0.0733643, 4.239, 1.2824427, 4.239, 1.6793894, 4.239, -3.2671757
0.4995, -0.0139315, 4.24575, -0.0534058, 4.24575, -1.0057983, 4.24575, -0.0718994, 4.24575, 1.2900764, 4.24575, 1.5496184, 4.24575, -3.2900763
0.5002941, -0.0099031, 4.2525, -0.0568237, 4.2525, -1.0070801, 4.2525, -0.0727539, 4.2525, 1.091603, 4.2525, 1.3358779, 4.2525, -3.2748091
0.5010882, -0.0119173, 4.25925, -0.0578613, 4.25925, -1.0025024, 4.25925, -0.0758667, 4.25925, 1.2671756, 4.25925, 1, 4.25925, -3.3435113
0.5018824, -0.0112459, 4.266, -0.0614624, 4.266, -1.0023804, 4.266, -0.0784302, 4.266, 1.2290076, 4.266, 0.870229, 4.266, -3.2671757
0.5026765, -0.0109102, 4.27275, -0.059021, 4.27275, -1.0048218, 4.27275, -0.0760498, 4.27275, 1.221374, 4.27275, 0.5114504, 4.27275, -3.4427481
0.5034706, -0.0129244, 4.2795, -0.0549927, 4.2795, -1.0064087, 4.2795, -0.0751953, 4.2795, 1.1832061, 4.2795, 0.4351145, 4.2795, -3.4503818
0.5042647, -0.0119173, 4.28625, -0.0543213, 4.28625, -1.0045166, 4.28625, -0.0747681, 4.28625, 1.2442749, 4.28625, 0.5343512, 4.28625, -3.2671757
0.5050588, -0.012253, 4.293, -0.0508423, 4.293, -1.0057373, 4.293, -0.0761719, 4.293, 1.3740458, 4.293, 0.4427481, 4.293, -3.4045801
0.5058529, -0.0134279, 4.29975, -0.052063, 4.29975, -1.0056152, 4.29975, -0.0753784, 4.29975, 1.3206106, 4.29975, 0.5877863, 4.29975, -3.480916
0.5066471, -0.0119173, 4.3065, -0.0514526, 4.3065, -1.0032959, 4.3065, -0.0726318, 4.3065, 1.221374, 4.3065, 1.0076336, 4.3065, -3.2824428
0.5074412, -0.0120851, 4.31325, -0.053772, 4.31325, -1.0062256, 4.31325, -0.0755615, 4.31325, 1.2824427, 4.31325, 1.038168, 4.31325, -3.4122138
0.5082353, -0.0139315, 4.32, -0.0547485, 4.32, -1.0030518, 4.32, -0.0761108, 4.32, 1.3435115, 4.32, 1.2748091, 4.32, -3.3969467
0.5090294, -0.0164492, 4.32675, -0.0596313, 4.32675, -1.0047607, 4.32675, -0.0756226, 4.32675, 1.1984733, 4.32675, 1.0610687, 4.32675, -3.4503818
0.5098235, -0.0139315, 4.3335, -0.0578003, 4.3335, -1.0028076, 4.3335, -0.074646, 4.3335, 1.5648855, 4.3335, 0.9465649, 4.3335, -3.2977099
0.5106176, -0.0125887, 4.34025, -0.0576172, 4.34025, -1.0036011, 4.34025, -0.0751343, 4.34025, 1.3816794, 4.34025, 0.7480916, 4.34025, -3.4198472
0.5114118, -0.0162814, 4.347, -0.0563354, 4.347, -1.0061035, 4.347, -0.0745239, 4.347, 1.2977099, 4.347, 0.6870229, 4.347, -3.4503818
0.5122059, -0.0179599, 4.35375, -0.0578003, 4.35375, -1.0079956, 4.35375, -0.0737915, 4.35375, 1.2061069, 4.35375, 0.5343512, 4.35375, -3.7633588
0.513, -0.0176242, 4.3605, -0.0563354, 4.3605, -1.0105591, 4.3605, -0.0756836, 4.3605, 1.4122137, 4.3605, 0.4732825, 4.3605, -3.6335878
0.5137941, -0.0193027, 4.36725, -0.0548706, 4.36725, -1.0096436, 4.36725, -0.0791626, 4.36725, 1.1832061, 4.36725, 0.480916, 4.36725, -3.4580152
0.5145882, -0.018967, 4.374, -0.0546265, 4.374, -1.0045166, 4.374, -0.0772095, 4.374, 1.3816794, 4.374, 0.5877863, 4.374, -3.648855
0.5153824, -0.018967, 4.38075, -0.0559082, 4.38075, -1.0061035, 4.38075, -0.0744629, 4.38075, 1.389313, 4.38075, 0.648855, 4.38075, -3.4045801
0.5161765, -0.0186313, 4.3875, -0.0551147, 4.3875, -1.0062256, 4.3875, -0.0720215, 4.3875, 1.4503816, 4.3875, 0.648855, 4.3875, -3.4351146
0.5169706, -0.0179599, 4.39425, -0.0576172, 4.39425, -1.008667, 4.39425, -0.076416, 4.39425, 1.4656489, 4.39425, 0.5114504, 4.39425, -3.5267177
0.5177647, -0.0172885, 4.401, -0.055481, 4.401, -1.0076294, 4.401, -0.0773926, 4.401, 1.4580153, 4.401, 0.6793893, 4.401, -3.7328243
0.5185588, -0.0132601, 4.40775, -0.0592651, 4.40775, -1.005249, 4.40775, -0.0736694, 4.40775, 1.480916, 4.40775, 0.5267175, 4.40775, -3.6183207
0.5193529, -0.0105745, 4.4145, -0.0587158, 4.4145, -1.0091553, 4.4145, -0.0727539, 4.4145, 1.5038168, 4.4145, 0.519084, 4.4145, -3.5801528
0.5201471, -0.0124208, 4.42125, -0.0579224, 4.42125, -1.0075684, 4.42125, -0.0717773, 4.42125, 1.4656489, 4.42125, 0.4198473, 4.42125, -3.6030533
0.5209412, -0.0135958, 4.428, -0.0598145, 4.428, -1.0061646, 4.428, -0.0754395, 4.428, 1.6946565, 4.428, 0.4580153, 4.428, -3.740458
0.5217353, -0.0162814, 4.43475, -0.0620728, 4.43475, -1.0053101, 4.43475, -0.0754395, 4.43475, 1.6259542, 4.43475, 0.3053435, 4.43475, -3.4732823
0.5225294, -0.0135958, 4.4415, -0.060791, 4.4415, -1.005188, 4.4415, -0.0770264, 4.4415, 1.7328244, 4.4415, 0.1679389, 4.4415, -3.7099237
0.5233235, -0.0135958, 4.44825, -0.0587158, 4.44825, -1.0025635, 4.44825, -0.0770874, 4.44825, 1.7557251, 4.44825, 0.1221374, 4.44825, -3.7709923
0.5241176, -0.0132601, 4.455, -0.0570068, 4.455, -1.005249, 4.455, -0.0777588, 4.455, 1.8473282, 4.455, 0.1450382, 4.455, -3.8320611
0.5249118, -0.0149386, 4.46175, -0.0567017, 4.46175, -1.0045166, 4.46175, -0.0768433, 4.46175, 1.8167939, 4.46175, 0.0534351, 4.46175, -3.7557251
0.5257059, -0.0151064, 4.4685, -0.055542, 4.4685, -1.0083008, 4.4685, -0.0787964, 4.4685, 1.9541985, 4.4685, 0.1526718, 4.4685, -3.7175572
0.5265, -0.0162814, 4.47525, -0.0533447, 4.47525, -1.0072021, 4.47525, -0.0773926, 4.47525, 1.9389313, 4.47525, 0.1679389, 4.47525, -3.6259542
0.5272941, -0.0129244, 4.482, -0.0557861, 4.482, -1.0056152, 4.482, -0.0787964, 4.482, 2.0763359, 4.482, 0.0610687, 4.482, -3.6717558
0.5280882, -0.01561, 4.48875, -0.055481, 4.48875, -1.0036621, 4.48875, -0.0778809, 4.48875, 2.0305343, 4.48875, 0.0839695, 4.48875, -3.7557251
0.5288824, -0.0152743, 4.4955, -0.0513306, 4.4955, -1.006958, 4.4955, -0.0790405, 4.4955, 1.9541985, 4.4955, 0.0458015, 4.4955, -3.7175572
0.5296765, -0.0135958, 4.50225, -0.0523071, 4.50225, -1.005127, 4.50225, -0.0758057, 4.50225, 1.8931298, 4.50225, -0.0839695, 4.50225, -3.8091602
0.5304706, -0.014435, 4.509, -0.0526733, 4.509, -1.0084839, 4.509, -0.0724487, 4.509, 1.9389313, 4.509, -0.1374046, 4.509, -3.8396947
0.5312647, -0.012253, 4.51575, -0.0551147, 4.51575, -1.0097046, 4.51575, -0.0728149, 4.51575, 1.9694656, 4.51575, -0.3435115, 4.51575, -3.8244274
0.5320588, -0.0099031, 4.5225, -0.0535278, 4.5225, -1.0076294, 4.5225, -0.0723877, 4.5225, 1.9389313, 4.5225, -0.4122137, 4.5225, -3.9847329
0.5328529, -0.012253, 4.52925, -0.0510864, 4.52925, -1.006958, 4.52925, -0.072876, 4.52925, 2.0152671, 4.52925, -0.5038168, 4.52925, -3.8244274
0.5336471, -0.0137636, 4.536, -0.0534058, 4.536, -1.0079346, 4.536, -0.0709229, 4.536, 1.7709924, 4.536, -0.7175573, 4.536, -3.7557251
0.5344412, -0.012253, 4.54275, -0.0522461, 4.54275, -1.0046997, 4.54275, -0.0689697, 4.54275, 1.5648855, 4.54275, -0.9923664, 4.54275, -3.7557251
0.5352353, -0.0125887, 4.5495, -0.0498047, 4.5495, -1.0043335, 4.5495, -0.0671387, 4.5495, 1.3969465, 4.5495, -0.9847328, 4.5495, -3.6030533
0.5360294, -0.0129244, 4.55625, -0.0482788, 4.55625, -1.0061035, 4.55625, -0.0645752, 4.55625, 1.129771, 4.55625, -1.0076336, 4.55625, -3.5725191
0.5368235, -0.0182956, 4.563, -0.048584, 4.563, -1.0065308, 4.563, -0.065918, 4.563, 1.1526718, 4.563, -0.8931298, 4.563, -3.519084
0.5376176, -0.0196384, 4.56975, -0.0466919, 4.56975, -1.0064087, 4.56975, -0.0636597, 4.56975, 1.2748091, 4.56975, -0.8015267, 4.56975, -3.5038168
0.5384118, -0.01561, 4.5765, -0.0493164, 4.5765, -1.0040283, 4.5765, -0.0649414, 4.5765, 1.3358779, 4.5765, -0.6183206, 4.5765, -3.3664122
0.5392059, -0.0135958, 4.58325, -0.0513306, 4.58325, -1.0045776, 4.58325, -0.06427, 4.58325, 1.4580153, 4.58325, -0.1450382, 4.58325, -3.4045801
0.54, -0.0119173, 4.59, -0.0513916, 4.59, -1.0050659, 4.59, -0.0649414, 4.59, 1.2900764, 4.59, -0.2442748, 4.59, -3.3969467
0.5407941, -0.0135958, 4.59675, -0.0479126, 4.59675, -1.0043335, 4.59675, -0.0657959, 4.59675, 1.4351145, 4.59675, -0.2824427, 4.59675, -3.3129771
0.5415882, -0.0135958, 4.6035, -0.0494995, 4.6035, -1.0060425, 4.6035, -0.0682983, 4.6035, 1.2977099, 4.6035, -0.1832061, 4.6035, -3.259542
0.5423824, -0.012253, 4.61025, -0.0473633, 4.61025, -1.0078125, 4.61025, -0.067749, 4.61025, 1.3816794, 4.61025, 0.0610687, 4.61025, -3.221374
0.5431765, -0.01561, 4.617, -0.0454712, 4.617, -1.0053711, 4.617, -0.0714722, 4.617, 1.5419847, 4.617, 0.0839695, 4.617, -3.0992367
0.5439706, -0.0162814, 4.62375, -0.0512085, 4.62375, -1.0061035, 4.62375, -0.071106, 4.62375, 1.4122137, 4.62375, -0.1526718, 4.62375, -3.0534351
0.5447647, -0.01561, 4.6305, -0.0510254, 4.6305, -1.0014648, 4.6305, -0.0726318, 4.6305, 1.3664122, 4.6305, -0.0992366, 4.6305, -2.9770992
0.5455588, -0.0162814, 4.63725, -0.0475464, 4.63725, -1.0042114, 4.63725, -0.0722656, 4.63725, 1.3587786, 4.63725, -0.1832061, 4.63725, -3.0839694
0.5463529, -0.0176242, 4.644, -0.0479126, 4.644, -1.0060425, 4.644, -0.0731201, 4.644, 1.1526718, 4.644, -0.1374046, 4.644, -3.1145039
0.5471471, -0.0142672, 4.65075, -0.0495605, 4.65075, -1.006897, 4.65075, -0.0718384, 4.65075, 0.9007633, 4.65075, -0.2671756, 4.65075, -3.0458016
0.5479412, -0.0129244, 4.6575, -0.0501099, 4.6575, -1.0089111, 4.6575, -0.0740356, 4.6575, 1.0305344, 4.6575, -0.3358779, 4.6575, -2.9236641
0.5487353, -0.0166171, 4.66425, -0.0540771, 4.66425, -1.0092773, 4.66425, -0.0736694, 4.66425, 1.0534351, 4.66425, -0.3053435, 4.66425, -3.0763359
0.5495294, -0.0193027, 4.671, -0.0513306, 4.671, -1.0046997, 4.671, -0.0728149, 4.671, 1.0076336, 4.671, -0.3206107, 4.671, -3.1374047
0.5503235, -0.018967, 4.67775, -0.0539551, 4.67775, -1.0031738, 4.67775, -0.0716553, 4.67775, 0.9847328, 4.67775, -0.4503817, 4.67775, -3.0534351
0.5511176, -0.0162814, 4.6845, -0.0565186, 4.6845, -1.0026245, 4.6845, -0.0695801, 4.6845, 1, 4.6845, -0.5114504, 4.6845, -2.9847329
0.5519118, -0.0130922, 4.69125, -0.0536499, 4.69125, -1.0022583, 4.69125, -0.071167, 4.69125, 0.9694657, 4.69125, -0.4885496, 4.69125, -2.9465649
0.5527059, -0.0135958, 4.698, -0.0515747, 4.698, -1.0045166, 4.698, -0.0704956, 4.698, 0.778626, 4.698, -0.4732825, 4.698, -3.0152671
0.5535, -0.0135958, 4.70475, -0.0505371, 4.70475, -1.0063477, 4.70475, -0.0664673, 4.70475, 0.7022901, 4.70475, -0.3816794, 4.70475, -2.9465649
0.5542941, -0.011078, 4.7115, -0.052063, 4.7115, -1.0072021, 4.7115, -0.0684204, 4.7115, 0.7022901, 4.7115, -0.1374046, 4.7115, -2.8854961
0.5550882, -0.0135958, 4.71825, -0.052124, 4.71825, -1.0059204, 4.71825, -0.0700684, 4.71825, 0.7938932, 4.71825, 0.221374, 4.71825, -2.8931298
0.5558824, -0.0162814, 4.725, -0.0534668, 4.725, -1.0066528, 4.725, -0.0726318, 4.725, 0.9847328, 4.725, 0.0229008, 4.725, -2.8625953
0.5566765, -0.0166171, 4.73175, -0.0536499, 4.73175, -1.0054932, 4.73175, -0.0723267, 4.73175, 1.1068702, 4.73175, 0.1832061, 4.73175, -2.9541984
0.5574706, -0.0142672, 4.7385, -0.053772, 4.7385, -1.0040283, 4.7385, -0.0698242, 4.7385, 1.0687023, 4.7385, 0.1908397, 4.7385, -2.9160306
0.5582647, -0.012253, 4.74525, -0.0512695, 4.74525, -1.0046387, 4.74525, -0.0700684, 4.74525, 0.961832, 4.74525, 0.0839695, 4.74525, -2.8167939
0.5590588, -0.0152743, 4.752, -0.0501099, 4.752, -1.0064087, 4.752, -0.0687866, 4.752, 1.221374, 4.752, 0.0916031, 4.752, -3.0076337
0.5598529, -0.0179599, 4.75875, -0.0492554, 4.75875, -1.0073853, 4.75875, -0.0732422, 4.75875, 1.2061069, 4.75875, 0.1908397, 4.75875, -3.0839694
0.5606471, -0.0169528, 4.7655, -0.0475464, 4.7655, -1.0045166, 4.7655, -0.0720825, 4.7655, 1.1679389, 4.7655, 0.1526718, 4.7655, -2.9847329
0.5614412, -0.0157778, 4.77225, -0.053833, 4.77225, -1.0055542, 4.77225, -0.0686646, 4.77225, 1.1526718, 4.77225, 0.3282443, 4.77225, -2.9770992
0.5622353, -0.0151064, 4.779, -0.0554199, 4.779, -1.0066528, 4.779, -0.0714111, 4.779, 1.091603, 4.779, 0.1679389, 4.779, -3.0458016
0.5630294, -0.014435, 4.78575, -0.0528564, 4.78575, -1.0077515, 4.78575, -0.0709229, 4.78575, 0.9389313, 4.78575, 0.0839695, 4.78575, -2.9160306
0.5638235, -0.0109102, 4.7925, -0.0532837, 4.7925, -1.0072632, 4.7925, -0.0708008, 4.7925, 0.9236641, 4.7925, 0.0229008, 4.7925, -3.1221373
0.5646176, -0.0142672, 4.79925, -0.0535278, 4.79925, -1.0057373, 4.79925, -0.0706177, 4.79925, 1.0763359, 4.79925, 0.1145038, 4.79925, -3.2519083
0.5654118, -0.0152743, 4.806, -0.052063, 4.806, -1.0068359, 4.806, -0.0731812, 4.806, 0.9847328, 4.806, 0.3129771, 4.806, -3.2137403
0.5662059, -0.0142672, 4.81275, -0.0525513, 4.81275, -1.0074463, 4.81275, -0.072876, 4.81275, 1.038168, 4.81275, 0.3053435, 4.81275, -3.2366412
0.567, -0.0162814, 4.8195, -0.0526733, 4.8195, -1.010376, 4.8195, -0.0742188, 4.8195, 1.0076336, 4.8195, 0.6870229, 4.8195, -2.8549619
0.5677941, -0.0164492, 4.82625, -0.0529175, 4.82625, -1.0093384, 4.82625, -0.0714722, 4.82625, 0.9389313, 4.82625, 1.0152671, 4.82625, -3.038168
0.5685882, -0.0146029, 4.833, -0.0560913, 4.833, -1.0076904, 4.833, -0.0706177, 4.833, 0.9312977, 4.833, 1, 4.833, -3.0305343
0.5693824, -0.0169528, 4.83975, -0.0563354, 4.83975, -1.0050659, 4.83975, -0.0683594, 4.83975, 0.870229, 4.83975, 0.9007633, 4.83975, -3.1221373
0.5701765, -0.0142672, 4.8465, -0.0584106, 4.8465, -1.008667, 4.8465, -0.0697632, 4.8465, 1.0076336, 4.8465, 0.7175573, 4.8465, -3.1068702
0.5709706, -0.0135958, 4.85325, -0.0543213, 4.85325, -1.0082397, 4.85325, -0.0700684, 4.85325, 1.0458015, 4.85325, 0.8320611, 4.85325, -3.0839694
0.5717647, -0.012253, 4.86, -0.0546875, 4.86, -1.0055542, 4.86, -0.071167, 4.86, 1.091603, 4.86, 0.8320611, 4.86, -2.9923663
0.5725588, -0.0135958, 4.86675, -0.0578003, 4.86675, -1.0029907, 4.86675, -0.0715332, 4.86675, 0.8167939, 4.86675, 0.8244275, 4.86675, -2.8625953
0.5733529, -0.0162814, 4.8735, -0.0559082, 4.8735, -1.0036011, 4.8735, -0.0687866, 4.8735, 0.9160305, 4.8735, 1.0687023, 4.8735, -3.0839694
0.5741471, -0.0176242, 4.88025, -0.0529175, 4.88025, -1.0037842, 4.88025, -0.0717163, 4.88025, 0.9160305, 4.88025, 0.8931298, 4.88025, -3.0687022
0.5749412, -0.0115816, 4.887, -0.0515747, 4.887, -1.0048828, 4.887, -0.0710449, 4.887, 0.9312977, 4.887, 0.9923664, 4.887, -2.8854961
0.5757353, -0.0099031, 4.89375, -0.0465088, 4.89375, -1.0028076, 4.89375, -0.0709839, 4.89375, 0.9160305, 4.89375, 1.351145, 4.89375, -3.0076337
0.5765294, -0.0095674, 4.9005, -0.0484619, 4.9005, -1.003479, 4.9005, -0.0713501, 4.9005, 0.8549618, 4.9005, 1.4122137, 4.9005, -2.7938931
0.5773235, -0.0097353, 4.90725, -0.0484619, 4.90725, -1.0019531, 4.90725, -0.0690308, 4.90725, 0.6870229, 4.90725, 1.7251909, 4.90725, -2.7709923
0.5781176, -0.0137636, 4.914, -0.0500488, 4.914, -1.0063477, 4.914, -0.0681152, 4.914, 0.8396947, 4.914, 1.8015267, 4.914, -2.8549619
0.5789118, -0.0162814, 4.92075, -0.0514526, 4.92075, -1.0056152, 4.92075, -0.071167, 4.92075, 0.8091603, 4.92075, 1.5419847, 4.92075, -2.9007633
0.5797059, -0.0149386, 4.9275, -0.0577393, 4.9275, -1.0036621, 4.9275, -0.0706787, 4.9275, 0.7328244, 4.9275, 1.4732825, 4.9275, -2.8549619
0.5805, -0.0139315, 4.93425, -0.0580444, 4.93425, -1.0048828, 4.93425, -0.0735474, 4.93425, 0.6259542, 4.93425, 1.4961832, 4.93425, -3.038168
0.5812941, -0.0149386, 4.941, -0.0574951, 4.941, -1.0025635, 4.941, -0.071228, 4.941, 0.8549618, 4.941, 1.1832061, 4.941, -2.9389312
0.5820882, -0.0142672, 4.94775, -0.0554199, 4.94775, -1.0026245, 4.94775, -0.072937, 4.94775, 0.7480916, 4.94775, 1.0763359, 4.94775, -3.0992367
0.5828824, -0.01561, 4.9545, -0.0563965, 4.9545, -1.0066528, 4.9545, -0.0731812, 4.9545, 0.6793893, 4.9545, 0.9770992, 4.9545, -2.9694657
0.5836765, -0.0149386, 4.96125, -0.0532227, 4.96125, -1.0072632, 4.96125, -0.0723267, 4.96125, 0.6793893, 4.96125, 0.9160305, 4.96125, -2.8167939
0.5844706, -0.012253, 4.968, -0.0529175, 4.968, -1.0075684, 4.968, -0.0754395, 4.968, 0.5801527, 4.968, 1, 4.968, -3.0076337
0.5852647, -0.0115816, 4.97475, -0.0510254, 4.97475, -1.0098267, 4.97475, -0.0734863, 4.97475, 0.7099237, 4.97475, 1.1145039, 4.97475, -3.038168
0.5860588, -0.0135958, 4.9815, -0.0500488, 4.9815, -1.006958, 4.9815, -0.0742798, 4.9815, 0.8854962, 4.9815, 1.3282443, 4.9815, -2.9923663
0.5868529, -0.012253, 4.98825, -0.0540161, 4.98825, -1.0072632, 4.98825, -0.0756836, 4.98825, 0.8625954, 4.98825, 1.5038168, 4.98825, -2.8931298
0.5876471, -0.0149386, 4.995, -0.0537109, 4.995, -1.0067749, 4.995, -0.0724487, 4.995, 1.0305344, 4.995, 1.8091604, 4.995, -2.9312978
0.5884412, -0.0157778, 5.00175, -0.057251, 5.00175, -1.0043335, 5.00175, -0.0758667, 5.00175, 0.9923664, 5.00175, 1.9389313, 5.00175, -3.0076337
0.5892353, -0.0176242, 5.0085, -0.0582275, 5.0085, -1.0043335, 5.0085, -0.0762939, 5.0085, 0.9923664, 5.0085, 1.8854961, 5.0085, -2.9923663
0.5900294, -0.0169528, 5.01525, -0.0566406, 5.01525, -1.0050659, 5.01525, -0.0735474, 5.01525, 1.1145039, 5.01525, 1.6641221, 5.01525, -2.8320611
0.5908235, -0.0184634, 5.022, -0.0601196, 5.022, -1.0062866, 5.022, -0.0719604, 5.022, 1.0610687, 5.022, 1.6335878, 5.022, -3.0458016
0.5916176, -0.0193027, 5.02875, -0.0562134, 5.02875, -1.0045776, 5.02875, -0.0734863, 5.02875, 0.8396947, 5.02875, 1.4503816, 5.02875, -3.0534351
0.5924118, -0.0196384, 5.0355, -0.0527954, 5.0355, -1.007019, 5.0355, -0.0718994, 5.0355, 0.8473282, 5.0355, 1.2824427, 5.0355, -3.2137403
0.5932059, -0.0216526, 5.04225, -0.0496216, 5.04225, -1.005249, 5.04225, -0.072937, 5.04225, 0.9007633, 5.04225, 1.480916, 5.04225, -3.1068702
0.594, -0.0176242, 5.049, -0.0483398, 5.049, -1.0068359, 5.049, -0.0772705, 5.049, 0.9160305, 5.049, 1.4732825, 5.049, -2.9541984
0.5947941, -0.017792, 5.05575, -0.0526733, 5.05575, -1.0065308, 5.05575, -0.0751953, 5.05575, 1.1221374, 5.05575, 1.5877863, 5.05575, -2.9541984
0.5955882, -0.0166171, 5.0625, -0.0508423, 5.0625, -1.0065308, 5.0625, -0.0748291, 5.0625, 1.1374046, 5.0625, 1.6183206, 5.0625, -3.1374047
0.5963824, -0.01561, 5.06925, -0.0560303, 5.06925, -1.0054321, 5.06925, -0.0749512, 5.06925, 1.3969465, 5.06925, 1.6870229, 5.06925, -3.091603
0.5971765, -0.0162814, 5.076, -0.0587158, 5.076, -1.0075684, 5.076, -0.0761719, 5.076, 1.3816794, 5.076, 1.3816794, 5.076, -3.1832061
0.5979706, -0.01561, 5.08275, -0.057251, 5.08275, -1.0081787, 5.08275, -0.0765991, 5.08275, 1.3358779, 5.08275, 1.1221374, 5.08275, -2.9923663
0.5987647, -0.0157778, 5.0895, -0.0612793, 5.0895, -1.0072632, 5.0895, -0.0755005, 5.0895, 1.4045801, 5.0895, 0.9923664, 5.0895, -3.1374047
0.5995588, -0.0162814, 5.09625, -0.0619507, 5.09625, -1.0065918, 5.09625, -0.0752563, 5.09625, 1.6717557, 5.09625, 0.8625954, 5.09625, -3.0839694
0.6003529, -0.0166171, 5.103, -0.0587158, 5.103, -1.0083008, 5.103, -0.0723267, 5.103, 1.7633588, 5.103, 0.9007633, 5.103, -3.2977099
0.6011471, -0.0129244, 5.10975, -0.0582886, 5.10975, -1.0093994, 5.10975, -0.0751343, 5.10975, 1.6641221, 5.10975, 0.8091603, 5.10975, -3.3053436
0.6019412, -0.0142672, 5.1165, -0.0532837, 5.1165, -1.007019, 5.1165, -0.0730591, 5.1165, 1.8167939, 5.1165, 0.6259542, 5.1165, -3.1832061
0.6027353, -0.0169528, 5.12325, -0.0512085, 5.12325, -1.0065308, 5.12325, -0.071167, 5.12325, 1.7251909, 5.12325, 0.7022901, 5.12325, -3.1068702
0.6035294, -0.0176242, 5.13, -0.0502319, 5.13, -1.0071411, 5.13, -0.0725098, 5.13, 1.5725191, 5.13, 0.778626, 5.13, -3.1374047
0.6043235, -0.0166171, 5.13675, -0.0480347, 5.13675, -1.0049438, 5.13675, -0.0702515, 5.13675, 1.5648855, 5.13675, 0.7099237, 5.13675, -3.0763359
0.6051176, -0.0139315, 5.1435, -0.0527954, 5.1435, -1.0039062, 5.1435, -0.0715942, 5.1435, 1.4656489, 5.1435, 0.8854962, 5.1435, -3.0305343
0.6059118, -0.0135958, 5.15025, -0.057312, 5.15025, -1.005188, 5.15025, -0.0700684, 5.15025, 1.6183206, 5.15025, 0.7251908, 5.15025, -2.9389312
0.6067059, -0.0139315, 5.157, -0.0580444, 5.157, -1.0064087, 5.157, -0.0717163, 5.157, 1.6946565, 5.157, 0.8473282, 5.157, -3.0610688
0.6075, -0.0129244, 5.16375, -0.0609741, 5.16375, -1.0039673, 5.16375, -0.0742798, 5.16375, 1.5267175, 5.16375, 0.610687, 5.16375, -3.2061069
0.6082941, -0.0112459, 5.1705, -0.0578613, 5.1705, -1.0038452, 5.1705, -0.074646, 5.1705, 1.5419847, 5.1705, 0.5877863, 5.1705, -3.1450381
0.6090882, -0.0129244, 5.17725, -0.0562744, 5.17725, -1.0048828, 5.17725, -0.0756836, 5.17725, 1.6412214, 5.17725, 0.259542, 5.17725, -3.3358779
0.6098824, -0.0137636, 5.184, -0.053833, 5.184, -1.0046387, 5.184, -0.0775757, 5.184, 1.6030535, 5.184, 0.0916031, 5.184, -3.2061069
0.6106765, -0.0124208, 5.19075, -0.0537109, 5.19075, -1.0055542, 5.19075, -0.0736084, 5.19075, 1.8396946, 5.19075, 0.0839695, 5.19075, -3.1374047
0.6114706, -0.012253, 5.1975, -0.0548706, 5.1975, -1.0064697, 5.1975, -0.0745239, 5.1975, 1.8473282, 5.1975, 0.3358779, 5.1975, -3.129771
0.6122647, -0.01561, 5.20425, -0.0549927, 5.20425, -1.0061646, 5.20425, -0.0717773, 5.20425, 1.9160305, 5.20425, 0.4122137, 5.20425, -3.129771
0.6130588, -0.0120851, 5.211, -0.055603, 5.211, -1.0061646, 5.211, -0.0752563, 5.211, 2.0229008, 5.211, 0.5877863, 5.211, -3.0458016
0.6138529, -0.008896, 5.21775, -0.0559082, 5.21775, -1.0070801, 5.21775, -0.0722046, 5.21775, 2.0229008, 5.21775, 0.6030535, 5.21775, -2.9847329
0.6146471, -0.0115816, 5.2245, -0.0559082, 5.2245, -1.0092163, 5.2245, -0.0710449, 5.2245, 1.908397, 5.2245, 0.5725191, 5.2245, -3.0534351
0.6154412, -0.0114137, 5.23125, -0.0557861, 5.23125, -1.0083618, 5.23125, -0.0719604, 5.23125, 2.0763359, 5.23125, 0.3129771, 5.23125, -3.0229008
0.6162353, -0.0082246, 5.238, -0.0524902, 5.238, -1.005127, 5.238, -0.0702515, 5.238, 1.9541985, 5.238, 0.2977099, 5.238, -3.0152671
0.6170294, -0.0109102, 5.24475, -0.052124, 5.24475, -1.006897, 5.24475, -0.0697632, 5.24475, 1.870229, 5.24475, 0.4503817, 5.24475, -3.0152671
0.6178235, -0.0109102, 5.2515, -0.0527954, 5.2515, -1.0053101, 5.2515, -0.0679321, 5.2515, 2.1526718, 5.2515, 0.4580153, 5.2515, -3.0458016
0.6186176, -0.0090639, 5.25825, -0.0511475, 5.25825, -1.0075684, 5.25825, -0.0690308, 5.25825, 2.091603, 5.25825, 0.4122137, 5.25825, -3.0763359
0.6194118, -0.0082246, 5.265, -0.0523071, 5.265, -1.0073242, 5.265, -0.069397, 5.265, 2.1221373, 5.265, 0.2442748, 5.265, -2.9312978
0.6202059, -0.008896, 5.27175, -0.0530396, 5.27175, -1.0065918, 5.27175, -0.069458, 5.27175, 2.1450381, 5.27175, 0.0687023, 5.27175, -2.9923663
0.621, -0.0102388, 5.2785, -0.0563354, 5.2785, -1.0056152, 5.2785, -0.0700073, 5.2785, 2.1679389, 5.2785, 0.0229008, 5.2785, -2.9847329
0.6217941, -0.0137636, 5.28525, -0.0552368, 5.28525, -1.0056763, 5.28525, -0.0723877, 5.28525, 2.221374, 5.28525, 0.0458015, 5.28525, -3.1068702
0.6225882, -0.0142672, 5.292, -0.0562134, 5.292, -1.0075073, 5.292, -0.071228, 5.292, 2.038168, 5.292, -0.0763359, 5.292, -3.038168
0.6233824, -0.0149386, 5.29875, -0.057312, 5.29875, -1.0079346, 5.29875, -0.0723877, 5.29875, 1.9847329, 5.29875, -0.2137405, 5.29875, -2.9770992
0.6241765, -0.0172885, 5.3055, -0.0570068, 5.3055, -1.0073242, 5.3055, -0.071106, 5.3055, 2.1984732, 5.3055, -0.2366412, 5.3055, -3.1603053
0.6249706, -0.0169528, 5.31225, -0.0560303, 5.31225, -1.0029907, 5.31225, -0.0714722, 5.31225, 2.1755726, 5.31225, -0.4503817, 5.31225, -3.1374047
0.6257647, -0.0162814, 5.319, -0.0543213, 5.319, -1.0067139, 5.319, -0.0716553, 5.319, 2.2061069, 5.319, -0.3740458, 5.319, -3.0992367
0.6265588, -0.0169528, 5.32575, -0.0553589, 5.32575, -1.0056763, 5.32575, -0.0689697, 5.32575, 2.2671757, 5.32575, -0.3435115, 5.32575, -3.221374
0.6273529, -0.0159457, 5.3325, -0.0558472, 5.3325, -1.0055542, 5.3325, -0.0674438, 5.3325, 2.2748091, 5.3325, -0.2824427, 5.3325, -3.1526718
0.6281471, -0.0149386, 5.33925, -0.0577393, 5.33925, -1.0082397, 5.33925, -0.0698853, 5.33925, 2.3053436, 5.33925, -0.2671756, 5.33925, -3.1221373
0.6289412, -0.0182956, 5.346, -0.0604248, 5.346, -1.0065308, 5.346, -0.0702515, 5.346, 2.3129771, 5.346, -0.2137405, 5.346, -3.1526718
0.6297353, -0.0182956, 5.35275, -0.060791, 5.35275, -1.0057373, 5.35275, -0.0689087, 5.35275, 2.3358779, 5.35275, -0.389313, 5.35275, -2.9923663
0.6305294, -0.0159457, 5.3595, -0.059021, 5.3595, -1.0023804, 5.3595, -0.0670166, 5.3595, 2.4274809, 5.3595, -0.3587786, 5.3595, -3.0763359
0.6313235, -0.01561, 5.36625, -0.0658569, 5.36625, -1.00354, 5.36625, -0.0740356, 5.36625, 2.4045801, 5.36625, -0.4274809, 5.36625, -3.1603053
0.6321176, -0.0151064, 5.373, -0.0625, 5.373, -1.0050049, 5.373, -0.0722656, 5.373, 2.4122138, 5.373, -0.5267175, 5.373, -3.0763359
0.6329118, -0.0169528, 5.37975, -0.0587158, 5.37975, -1.0068359, 5.37975, -0.0702515, 5.37975, 2.648855, 5.37975, -0.7328244, 5.37975, -3.221374
0.6337059, -0.0182956, 5.3865, -0.0546265, 5.3865, -1.0018921, 5.3865, -0.0700684, 5.3865, 2.648855, 5.3865, -1.0534351, 5.3865, -3.1526718
0.6345, -0.0135958, 5.39325, -0.055603, 5.39325, -1.0063477, 5.39325, -0.0684814, 5.39325, 2.6183207, 5.39325, -0.9312977, 5.39325, -3.2366412
0.6352941, -0.0130922, 5.4, -0.0490112, 5.4, -1.0042114, 5.4, -0.0651245, 5.4, 2.7099237, 5.4, -0.6870229, 5.4, -3.0839694
0.6360882, -0.0129244, 5.40675, -0.0497437, 5.40675, -1.0076294, 5.40675, -0.0667725, 5.40675, 2.7328243, 5.40675, -0.3664122, 5.40675, -3.221374
0.6368824, -0.0114137, 5.4135, -0.0528564, 5.4135, -1.0050049, 5.4135, -0.065979, 5.4135, 2.7099237, 5.4135, -0.1450382, 5.4135, -3
0.6376765, -0.008896, 5.42025, -0.052124, 5.42025, -1.0054321, 5.42025, -0.0631104, 5.42025, 2.5725191, 5.42025, -0.0381679, 5.42025, -3.2748091
0.6384706, -0.0072175, 5.427, -0.0552979, 5.427, -1.0049438, 5.427, -0.0622559, 5.427, 2.7251909, 5.427, -0.0458015, 5.427, -3.1526718
0.6392647, -0.0083925, 5.43375, -0.055542, 5.43375, -1.0056763, 5.43375, -0.0645752, 5.43375, 2.5114503, 5.43375, -0.0305344, 5.43375, -3.1374047
0.6400588, -0.0129244, 5.4405, -0.0556641, 5.4405, -1.0050659, 5.4405, -0.0639648, 5.4405, 2.5648854, 5.4405, -0.0534351, 5.4405, -3.3664122
0.6408529, -0.0125887, 5.44725, -0.0549316, 5.44725, -1.0050659, 5.44725, -0.0656738, 5.44725, 2.7328243, 5.44725, -0.2519084, 5.44725, -3.1832061
0.6416471, -0.011078, 5.454, -0.0558472, 5.454, -1.0065308, 5.454, -0.0655518, 5.454, 2.7175572, 5.454, -0.4351145, 5.454, -3.1526718
0.6424412, -0.0115816, 5.46075, -0.0571289, 5.46075, -1.0040894, 5.46075, -0.0668945, 5.46075, 2.3816793, 5.46075, -0.4274809, 5.46075, -3.1450381
0.6432353, -0.0146029, 5.4675, -0.0581665, 5.4675, -1.0043945, 5.4675, -0.0667725, 5.4675, 2.389313, 5.4675, -0.4351145, 5.4675, -3.2366412
0.6440294, -0.0149386, 5.47425, -0.0574951, 5.47425, -1.0048218, 5.47425, -0.0671997, 5.47425, 2.4961832, 5.47425, -0.3816794, 5.47425, -2.961832
0.6448235, -0.0149386, 5.481, -0.055481, 5.481, -1.0011597, 5.481, -0.0675049, 5.481, 2.610687, 5.481, -0.5954198, 5.481, -3.1908398
0.6456176, -0.0186313, 5.48775, -0.055542, 5.48775, -1.0029297, 5.48775, -0.0632935, 5.48775, 2.6564887, 5.48775, -0.7251908, 5.48775, -3.221374
0.6464118, -0.0219883, 5.4945, -0.0588989, 5.4945, -1.0037842, 5.4945, -0.0657959, 5.4945, 2.648855, 5.4945, -0.5801527, 5.4945, -3.1908398
0.6472059, -0.0218204, 5.50125, -0.0519409, 5.50125, -1.0032349, 5.50125, -0.0646362, 5.50125, 2.6946564, 5.50125, -0.6946565, 5.50125, -3.3740458
0.648, -0.0193027, 5.508, -0.0524902, 5.508, -1.0023804, 5.508, -0.0634155, 5.508, 2.6641221, 5.508, -0.5496183, 5.508, -3.3358779
0.6487941, -0.0196384, 5.51475, -0.0526123, 5.51475, -1.0041504, 5.51475, -0.0646973, 5.51475, 2.5801528, 5.51475, -0.4427481, 5.51475, -3.2290077
0.6495882, -0.018967, 5.5215, -0.0548706, 5.5215, -1.0066528, 5.5215, -0.0617065, 5.5215, 2.6564887, 5.5215, -0.129771, 5.5215, -3.3740458
0.6503824, -0.0229953, 5.52825, -0.0579834, 5.52825, -1.0060425, 5.52825, -0.0626831, 5.52825, 2.4732823, 5.52825, -0.1145038, 5.52825, -3.2519083
0.6511765, -0.0229953, 5.535, -0.0596313, 5.535, -1.0050049, 5.535, -0.0616455, 5.535, 2.610687, 5.535, -0.2290076, 5.535, -3.4122138
0.6519706, -0.0171206, 5.54175, -0.0597534, 5.54175, -1.003418, 5.54175, -0.06427, 5.54175, 2.7251909, 5.54175, -0.2671756, 5.54175, -3.2442749
0.6527647, -0.0135958, 5.5485, -0.0592041, 5.5485, -1.005188, 5.5485, -0.0648193, 5.5485, 2.6030533, 5.5485, -0.5877863, 5.5485, -3.3969467
0.6535588, -0.0142672, 5.55525, -0.0570679, 5.55525, -1.0078125, 5.55525, -0.0634155, 5.55525, 2.8396947, 5.55525, -0.7175573, 5.55525, -3.5877862
0.6543529, -0.0114137, 5.562, -0.0560913, 5.562, -1.0091553, 5.562, -0.0635986, 5.562, 3.0076337, 5.562, -0.5648855, 5.562, -3.5038168
0.6551471, -0.0095674, 5.56875, -0.0513306, 5.56875, -1.0085449, 5.56875, -0.062439, 5.56875, 3.259542, 5.56875, -0.4656489, 5.56875, -3.480916
0.6559412, -0.0104067, 5.5755, -0.0493774, 5.5755, -1.0073853, 5.5755, -0.0554199, 5.5755, 3.2900763, 5.5755, -0.6335878, 5.5755, -3.6183207
0.6567353, -0.014435, 5.58225, -0.0531006, 5.58225, -1.0108643, 5.58225, -0.0526733, 5.58225, 3.2290077, 5.58225, -0.961832, 5.58225, -3.610687
0.6575294, -0.0142672, 5.589, -0.0515747, 5.589, -1.0107422, 5.589, -0.0502319, 5.589, 3.4122138, 5.589, -0.9770992, 5.589, -3.8854961
0.6583235, -0.0135958, 5.59575, -0.0508423, 5.59575, -1.0072021, 5.59575, -0.0481567, 5.59575, 3.4427481, 5.59575, -0.7709923, 5.59575, -3.9465649
0.6591176, -0.0135958, 5.6025, -0.0444336, 5.6025, -1.007019, 5.6025, -0.0500488, 5.6025, 3.480916, 5.6025, -0.5114504, 5.6025, -3.8778627
0.6599118, -0.0112459, 5.60925, -0.0454102, 5.60925, -1.0064087, 5.60925, -0.0467529, 5.60925, 3.2061069, 5.60925, 0.2137405, 5.60925, -3.519084
0.6607059, -0.0132601, 5.616, -0.0517578, 5.616, -1.007019, 5.616, -0.0491333, 5.616, 3.1908398, 5.616, 1.0152671, 5.616, -3.4198472
0.6615, -0.0129244, 5.62275, -0.0581665, 5.62275, -1.0080566, 5.62275, -0.0489502, 5.62275, 3.2137403, 5.62275, 1.1755725, 5.62275, -3.4732823
0.6622941, -0.0135958, 5.6295, -0.0595093, 5.6295, -1.0102539, 5.6295, -0.0432129, 5.6295, 3.3969467, 5.6295, 0.4122137, 5.6295, -3.6870229
0.6630882, -0.0157778, 5.63625, -0.0525513, 5.63625, -1.0125122, 5.63625, -0.0410767, 5.63625, 4.2442746, 5.63625, -0.5801527, 5.63625, -3.7251909
0.6638824, -0.0132601, 5.643, -0.0485229, 5.643, -1.0101929, 5.643, -0.0435791, 5.643, 4.6259542, 5.643, -0.8778626, 5.643, -3.7251909
0.6646765, -0.0129244, 5.64975, -0.0402832, 5.64975, -1.008667, 5.64975, -0.0502319, 5.64975, 4.7022901, 5.64975, -0.1145038, 5.64975, -3.610687
0.6654706, -0.0157778, 5.6565, -0.0374146, 5.6565, -1, 5.6565, -0.0540161, 5.6565, 4.5877862, 5.6565, 1.2900764, 5.6565, -3.3358779
0.6662647, -0.0152743, 5.66325, -0.0480957, 5.66325, -0.9996338, 5.66325, -0.0645142, 5.66325, 4.1755724, 5.66325, 2.0687022, 5.66325, -3.3358779
0.6670588, -0.0169528, 5.67, -0.0561523, 5.67, -0.9989014, 5.67, -0.0657349, 5.67, 3.9007633, 5.67, 2.2061069, 5.67, -3.259542
0.6678529, -0.0169528, 5.67675, -0.0681763, 5.67675, -1.0014038, 5.67675, -0.0704346, 5.67675, 3.4351146, 5.67675, 1.8854961, 5.67675, -3.259542
0.6686471, -0.0164492, 5.6835, -0.0671387, 5.6835, -1.0003662, 5.6835, -0.0702515, 5.6835, 3.3129771, 5.6835, 1.0610687, 5.6835, -3.3053436
0.6694412, -0.0172885, 5.69025, -0.0673828, 5.69025, -1.0010986, 5.69025, -0.0697021, 5.69025, 3.2519083, 5.69025, 0.2824427, 5.69025, -3.4580152
0.6702353, -0.0209812, 5.697, -0.0639038, 5.697, -0.9980469, 5.697, -0.0688477, 5.697, 3.4656489, 5.697, 0.0229008, 5.697, -3.5954199
0.6710294, -0.0229953, 5.70375, -0.062439, 5.70375, -1.000061, 5.70375, -0.0708008, 5.70375, 3.2824428, 5.70375, 0.0305344, 5.70375, -3.6793892
0.6718235, -0.0216526, 5.7105, -0.0620117, 5.7105, -0.9985352, 5.7105, -0.0686035, 5.7105, 3.1984732, 5.7105, -0.1374046, 5.7105, -4
0.6726176, -0.0149386, 5.71725, -0.0603027, 5.71725, -1.0008545, 5.71725, -0.0615845, 5.71725, 3.259542, 5.71725, -0.7328244, 5.71725, -4.1603055
0.6734118, -0.0132601, 5.724, -0.0628662, 5.724, -1.0010376, 5.724, -0.0596924, 5.724, 3.2442749, 5.724, -1.1679389, 5.724, -4.1297708
0.6742059, -0.0130922, 5.73075, -0.0646362, 5.73075, -1.0025635, 5.73075, -0.0548706, 5.73075, 3.6183207, 5.73075, -1.6030535, 5.73075, -4
0.675, -0.0152743, 5.7375, -0.0612183, 5.7375, -1.0023804, 5.7375, -0.0567627, 5.7375, 3.7251909, 5.7375, -2.1908398, 5.7375, -4.1221375
