Application:, Trigno Discover (1.7.0)
Date/Time:, 2026/9/9 下午 12:02:25
Collection Length (seconds):, 42.1335
Avanti Sensor 11 (69574)
sensor mode: 50
EMG 1 Time Series (s), EMG 1 (mV), ACC X Time Series (s), ACC X (G), ACC Y Time Series (s), ACC Y (G), ACC Z Time Series (s), ACC Z (G), GYRO X Time Series (s), GYRO X (deg/s), GYRO Y Time Series (s), GYRO Y (deg/s), GYRO Z Time Series (s), GYRO Z (deg/s)
, 1259.2593 Hz, , 148.1481 Hz, , 148.1481 Hz, , 148.1481 Hz, , 148.1481 Hz, , 148.1481 Hz, , 148.1481 Hz
0, -0.0041962, 0, -0.0649414, 0, -0.9872437, 0, -0.3046875, 0, 5.4885497, 0, -27.2442741, 0, -11.519084
0.0007941, -0.0041962, 0.00675, -0.0830688, 0.00675, -0.977356, 0.00675, -0.293457, 0.00675, 6.0458016, 0.00675, -29.1068707, 0.00675, -12.5725193
0.0015882, -0.0092317, 0.0135, -0.1085205, 0.0135, -0.9783936, 0.0135, -0.2919312, 0.0135, 8.717557, 0.0135, -32.2061081, 0.0135, -14.320611
0.0023824, -0.0159457, 0.02025, -0.1105347, 0.02025, -1.0327759, 0.02025, -0.2466431, 0.02025, 12.7786255, 0.02025, -38.67939, 0.02025, -17.0687027
0.0031765, -0.0172885, 0.027, -0.1530762, 0.027, -1.0709229, 0.027, -0.2329102, 0.027, 13.7022905, 0.027, -40.7633591, 0.027, -19.9694653
0.0039706, -0.018967, 0.03375, -0.1603394, 0.03375, -1.0836182, 0.03375, -0.2102661, 0.03375, 17.4961834, 0.03375, -46.717556, 0.03375, -22.9770985
0.0047647, -0.0256809, 0.0405, -0.218811, 0.0405, -1.0819092, 0.0405, -0.2009277, 0.0405, 18.5954189, 0.0405, -59.2213745, 0.0405, -25.4045811
0.0055588, -0.023331, 0.04725, -0.1619263, 0.04725, -1.0040283, 0.04725, -0.3286133, 0.04725, 14.3053436, 0.04725, -60.7251892, 0.04725, -26.2290077
0.0063529, -0.0193027, 0.054, -0.1203003, 0.054, -0.9941406, 0.054, -0.3277588, 0.054, 12.4351149, 0.054, -61.5648842, 0.054, -26.4274807
0.0071471, -0.0199741, 0.06075, -0.0958862, 0.06075, -0.9844971, 0.06075, -0.3505859, 0.06075, 11.2519083, 0.06075, -60.5648842, 0.06075, -26.5648861
0.0079412, -0.0199741, 0.0675, -0.0058594, 0.0675, -0.9615479, 0.0675, -0.4163208, 0.0675, 9.6106873, 0.0675, -57.2595406, 0.0675, -26.0152664
0.0087353, -0.0203098, 0.07425, -0.0018921, 0.07425, -0.9981689, 0.07425, -0.3627319, 0.07425, 8.6870232, 0.07425, -49.1908379, 0.07425, -23.8320618
0.0095294, -0.0142672, 0.081, 0.0315552, 0.081, -0.9925537, 0.081, -0.3348389, 0.081, 9.2671757, 0.081, -42.7480927, 0.081, -21.603054
0.0103235, -0.0152743, 0.08775, 0.0773315, 0.08775, -0.9770508, 0.08775, -0.3196411, 0.08775, 8.7022905, 0.08775, -36.2213745, 0.08775, -19.6335869
0.0111176, -0.0139315, 0.0945, 0.0892944, 0.0945, -0.9700317, 0.0945, -0.3339233, 0.0945, 12.160305, 0.0945, -40.961834, 0.0945, -18.2366409
0.0119118, -0.0109102, 0.10125, 0.050354, 0.10125, -0.9819336, 0.10125, -0.3504639, 0.10125, 8.198473, 0.10125, -27.8931293, 0.10125, -15.7099237
0.0127059, -0.0102388, 0.108, 0.0076904, 0.108, -0.9546509, 0.108, -0.338562, 0.108, 9.320611, 0.108, -25.1755733, 0.108, -14.1832066
0.0135, -0.0095674, 0.11475, -0.0446167, 0.11475, -0.9389648, 0.11475, -0.3441772, 0.11475, 7.2671757, 0.11475, -25.2061062, 0.11475, -13.320611
0.0142941, -0.0090639, 0.1215, -0.098877, 0.1215, -0.9350586, 0.1215, -0.3214111, 0.1215, 6.3664122, 0.1215, -24.6335869, 0.1215, -12.839695
0.0150882, -0.0112459, 0.12825, -0.1400146, 0.12825, -0.9442749, 0.12825, -0.2825928, 0.12825, 6.2290077, 0.12825, -24.8091602, 0.12825, -12.7480917
0.0158824, -0.0135958, 0.135, -0.1747437, 0.135, -0.963623, 0.135, -0.2367554, 0.135, 5.7099237, 0.135, -26.7328243, 0.135, -12.8091602
0.0166765, -0.0166171, 0.14175, -0.1939087, 0.14175, -0.9776611, 0.14175, -0.2203369, 0.14175, 5.5877862, 0.14175, -30.3282452, 0.14175, -13.6488552
0.0174706, -0.0146029, 0.1485, -0.2449341, 0.1485, -1.0018311, 0.1485, -0.2209473, 0.1485, 6.5419846, 0.1485, -37.8931313, 0.1485, -15.3282442
0.0182647, -0.0109102, 0.15525, -0.2850952, 0.15525, -1.0149536, 0.15525, -0.2094116, 0.15525, 7.480916, 0.15525, -46.1984749, 0.15525, -18.442749
0.0190588, -0.0112459, 0.162, -0.3192139, 0.162, -1.0153198, 0.162, -0.2224121, 0.162, 9.3740454, 0.162, -56.4809151, 0.162, -23.160305
0.0198529, -0.0142672, 0.16875, -0.34198, 0.16875, -1.0158691, 0.16875, -0.2411499, 0.16875, 11.4351149, 0.16875, -69, 0.16875, -28.8854961
0.0206471, -0.018967, 0.1755, -0.3547363, 0.1755, -0.9852295, 0.1755, -0.298584, 0.1755, 12.9465647, 0.1755, -90.8931274, 0.1755, -33.7557259
0.0214412, -0.0182956, 0.18225, -0.3012695, 0.18225, -0.9639282, 0.18225, -0.3723755, 0.18225, 9.5648851, 0.18225, -93.0839691, 0.18225, -37.2671738
0.0222353, -0.0142672, 0.189, -0.21521, 0.189, -0.944458, 0.189, -0.3827515, 0.189, 10.7404585, 0.189, -97.1450348, 0.189, -38.9694672
0.0230294, -0.0125887, 0.19575, -0.1087646, 0.19575, -0.9529419, 0.19575, -0.382019, 0.19575, 10, 0.19575, -96.3282471, 0.19575, -39.603054
0.0238235, -0.012253, 0.2025, 0.0033569, 0.2025, -0.9578247, 0.2025, -0.3721924, 0.2025, 9.3893127, 0.2025, -90.3129807, 0.2025, -38.0763359
0.0246176, -0.0149386, 0.20925, 0.1096802, 0.20925, -0.949585, 0.20925, -0.3723145, 0.20925, 8.5725193, 0.20925, -86.0152664, 0.20925, -36.7328262
0.0254118, -0.0182956, 0.216, 0.1578369, 0.216, -0.9436646, 0.216, -0.3745728, 0.216, 7.9465647, 0.216, -73.992363, 0.216, -33.3893127
0.0262059, -0.0184634, 0.22275, 0.2442627, 0.22275, -0.9364624, 0.22275, -0.3842773, 0.22275, 7.6259542, 0.22275, -57.5954208, 0.22275, -28.9160309
0.027, -0.0191348, 0.2295, 0.2993774, 0.2295, -0.9258423, 0.2295, -0.3751221, 0.2295, 6.6793895, 0.2295, -37.6717567, 0.2295, -23.6259537
0.0277941, -0.0135958, 0.23625, 0.3272095, 0.23625, -0.9144897, 0.23625, -0.3493652, 0.23625, 5.5954199, 0.23625, -17.5419846, 0.23625, -17.358778
0.0285882, -0.0139315, 0.243, 0.329895, 0.243, -0.9011841, 0.243, -0.3355103, 0.243, 3.8396947, 0.243, 1.5114504, 0.243, -10.801527
0.0293824, -0.0099031, 0.24975, 0.3009644, 0.24975, -0.9207153, 0.24975, -0.3312378, 0.24975, 1.908397, 0.24975, 20.2671757, 0.24975, -4.2519083
0.0301765, -0.0075532, 0.2565, 0.1867676, 0.2565, -0.9551392, 0.2565, -0.2996216, 0.2565, 0.0992366, 0.2565, 33.8625946, 0.2565, 1.9236641
0.0309706, -0.0135958, 0.26325, 0.0476074, 0.26325, -0.9707642, 0.26325, -0.2446899, 0.26325, -0.2061069, 0.26325, 39.5648842, 0.26325, 5.9847326
0.0317647, -0.012253, 0.27, -0.0719604, 0.27, -0.9450684, 0.27, -0.2634888, 0.27, -2.8320611, 0.27, 35.4961815, 0.27, 6.1068702
0.0325588, -0.0115816, 0.27675, -0.1430664, 0.27675, -0.920105, 0.27675, -0.2705688, 0.27675, -6.0458016, 0.27675, 27.4961834, 0.27675, 4.6641221
0.0333529, -0.0092317, 0.2835, -0.1635132, 0.2835, -0.9173584, 0.2835, -0.2423096, 0.2835, -7.3740458, 0.2835, 24.2213745, 0.2835, 3.9541984
0.0341471, -0.0075532, 0.29025, -0.1500854, 0.29025, -0.9445801, 0.29025, -0.2023926, 0.29025, -9.6030531, 0.29025, 20.6488552, 0.29025, 2.4122138
0.0349412, -0.0105745, 0.297, -0.1345825, 0.297, -0.9642944, 0.297, -0.187561, 0.297, -11.8702288, 0.297, 17.603054, 0.297, 1.1984733
0.0357353, -0.012253, 0.30375, -0.1119385, 0.30375, -1.0004272, 0.30375, -0.1712646, 0.30375, -12.519084, 0.30375, 14.5648851, 0.30375, 0.0305344
0.0365294, -0.0102388, 0.3105, -0.1089478, 0.3105, -1.0306396, 0.3105, -0.1698608, 0.3105, -12.4427481, 0.3105, 9.9541988, 0.3105, -0.6412213
0.0373235, -0.012253, 0.31725, -0.1165771, 0.31725, -1.0250244, 0.31725, -0.1599121, 0.31725, -11.4885492, 0.31725, 4.5267177, 0.31725, -1.8549619
0.0381176, -0.0135958, 0.324, -0.1065063, 0.324, -0.994751, 0.324, -0.1818237, 0.324, -11.1755724, 0.324, -2.1755726, 0.324, -3.7633588
0.0389118, -0.0149386, 0.33075, -0.092041, 0.33075, -0.9746704, 0.33075, -0.2365112, 0.33075, -11.5572519, 0.33075, -10.6564884, 0.33075, -5.9236641
0.0397059, -0.0157778, 0.3375, -0.0695801, 0.3375, -0.9708252, 0.3375, -0.2744751, 0.3375, -11.9236641, 0.3375, -16.5343513, 0.3375, -7.6717558
0.0405, -0.0166171, 0.34425, -0.0316162, 0.34425, -0.9951782, 0.34425, -0.293335, 0.34425, -11.8778629, 0.34425, -19.6564884, 0.34425, -9.5954199
0.0412941, -0.0176242, 0.351, 0.0135498, 0.351, -1.0195312, 0.351, -0.3112793, 0.351, -10.9236641, 0.351, -21.8854961, 0.351, -11.038168
0.0420882, -0.0181277, 0.35775, 0.0563965, 0.35775, -1.0290527, 0.35775, -0.3286743, 0.35775, -8.3893127, 0.35775, -22.5343513, 0.35775, -11.4351149
0.0428824, -0.0169528, 0.3645, 0.0914917, 0.3645, -1.0255737, 0.3645, -0.3247681, 0.3645, -7.1832061, 0.3645, -21.3129768, 0.3645, -11.2290077
0.0436765, -0.017792, 0.37125, 0.1020508, 0.37125, -1.0187988, 0.37125, -0.3200073, 0.37125, -5.6183205, 0.37125, -17.160305, 0.37125, -9.7404585
0.0444706, -0.0187991, 0.378, 0.1115112, 0.378, -1.0114746, 0.378, -0.3197021, 0.378, -3.9541984, 0.378, -10.7404585, 0.378, -7.8778625
0.0452647, -0.0169528, 0.38475, 0.1005859, 0.38475, -1.0072632, 0.38475, -0.317688, 0.38475, -3.2137403, 0.38475, -3.4580152, 0.38475, -5.6106873
0.0460588, -0.0179599, 0.3915, 0.0656738, 0.3915, -1.0046387, 0.3915, -0.3326416, 0.3915, -3.0534351, 0.3915, 2.9312978, 0.3915, -3.8091602
0.0468529, -0.0139315, 0.39825, 0.0076904, 0.39825, -0.9968872, 0.39825, -0.3121338, 0.39825, -4.7099237, 0.39825, 8.6259546, 0.39825, -2.2671757
0.0476471, -0.0105745, 0.405, -0.0509644, 0.405, -0.9855347, 0.405, -0.3117676, 0.405, -6.1908398, 0.405, 12.519084, 0.405, -0.6946565
0.0484412, -0.012253, 0.41175, -0.0990601, 0.41175, -0.9888916, 0.41175, -0.2924194, 0.41175, -7.1297708, 0.41175, 12.3969469, 0.41175, -0.4274809
0.0492353, -0.0099031, 0.4185, -0.1144409, 0.4185, -1.005249, 0.4185, -0.257019, 0.4185, -5.5725193, 0.4185, 9.2977095, 0.4185, -1.0229008
0.0500294, -0.0092317, 0.42525, -0.1089478, 0.42525, -1.0154419, 0.42525, -0.2471313, 0.42525, -4.2061067, 0.42525, 5.6106873, 0.42525, -2.4961832
0.0508235, -0.0119173, 0.432, -0.0812378, 0.432, -1.0249023, 0.432, -0.2379761, 0.432, -3.9312978, 0.432, 1.7328244, 0.432, -4.2290077
0.0516176, -0.0125887, 0.43875, -0.0396729, 0.43875, -1.0199585, 0.43875, -0.2420044, 0.43875, -3.2900763, 0.43875, 0.5496183, 0.43875, -4.6641221
0.0524118, -0.0125887, 0.4455, 0.0090332, 0.4455, -1.0133057, 0.4455, -0.2595215, 0.4455, -3.129771, 0.4455, 0.0534351, 0.4455, -5.0305343
0.0532059, -0.0182956, 0.45225, 0.0302734, 0.45225, -1.010498, 0.45225, -0.2633667, 0.45225, -2.2061069, 0.45225, 1.9465649, 0.45225, -4.2900763
0.054, -0.0206455, 0.459, 0.0662842, 0.459, -0.9994507, 0.459, -0.2694092, 0.459, -1.6641221, 0.459, 5.0992365, 0.459, -3.0229008
0.0547941, -0.0196384, 0.46575, 0.0863647, 0.46575, -0.9959106, 0.46575, -0.2813721, 0.46575, -0.7709923, 0.46575, 9.717557, 0.46575, -1.1450381
0.0555882, -0.0218204, 0.4725, 0.0848389, 0.4725, -0.9974976, 0.4725, -0.289917, 0.4725, -1.0534351, 0.4725, 14.6870232, 0.4725, 1.0076336
0.0563824, -0.0182956, 0.47925, 0.0622559, 0.47925, -1.0075073, 0.47925, -0.2893066, 0.47925, -1.1145039, 0.47925, 18.1679382, 0.47925, 2.8778627
0.0571765, -0.0182956, 0.486, 0.0317383, 0.486, -1.0036011, 0.486, -0.2861328, 0.486, -0.1450382, 0.486, 19.0152664, 0.486, 4.1145039
0.0579706, -0.0236667, 0.49275, -0.0057373, 0.49275, -0.9967041, 0.49275, -0.2919922, 0.49275, -0.0839695, 0.49275, 17.4045811, 0.49275, 4.1297708
0.0587647, -0.0182956, 0.4995, -0.0404663, 0.4995, -0.9959717, 0.4995, -0.2955933, 0.4995, -0.6259542, 0.4995, 14.4045801, 0.4995, 3.7480917
0.0595588, -0.0142672, 0.50625, -0.0566406, 0.50625, -1.001709, 0.50625, -0.2920532, 0.50625, -1.0458015, 0.50625, 11.2977095, 0.50625, 2.7328243
0.0603529, -0.018967, 0.513, -0.0531616, 0.513, -0.9986572, 0.513, -0.2839966, 0.513, -1.1984733, 0.513, 8.3358774, 0.513, 1.8091604
0.0611471, -0.021149, 0.51975, -0.0372314, 0.51975, -0.9949341, 0.51975, -0.2851562, 0.51975, -1.4503816, 0.51975, 6.9389315, 0.51975, 1.4274809
0.0619412, -0.0162814, 0.5265, -0.0292358, 0.5265, -0.994751, 0.5265, -0.2910767, 0.5265, -1.8931298, 0.5265, 5.3053436, 0.5265, 1.1755725
0.0627353, -0.0139315, 0.53325, -0.0189819, 0.53325, -0.9923706, 0.53325, -0.3064575, 0.53325, -2.4732823, 0.53325, 5.8625956, 0.53325, 1.351145
0.0635294, -0.0132601, 0.54, -0.0153809, 0.54, -0.9889526, 0.54, -0.3134155, 0.54, -3.0305343, 0.54, 7.4045801, 0.54, 2.0610688
0.0643235, -0.0109102, 0.54675, -0.0259399, 0.54675, -0.9822998, 0.54675, -0.3115845, 0.54675, -3.1450381, 0.54675, 7.5954199, 0.54675, 2.6717558
0.0651176, -0.0115816, 0.5535, -0.0487061, 0.5535, -0.9873657, 0.5535, -0.3095703, 0.5535, -2.9465649, 0.5535, 7.8396945, 0.5535, 3.2061069
0.0659118, -0.0125887, 0.56025, -0.0664673, 0.56025, -0.9889526, 0.56025, -0.3146362, 0.56025, -2.7938931, 0.56025, 7.6641221, 0.56025, 3.1068702
0.0667059, -0.0115816, 0.567, -0.0646973, 0.567, -0.9876709, 0.567, -0.329895, 0.567, -2.4274809, 0.567, 6.0229006, 0.567, 2.7862597
0.0675, -0.0115816, 0.57375, -0.0591431, 0.57375, -0.9874268, 0.57375, -0.3416138, 0.57375, -2.5267177, 0.57375, 3.8320611, 0.57375, 1.9694656
0.0682941, -0.0117494, 0.5805, -0.0501709, 0.5805, -0.9884033, 0.5805, -0.3324585, 0.5805, -1.5419847, 0.5805, 3.0763359, 0.5805, 1.351145
0.0690882, -0.012253, 0.58725, -0.0447998, 0.58725, -0.9907837, 0.58725, -0.3401489, 0.58725, -0.0992366, 0.58725, 3.2366412, 0.58725, 1.1603054
0.0698824, -0.012253, 0.594, -0.0316162, 0.594, -0.994812, 0.594, -0.3369751, 0.594, 0.0381679, 0.594, 3.0610688, 0.594, 1.2061069
0.0706765, -0.0075532, 0.60075, -0.0102539, 0.60075, -1.0008545, 0.60075, -0.3300171, 0.60075, 0.0458015, 0.60075, 3.870229, 0.60075, 2.0992367
0.0714706, -0.012253, 0.6075, 0.00177, 0.6075, -0.9992065, 0.6075, -0.3303223, 0.6075, 1.091603, 0.6075, 4.3664122, 0.6075, 2.8091602
0.0722647, -0.0169528, 0.61425, 0.0183105, 0.61425, -0.9962158, 0.61425, -0.3393555, 0.61425, 2.2824428, 0.61425, 6, 0.61425, 3.7633588
0.0730588, -0.0166171, 0.621, 0.0100708, 0.621, -0.9835205, 0.621, -0.3556519, 0.621, 1.8473282, 0.621, 8.6259546, 0.621, 4.9007635
0.0738529, -0.0152743, 0.62775, -0.0015259, 0.62775, -0.9860229, 0.62775, -0.3409424, 0.62775, 0.2366412, 0.62775, 9.3969469, 0.62775, 5.2290077
0.0746471, -0.01561, 0.6345, -0.0174561, 0.6345, -0.9916992, 0.6345, -0.3273315, 0.6345, 0.8778626, 0.6345, 10.0763359, 0.6345, 5.9389315
0.0754412, -0.0186313, 0.64125, -0.031189, 0.64125, -0.9957275, 0.64125, -0.3343506, 0.64125, 1.648855, 0.64125, 10.519084, 0.64125, 6.1984735
0.0762353, -0.0182956, 0.648, -0.0395508, 0.648, -1.0014648, 0.648, -0.340271, 0.648, 2.1679389, 0.648, 10.519084, 0.648, 5.8244276
0.0770294, -0.0169528, 0.65475, -0.0557251, 0.65475, -1.0028687, 0.65475, -0.3383789, 0.65475, 2.8778627, 0.65475, 10.480916, 0.65475, 5.4503818
0.0778235, -0.0179599, 0.6615, -0.0708008, 0.6615, -0.9985352, 0.6615, -0.3343506, 0.6615, 3.259542, 0.6615, 10.961832, 0.6615, 5.4351144
0.0786176, -0.0194705, 0.66825, -0.0714722, 0.66825, -0.9938354, 0.66825, -0.3435669, 0.66825, 4.2137403, 0.66825, 10.1908398, 0.66825, 5.9847326
0.0794118, -0.0209812, 0.675, -0.0809326, 0.675, -0.9918213, 0.675, -0.3779297, 0.675, 3.9847329, 0.675, 10.3435116, 0.675, 6.3206105
0.0802059, -0.0157778, 0.68175, -0.0830688, 0.68175, -0.9898071, 0.68175, -0.3937378, 0.68175, 3.610687, 0.68175, 11.9389315, 0.68175, 6.6717558
0.081, -0.0129244, 0.6885, -0.0888062, 0.6885, -0.9782715, 0.6885, -0.3874512, 0.6885, 3.2519083, 0.6885, 11.961832, 0.6885, 7.0458016
0.0817941, -0.0119173, 0.69525, -0.0803223, 0.69525, -0.9855347, 0.69525, -0.3546753, 0.69525, 1.9389313, 0.69525, 8.9541988, 0.69525, 6.8549619
0.0825882, -0.0127565, 0.702, -0.0739746, 0.702, -1.0054932, 0.702, -0.3150635, 0.702, 2.0687022, 0.702, 7.8702292, 0.702, 6.1984735
0.0833824, -0.0112459, 0.70875, -0.0697021, 0.70875, -1.0124512, 0.70875, -0.2615967, 0.70875, 3.1984732, 0.70875, 6.6335878, 0.70875, 5.9312978
0.0841765, -0.0115816, 0.7155, -0.0341797, 0.7155, -1.0090332, 0.7155, -0.2557983, 0.7155, 4.2366414, 0.7155, 5.1832061, 0.7155, 5.3206105
0.0849706, -0.0082246, 0.72225, -0.0292358, 0.72225, -1.0071411, 0.72225, -0.2853394, 0.72225, 4.5496182, 0.72225, 4.3511453, 0.72225, 4.8931298
0.0857647, -0.0062104, 0.729, -0.0360718, 0.729, -1.0039673, 0.729, -0.305481, 0.729, 5.2977099, 0.729, 4.5114503, 0.729, 5.2137403
0.0865588, -0.012253, 0.73575, -0.0303955, 0.73575, -0.9915771, 0.73575, -0.31073, 0.73575, 6.3053436, 0.73575, 6.0152674, 0.73575, 5.4274807
0.0873529, -0.0186313, 0.7425, -0.032959, 0.7425, -0.9837036, 0.7425, -0.3074951, 0.7425, 6.9465647, 0.7425, 7.6030536, 0.7425, 5.4045801
0.0881471, -0.0179599, 0.74925, -0.0490112, 0.74925, -0.9793091, 0.74925, -0.3179932, 0.74925, 7.038168, 0.74925, 8.1145039, 0.74925, 5.519084
0.0889412, -0.0171206, 0.756, -0.0479126, 0.756, -0.9790039, 0.756, -0.3230591, 0.756, 6.7328243, 0.756, 8.4045801, 0.756, 5.8167939
0.0897353, -0.0169528, 0.76275, -0.0432129, 0.76275, -0.9858398, 0.76275, -0.3145752, 0.76275, 5.5725193, 0.76275, 8.679389, 0.76275, 6.1984735
0.0905294, -0.0132601, 0.7695, -0.0346069, 0.7695, -0.9958496, 0.7695, -0.3001709, 0.7695, 5.4656487, 0.7695, 8.9389315, 0.7695, 6.259542
0.0913235, -0.0182956, 0.77625, -0.0390015, 0.77625, -0.9871216, 0.77625, -0.3237915, 0.77625, 4.3206105, 0.77625, 6.8167939, 0.77625, 5.6641221
0.0921176, -0.0162814, 0.783, -0.024231, 0.783, -0.9870605, 0.783, -0.336731, 0.783, 3.6412213, 0.783, 2.6870229, 0.783, 4.5267177
0.0929118, -0.0166171, 0.78975, -0.0115967, 0.78975, -1.0112305, 0.78975, -0.3114014, 0.78975, 4.8778625, 0.78975, 4.8473282, 0.78975, 4.259542
0.0937059, -0.0199741, 0.7965, 0.0076294, 0.7965, -1.0175171, 0.7965, -0.3200684, 0.7965, 4.8473282, 0.7965, 6.519084, 0.7965, 3.480916
0.0945, -0.0176242, 0.80325, -0.0030518, 0.80325, -1.0054932, 0.80325, -0.3415527, 0.80325, 4.0839696, 0.80325, 4.3587785, 0.80325, 2.9541984
0.0952941, -0.0146029, 0.81, -0.0194702, 0.81, -1.005127, 0.81, -0.3284302, 0.81, 5.2671757, 0.81, 5.221374, 0.81, 3.0763359
0.0960882, -0.012253, 0.81675, -0.020813, 0.81675, -1.0217285, 0.81675, -0.3375244, 0.81675, 5.5954199, 0.81675, 7.9465647, 0.81675, 3.0229008
0.0968824, -0.012253, 0.8235, -0.0238037, 0.8235, -1.0375977, 0.8235, -0.3510132, 0.8235, 3.6335878, 0.8235, 9.3511448, 0.8235, 2.0305343
0.0976765, -0.010071, 0.83025, -0.0355225, 0.83025, -1.0388184, 0.83025, -0.3135986, 0.83025, 3.0305343, 0.83025, 10.519084, 0.83025, 1.1908396
0.0984706, -0.0072175, 0.837, -0.0418701, 0.837, -1.0181274, 0.837, -0.2940674, 0.837, 3.8167939, 0.837, 12.7557249, 0.837, -0.6030535
0.0992647, -0.0048676, 0.84375, -0.0507202, 0.84375, -0.9821777, 0.84375, -0.2693481, 0.84375, 3.0152671, 0.84375, 12.3282442, 0.84375, -1.6870229
0.1000588, -0.0082246, 0.8505, -0.0422974, 0.8505, -0.9750366, 0.8505, -0.2426758, 0.8505, 2.0458016, 0.8505, 12.1145039, 0.8505, -3.1221373
0.1008529, -0.0130922, 0.85725, -0.0380859, 0.85725, -0.9424438, 0.85725, -0.2363892, 0.85725, 1.5648855, 0.85725, 12.1679392, 0.85725, -4.9236641
0.1016471, -0.014435, 0.864, -0.0025024, 0.864, -0.9378052, 0.864, -0.2272339, 0.864, 0.3053435, 0.864, 12.5267172, 0.864, -5.9541984
0.1024412, -0.0149386, 0.87075, 0.0533447, 0.87075, -0.9327393, 0.87075, -0.2160645, 0.87075, -0.4885496, 0.87075, 15.0916033, 0.87075, -7.9770994
0.1032353, -0.0162814, 0.8775, 0.0889893, 0.8775, -0.8872681, 0.8775, -0.225769, 0.8775, -1.7633588, 0.8775, 15.3282442, 0.8775, -9.1832066
0.1040294, -0.0119173, 0.88425, 0.1171875, 0.88425, -0.8835449, 0.88425, -0.2194824, 0.88425, -1.519084, 0.88425, 17.3129768, 0.88425, -9
0.1048235, -0.0117494, 0.891, 0.1121826, 0.891, -0.9082031, 0.891, -0.2150269, 0.891, -0.0152672, 0.891, 22.3740463, 0.891, -8.2290077
0.1056176, -0.0182956, 0.89775, 0.100708, 0.89775, -0.9177246, 0.89775, -0.2125854, 0.89775, 1.6030535, 0.89775, 28.7938938, 0.89775, -6.7557254
0.1064118, -0.0240024, 0.9045, 0.0724487, 0.9045, -0.9180298, 0.9045, -0.2148438, 0.9045, 2.2442749, 0.9045, 32.1832047, 0.9045, -6.1297708
0.1072059, -0.0251774, 0.91125, 0.0022583, 0.91125, -0.9050293, 0.91125, -0.1982422, 0.91125, 3.0076337, 0.91125, 37.6488533, 0.91125, -4.6106873
0.108, -0.0199741, 0.918, -0.0369263, 0.918, -0.9008179, 0.918, -0.1838379, 0.918, 4.2748094, 0.918, 40.8702278, 0.918, -3.3435113
0.1087941, -0.0196384, 0.92475, -0.118042, 0.92475, -0.9053345, 0.92475, -0.1655884, 0.92475, 5.5343513, 0.92475, 40.961834, 0.92475, -2.0534351
0.1095882, -0.0218204, 0.9315, -0.1988525, 0.9315, -0.9223633, 0.9315, -0.1561279, 0.9315, 8.0763359, 0.9315, 38.2290077, 0.9315, -1.8244275
0.1103824, -0.0164492, 0.93825, -0.2713013, 0.93825, -0.9387207, 0.93825, -0.1467896, 0.93825, 10.4351149, 0.93825, 32.7709923, 0.93825, -2.7557251
0.1111765, -0.0162814, 0.945, -0.3284302, 0.945, -0.9535522, 0.945, -0.1360474, 0.945, 12.0076332, 0.945, 26.0076332, 0.945, -4.0839696
0.1119706, -0.0166171, 0.95175, -0.3865967, 0.95175, -0.967041, 0.95175, -0.1248779, 0.95175, 13.5343513, 0.95175, 18.0610695, 0.95175, -4.7480917
0.1127647, -0.0149386, 0.9585, -0.4389038, 0.9585, -0.9857788, 0.9585, -0.1116333, 0.9585, 14.7633591, 0.9585, 11.6641226, 0.9585, -4.5419846
0.1135588, -0.0104067, 0.96525, -0.4830322, 0.96525, -0.9980469, 0.96525, -0.1298828, 0.96525, 19.1908398, 0.96525, 9.7480917, 0.96525, -2.7099237
0.1143529, -0.0068818, 0.972, -0.4990845, 0.972, -0.9788208, 0.972, -0.1116333, 0.972, 15.7251911, 0.972, 9.8549614, 0.972, 0.5038168
0.1151471, -0.0092317, 0.97875, -0.3948975, 0.97875, -0.9406738, 0.97875, -0.1726685, 0.97875, 12.6488552, 0.97875, 4.9312978, 0.97875, 1.0229008
0.1159412, -0.0159457, 0.9855, -0.3432007, 0.9855, -0.9606934, 0.9855, -0.2088013, 0.9855, 9.5419846, 0.9855, 2.2137403, 0.9855, 0.0916031
0.1167353, -0.0149386, 0.99225, -0.3245239, 0.99225, -0.9798584, 0.99225, -0.2037354, 0.99225, 6.2061067, 0.99225, -2.6183207, 0.99225, -1.5725191
0.1175294, -0.0176242, 0.999, -0.2512817, 0.999, -1.0075684, 0.999, -0.1993408, 0.999, 4.6030536, 0.999, -6.3206105, 0.999, -3.6412213
0.1183235, -0.018967, 1.00575, -0.1396484, 1.00575, -1.0325317, 1.00575, -0.2277832, 1.00575, 2.1679389, 1.00575, -9.8244276, 1.00575, -5.7251906
0.1191176, -0.0166171, 1.0125, -0.0255127, 1.0125, -1.0300293, 1.0125, -0.2803955, 1.0125, 1.5267175, 1.0125, -12.0916033, 1.0125, -6.5572519
0.1199118, -0.0142672, 1.01925, 0.0841064, 1.01925, -1.0073242, 1.01925, -0.3273315, 1.01925, 0.4656489, 1.01925, -11.358779, 1.01925, -6.9389315
0.1207059, -0.0109102, 1.026, 0.1747437, 1.026, -0.9841919, 1.026, -0.3601074, 1.026, -0.9236641, 1.026, -8.1755724, 1.026, -6.0152674
0.1215, -0.0109102, 1.03275, 0.2319336, 1.03275, -0.9713135, 1.03275, -0.3944092, 1.03275, -1.7175573, 1.03275, -3.8167939, 1.03275, -4.8244276
0.1222941, -0.0099031, 1.0395, 0.2436523, 1.0395, -0.9742432, 1.0395, -0.4043579, 1.0395, -2.4427481, 1.0395, 1.5801526, 1.0395, -3.5038168
0.1230882, -0.0135958, 1.04625, 0.2200317, 1.04625, -0.9815063, 1.04625, -0.3927002, 1.04625, -2.3358779, 1.04625, 6.3511453, 1.04625, -2.1908398
0.1238824, -0.01561, 1.053, 0.1693726, 1.053, -0.9869385, 1.053, -0.3740845, 1.053, -1.9694656, 1.053, 9.358779, 1.053, -0.908397
0.1246765, -0.0154421, 1.05975, 0.1063843, 1.05975, -0.9992676, 1.05975, -0.3361206, 1.05975, -1.6946565, 1.05975, 10.4045801, 1.05975, -0.259542
0.1254706, -0.0159457, 1.0665, 0.0403442, 1.0665, -1.0058594, 1.0665, -0.2988281, 1.0665, -1.129771, 1.0665, 12.1068707, 1.0665, 0.4045801
0.1262647, -0.0209812, 1.07325, 0.0021973, 1.07325, -1.0038452, 1.07325, -0.2819214, 1.07325, -0.8244275, 1.07325, 13.2977095, 1.07325, 1.259542
0.1270588, -0.0243381, 1.08, -0.0656738, 1.08, -1.0062866, 1.08, -0.2538452, 1.08, -1.3129771, 1.08, 13.9541988, 1.08, 1.7175573
0.1278529, -0.0196384, 1.08675, -0.1260376, 1.08675, -1.0043945, 1.08675, -0.230957, 1.08675, -1.4503816, 1.08675, 13.7938929, 1.08675, 2.1145039
0.1286471, -0.0166171, 1.0935, -0.1773682, 1.0935, -1.0036011, 1.0935, -0.2286987, 1.0935, -2.3816793, 1.0935, 11.9312973, 1.0935, 1.6259542
0.1294412, -0.0124208, 1.10025, -0.2141724, 1.10025, -0.9971313, 1.10025, -0.2233276, 1.10025, -4.4580154, 1.10025, 8.7404585, 1.10025, 0.610687
0.1302353, -0.0082246, 1.107, -0.2293701, 1.107, -1.0072632, 1.107, -0.2161865, 1.107, -5.8244276, 1.107, 5.3740458, 1.107, -1.259542
0.1310294, -0.0068818, 1.11375, -0.2270508, 1.11375, -1.0116577, 1.11375, -0.2088623, 1.11375, -6.0076337, 1.11375, 1.4885496, 1.11375, -2.9541984
0.1318235, -0.0078889, 1.1205, -0.1965332, 1.1205, -1.0058594, 1.1205, -0.2216797, 1.1205, -6.8015265, 1.1205, -2.8625953, 1.1205, -4.8473282
0.1326176, -0.0065461, 1.12725, -0.1511841, 1.12725, -0.9977417, 1.12725, -0.2376099, 1.12725, -7.8625956, 1.12725, -6.6488547, 1.12725, -6.7557254
0.1334118, -0.0109102, 1.134, -0.1124268, 1.134, -0.9915771, 1.134, -0.2479858, 1.134, -7.9083967, 1.134, -9.0076332, 1.134, -7.7251906
0.1342059, -0.0112459, 1.14075, -0.0723267, 1.14075, -0.9846802, 1.14075, -0.2657471, 1.14075, -7.7938933, 1.14075, -9.5419846, 1.14075, -8.198473
0.135, -0.0115816, 1.1475, -0.0515747, 1.1475, -0.9807129, 1.1475, -0.2728271, 1.1475, -8.1832066, 1.1475, -9.7251911, 1.1475, -8.480916
0.1357941, -0.0097353, 1.15425, -0.0213623, 1.15425, -0.9776611, 1.15425, -0.2927246, 1.15425, -8.8091602, 1.15425, -9.2442751, 1.15425, -8.4351149
0.1365882, -0.005539, 1.161, 0.0064697, 1.161, -0.9752197, 1.161, -0.3086548, 1.161, -8.8625956, 1.161, -8.1297712, 1.161, -8.2137403
0.1373824, -0.011078, 1.16775, 0.0236206, 1.16775, -0.9814453, 1.16775, -0.3115234, 1.16775, -8.4885492, 1.16775, -6.7709923, 1.16775, -7.7709923
0.1381765, -0.0179599, 1.1745, 0.0305176, 1.1745, -0.9872437, 1.1745, -0.3190308, 1.1745, -7.8091602, 1.1745, -5.0458016, 1.1745, -7.3206105
0.1389706, -0.01561, 1.18125, 0.0258179, 1.18125, -0.9890747, 1.18125, -0.3210449, 1.18125, -7.0534353, 1.18125, -2.8167939, 1.18125, -6.4732823
0.1397647, -0.0147707, 1.188, 0.0127563, 1.188, -0.9859619, 1.188, -0.3252563, 1.188, -6.9923663, 1.188, -0.9236641, 1.188, -5.8015265
0.1405588, -0.0182956, 1.19475, -0.0032349, 1.19475, -0.9848633, 1.19475, -0.3197021, 1.19475, -6.3511453, 1.19475, 0.9389313, 1.19475, -5.1603055
0.1413529, -0.018967, 1.2015, -0.0216675, 1.2015, -0.9898682, 1.2015, -0.3093872, 1.2015, -6.0839696, 1.2015, 2.4427481, 1.2015, -4.6183205
0.1421471, -0.012253, 1.20825, -0.0418091, 1.20825, -0.9932861, 1.20825, -0.3010864, 1.20825, -5.8931298, 1.20825, 3.389313, 1.20825, -4.3435116
0.1429412, -0.0082246, 1.215, -0.0527344, 1.215, -0.9931641, 1.215, -0.2993164, 1.215, -5.6488547, 1.215, 3.8167939, 1.215, -4.3358779
0.1437353, -0.0095674, 1.22175, -0.062561, 1.22175, -0.9924316, 1.22175, -0.2990112, 1.22175, -6.1068702, 1.22175, 3.908397, 1.22175, -4.4961834
0.1445294, -0.0070497, 1.2285, -0.069519, 1.2285, -0.9908447, 1.2285, -0.3025513, 1.2285, -6.4580154, 1.2285, 2.7480917, 1.2285, -4.7862597
0.1453235, -0.0112459, 1.23525, -0.0776367, 1.23525, -0.9902344, 1.23525, -0.2998047, 1.23525, -6.3893127, 1.23525, 1.4503816, 1.23525, -4.9389315
0.1461176, -0.0068818, 1.242, -0.071106, 1.242, -0.9875488, 1.242, -0.3053589, 1.242, -6.7022901, 1.242, 0.1832061, 1.242, -5.2061067
0.1469118, -0.0075532, 1.24875, -0.0641479, 1.24875, -0.9961548, 1.24875, -0.3088379, 1.24875, -6.8320613, 1.24875, -0.8778626, 1.24875, -5.3511453
0.1477059, -0.0198062, 1.2555, -0.0577393, 1.2555, -1.0021362, 1.2555, -0.3028564, 1.2555, -6.3511453, 1.2555, -0.9541985, 1.2555, -5.6412215
0.1485, -0.0224918, 1.26225, -0.0549316, 1.26225, -0.9989014, 1.26225, -0.3069458, 1.26225, -6.0610685, 1.26225, -0.7557252, 1.26225, -5.5877862
0.1492941, -0.0162814, 1.269, -0.0527954, 1.269, -0.9906006, 1.269, -0.3088989, 1.269, -5.9389315, 1.269, -0.389313, 1.269, -5.259542
0.1500882, -0.0139315, 1.27575, -0.0499878, 1.27575, -0.9819336, 1.27575, -0.3143921, 1.27575, -5.4961834, 1.27575, -0.5801527, 1.27575, -5.0763359
0.1508824, -0.0157778, 1.2825, -0.0599976, 1.2825, -0.9789429, 1.2825, -0.3149414, 1.2825, -5.2824426, 1.2825, -0.480916, 1.2825, -5.221374
0.1516765, -0.0132601, 1.28925, -0.0571289, 1.28925, -0.9796753, 1.28925, -0.317749, 1.28925, -5.1908398, 1.28925, -1.038168, 1.28925, -5.5267177
0.1524706, -0.0142672, 1.296, -0.0576782, 1.296, -0.9807129, 1.296, -0.3284302, 1.296, -5.3664122, 1.296, -1.389313, 1.296, -5.7099237
0.1532647, -0.018967, 1.30275, -0.0535889, 1.30275, -0.9794312, 1.30275, -0.3309937, 1.30275, -5.6870227, 1.30275, -2.5038168, 1.30275, -5.9770994
0.1540588, -0.0196384, 1.3095, -0.0430908, 1.3095, -0.9760742, 1.3095, -0.3325195, 1.3095, -4.9923663, 1.3095, -2.908397, 1.3095, -5.9541984
0.1548529, -0.0152743, 1.31625, -0.0322876, 1.31625, -0.9746704, 1.31625, -0.3339233, 1.31625, -4.6335878, 1.31625, -2.961832, 1.31625, -5.9160304
0.1556471, -0.0135958, 1.323, -0.022644, 1.323, -0.975647, 1.323, -0.3422852, 1.323, -4.7709923, 1.323, -2.2061069, 1.323, -5.6488547
0.1564412, -0.0176242, 1.32975, -0.0223999, 1.32975, -0.9783936, 1.32975, -0.340332, 1.32975, -4.3358779, 1.32975, -1.0534351, 1.32975, -5.3282442
0.1572353, -0.0213169, 1.3365, -0.0241089, 1.3365, -0.9780884, 1.3365, -0.3434448, 1.3365, -4.2900763, 1.3365, 0.4045801, 1.3365, -4.9236641
0.1580294, -0.0223239, 1.34325, -0.0224609, 1.34325, -0.9780273, 1.34325, -0.3605957, 1.34325, -3.8091602, 1.34325, 1.8091604, 1.34325, -4.2824426
0.1588235, -0.0219883, 1.35, -0.0184326, 1.35, -0.9776611, 1.35, -0.366394, 1.35, -4.3206105, 1.35, 3.3206108, 1.35, -3.7328243
0.1596176, -0.0204776, 1.35675, -0.0333252, 1.35675, -0.9816895, 1.35675, -0.3433228, 1.35675, -4.9083967, 1.35675, 3.5648854, 1.35675, -3.8473282
0.1604118, -0.017792, 1.3635, -0.057373, 1.3635, -0.9828491, 1.3635, -0.3329468, 1.3635, -4.7633586, 1.3635, 3.0687022, 1.3635, -3.7099237
0.1612059, -0.0149386, 1.37025, -0.0700684, 1.37025, -0.9796753, 1.37025, -0.3399048, 1.37025, -5.0229006, 1.37025, 2.5648854, 1.37025, -3.908397
0.162, -0.0142672, 1.377, -0.0726318, 1.377, -0.9796143, 1.377, -0.3459473, 1.377, -4.9770994, 1.377, 1.8167939, 1.377, -4.0916033
0.1627941, -0.0179599, 1.38375, -0.0730591, 1.38375, -0.9766235, 1.38375, -0.3425903, 1.38375, -4.4732823, 1.38375, 1.1679389, 1.38375, -4.6030536
0.1635882, -0.0129244, 1.3905, -0.0679321, 1.3905, -0.9820557, 1.3905, -0.3400269, 1.3905, -4.1450381, 1.3905, -0.1450382, 1.3905, -4.8320613
0.1643824, -0.0102388, 1.39725, -0.0668335, 1.39725, -0.9845581, 1.39725, -0.3328857, 1.39725, -3.8549619, 1.39725, -1.2137405, 1.39725, -4.9389315
0.1651765, -0.0075532, 1.404, -0.0567627, 1.404, -0.9923096, 1.404, -0.3319092, 1.404, -3.8167939, 1.404, -1.6641221, 1.404, -5.1297708
0.1659706, -0.0050355, 1.41075, -0.046936, 1.41075, -0.9928589, 1.41075, -0.3201904, 1.41075, -2.7938931, 1.41075, -1.3129771, 1.41075, -5.221374
0.1667647, -0.0068818, 1.4175, -0.0456543, 1.4175, -0.9875488, 1.4175, -0.3259888, 1.4175, -1.961832, 1.4175, -0.0305344, 1.4175, -4.9007635
0.1675588, -0.0092317, 1.42425, -0.0401611, 1.42425, -0.9799805, 1.42425, -0.3261719, 1.42425, -1.8167939, 1.42425, 0.6870229, 1.42425, -4.6564884
0.1683529, -0.0095674, 1.431, -0.0409546, 1.431, -0.9810791, 1.431, -0.329834, 1.431, -1.221374, 1.431, -0.1068702, 1.431, -4.5419846
0.1691471, -0.0102388, 1.43775, -0.043335, 1.43775, -0.9856567, 1.43775, -0.3202515, 1.43775, -1.2977099, 1.43775, -0.1832061, 1.43775, -4.5725193
0.1699412, -0.0132601, 1.4445, -0.0376587, 1.4445, -0.9873047, 1.4445, -0.3306274, 1.4445, -1.2977099, 1.4445, 0.2519084, 1.4445, -4.6946564
0.1707353, -0.0151064, 1.45125, -0.0322266, 1.45125, -0.9875488, 1.45125, -0.3306885, 1.45125, -1.389313, 1.45125, 0.221374, 1.45125, -4.6259542
0.1715294, -0.0124208, 1.458, -0.0300903, 1.458, -0.9853516, 1.458, -0.3283081, 1.458, -1.1984733, 1.458, 0.0152672, 1.458, -4.6793895
0.1723235, -0.0149386, 1.46475, -0.0315552, 1.46475, -0.9859619, 1.46475, -0.3214111, 1.46475, -1.0458015, 1.46475, 0.1679389, 1.46475, -4.5343513
0.1731176, -0.0135958, 1.4715, -0.0319214, 1.4715, -0.9806519, 1.4715, -0.3277588, 1.4715, -0.4503817, 1.4715, -0.0229008, 1.4715, -4.2061067
0.1739118, -0.0115816, 1.47825, -0.0289917, 1.47825, -0.9790039, 1.47825, -0.3361816, 1.47825, -0.9312977, 1.47825, 0.5877863, 1.47825, -3.7251909
0.1747059, -0.0105745, 1.485, -0.0256958, 1.485, -0.9787598, 1.485, -0.3356323, 1.485, -1.4045801, 1.485, 1.4198474, 1.485, -3.6183207
0.1755, -0.0149386, 1.49175, -0.0267334, 1.49175, -0.9837036, 1.49175, -0.3270874, 1.49175, -1.3282443, 1.49175, 1.9694656, 1.49175, -3.5496182
0.1762941, -0.0147707, 1.4985, -0.038208, 1.4985, -0.9855347, 1.4985, -0.3319092, 1.4985, -2.0152671, 1.4985, 1.2290076, 1.4985, -3.4732823
0.1770882, -0.0162814, 1.50525, -0.0541992, 1.50525, -0.9901733, 1.50525, -0.3278809, 1.50525, -1.8778626, 1.50525, 0.8549618, 1.50525, -3.2824428
0.1778824, -0.0115816, 1.512, -0.0514526, 1.512, -0.9805908, 1.512, -0.3275146, 1.512, -2.259542, 1.512, 0.1679389, 1.512, -3.3358779
0.1786765, -0.0107424, 1.51875, -0.0462646, 1.51875, -0.9804077, 1.51875, -0.3317261, 1.51875, -2.2137403, 1.51875, -0.1068702, 1.51875, -3.4656489
0.1794706, -0.0105745, 1.5255, -0.0415039, 1.5255, -0.9819336, 1.5255, -0.3288574, 1.5255, -1.8625954, 1.5255, 0.129771, 1.5255, -3.5648854
0.1802647, -0.0109102, 1.53225, -0.0370483, 1.53225, -0.984436, 1.53225, -0.3253174, 1.53225, -1.1603054, 1.53225, 0.2061069, 1.53225, -3.3664122
0.1810588, -0.0135958, 1.539, -0.0390015, 1.539, -0.9838867, 1.539, -0.3299561, 1.539, -0.3969466, 1.539, 0.5877863, 1.539, -3.0534351
0.1818529, -0.0109102, 1.54575, -0.0396118, 1.54575, -0.9874878, 1.54575, -0.324707, 1.54575, -0.9847328, 1.54575, 2.6335878, 1.54575, -2.7022901
0.1826471, -0.0124208, 1.5525, -0.0459595, 1.5525, -0.9729004, 1.5525, -0.3310547, 1.5525, -1.3282443, 1.5525, 3.6564887, 1.5525, -2.0610688
0.1834412, -0.0109102, 1.55925, -0.0500488, 1.55925, -0.9719238, 1.55925, -0.3515015, 1.55925, -1.7633588, 1.55925, 2.5114503, 1.55925, -2.1068702
0.1842353, -0.0095674, 1.566, -0.0368042, 1.566, -0.9902954, 1.566, -0.3515015, 1.566, -1.038168, 1.566, 3.5267177, 1.566, -2.2900763
0.1850294, -0.0102388, 1.57275, -0.0307007, 1.57275, -0.9908447, 1.57275, -0.3394165, 1.57275, -0.7709923, 1.57275, 7.7480917, 1.57275, -2.8778627
0.1858235, -0.0142672, 1.5795, -0.0371704, 1.5795, -0.9753418, 1.5795, -0.3374023, 1.5795, -1.0839695, 1.5795, 8.0839691, 1.5795, -3.1450381
0.1866176, -0.0161135, 1.58625, -0.0571289, 1.58625, -0.9603882, 1.58625, -0.3641968, 1.58625, -1.8244275, 1.58625, 4.6488547, 1.58625, -2.8015268
0.1874118, -0.0209812, 1.593, -0.0534668, 1.593, -0.9769287, 1.593, -0.3634033, 1.593, -2.1450381, 1.593, 3.0992367, 1.593, -2.519084
0.1882059, -0.018967, 1.59975, -0.0394287, 1.59975, -0.9935913, 1.59975, -0.3567505, 1.59975, -2.4045801, 1.59975, 3.3969467, 1.59975, -2.4656489
0.189, -0.0149386, 1.6065, -0.034668, 1.6065, -1.0006104, 1.6065, -0.3233643, 1.6065, -2.5954199, 1.6065, 3.7862597, 1.6065, -2.6946564
0.1897941, -0.0149386, 1.61325, -0.0396729, 1.61325, -0.9973145, 1.61325, -0.3099365, 1.61325, -1.9236641, 1.61325, 3.9007633, 1.61325, -2.8167939
0.1905882, -0.0159457, 1.62, -0.0436401, 1.62, -0.9884644, 1.62, -0.3069458, 1.62, -1.0229008, 1.62, 2.8473282, 1.62, -2.5572519
0.1913824, -0.0135958, 1.62675, -0.0405273, 1.62675, -0.9754639, 1.62675, -0.3103638, 1.62675, -1.5877863, 1.62675, 3.3358779, 1.62675, -2.091603
0.1921765, -0.0152743, 1.6335, -0.0388794, 1.6335, -0.9667969, 1.6335, -0.3095703, 1.6335, -1.8778626, 1.6335, 4.9083967, 1.6335, -1.8625954
0.1929706, -0.0115816, 1.64025, -0.0470581, 1.64025, -0.9693604, 1.64025, -0.2978516, 1.64025, -1.9389313, 1.64025, 5.3816795, 1.64025, -1.5954199
0.1937647, -0.0149386, 1.647, -0.0587158, 1.647, -0.9711914, 1.647, -0.2990723, 1.647, -1.740458, 1.647, 5.2442746, 1.647, -1.7480916
0.1945588, -0.0229953, 1.65375, -0.0628052, 1.65375, -0.9711914, 1.65375, -0.3018188, 1.65375, -2.1832061, 1.65375, 4.0229006, 1.65375, -2.091603
0.1953529, -0.0240024, 1.6605, -0.0584717, 1.6605, -0.9707031, 1.6605, -0.3049316, 1.6605, -2.2061069, 1.6605, 2.8244274, 1.6605, -2.0839694
0.1961471, -0.0218204, 1.66725, -0.0458984, 1.66725, -0.975769, 1.66725, -0.2973633, 1.66725, -2.0076337, 1.66725, 1.9236641, 1.66725, -2.3816793
0.1969412, -0.012253, 1.674, -0.0334473, 1.674, -0.9755859, 1.674, -0.2897339, 1.674, -2.2061069, 1.674, 1.908397, 1.674, -2.2290077
0.1977353, -0.0125887, 1.68075, -0.0198364, 1.68075, -0.972168, 1.68075, -0.2955322, 1.68075, -2.3435113, 1.68075, 1.9847329, 1.68075, -2.1908398
0.1985294, -0.0149386, 1.6875, -0.0053711, 1.6875, -0.9711914, 1.6875, -0.3005981, 1.6875, -2.1068702, 1.6875, 1.9312977, 1.6875, -1.7938931
0.1993235, -0.012253, 1.69425, -0.00354, 1.69425, -0.9729614, 1.69425, -0.2985229, 1.69425, -2.6412213, 1.69425, 2.8625953, 1.69425, -1.1908396
0.2001176, -0.0097353, 1.701, 0.0015869, 1.701, -0.9716797, 1.701, -0.2904663, 1.701, -2.5725191, 1.701, 4.0763359, 1.701, -0.5954198
0.2009118, -0.008896, 1.70775, 0.0058594, 1.70775, -0.9694214, 1.70775, -0.2880249, 1.70775, -2.7480917, 1.70775, 4.5419846, 1.70775, 0.1374046
0.2017059, -0.0099031, 1.7145, 0.0036011, 1.7145, -0.9729614, 1.7145, -0.2965088, 1.7145, -3.259542, 1.7145, 5.7557254, 1.7145, 0.6564885
0.2025, -0.0135958, 1.72125, 0.0037842, 1.72125, -0.9741211, 1.72125, -0.2970581, 1.72125, -3.1908398, 1.72125, 6.5419846, 1.72125, 1.389313
0.2032941, -0.0172885, 1.728, -0.0097046, 1.728, -0.9735718, 1.728, -0.302124, 1.728, -3.3435113, 1.728, 6.5267177, 1.728, 1.4351145
0.2040882, -0.0176242, 1.73475, -0.032959, 1.73475, -0.9710083, 1.73475, -0.3051147, 1.73475, -3.4732823, 1.73475, 5.9847326, 1.73475, 1.5648855
0.2048824, -0.01561, 1.7415, -0.0438843, 1.7415, -0.9680786, 1.7415, -0.3206177, 1.7415, -3.8778627, 1.7415, 4.9770994, 1.7415, 1.5114504
0.2056765, -0.01561, 1.74825, -0.0549927, 1.74825, -0.9645386, 1.74825, -0.3296509, 1.74825, -3.9160306, 1.74825, 3.9312978, 1.74825, 1.2748091
0.2064706, -0.01561, 1.755, -0.059082, 1.755, -0.9648438, 1.755, -0.3375244, 1.755, -3.6183207, 1.755, 2.9389312, 1.755, 0.6412213
0.2072647, -0.0159457, 1.76175, -0.0560913, 1.76175, -0.9700317, 1.76175, -0.3391724, 1.76175, -3.4198472, 1.76175, 2.4274809, 1.76175, 0.3816794
0.2080588, -0.0159457, 1.7685, -0.0588989, 1.7685, -0.9674072, 1.7685, -0.3458862, 1.7685, -3.3282442, 1.7685, 1.8473282, 1.7685, 0.0839695
0.2088529, -0.0193027, 1.77525, -0.0592651, 1.77525, -0.9658203, 1.77525, -0.350769, 1.77525, -3.129771, 1.77525, 1.9770992, 1.77525, -0.0458015
0.2096471, -0.0199741, 1.782, -0.0537109, 1.782, -0.9664917, 1.782, -0.3631592, 1.782, -3.2061069, 1.782, 1.5114504, 1.782, -0.1755725
0.2104412, -0.0193027, 1.78875, -0.0648804, 1.78875, -0.9689331, 1.78875, -0.359314, 1.78875, -2.8854961, 1.78875, 2.908397, 1.78875, 0.0305344
0.2112353, -0.0203098, 1.7955, -0.0610352, 1.7955, -0.9660034, 1.7955, -0.3600464, 1.7955, -2.6564887, 1.7955, 4.3893127, 1.7955, 0.4198473
0.2120294, -0.0146029, 1.80225, -0.0521851, 1.80225, -0.9717407, 1.80225, -0.3540039, 1.80225, -2.6870229, 1.80225, 4.0687022, 1.80225, 0.4732825
0.2128235, -0.0115816, 1.809, -0.0537109, 1.809, -0.9813232, 1.809, -0.3399048, 1.809, -2.259542, 1.809, 4.2671757, 1.809, 0.2519084
0.2136176, -0.0105745, 1.81575, -0.0527954, 1.81575, -0.9820557, 1.81575, -0.3358765, 1.81575, -2.1832061, 1.81575, 4.3282442, 1.81575, 0.4885496
0.2144118, -0.0134279, 1.8225, -0.0514526, 1.8225, -0.9807739, 1.8225, -0.3394775, 1.8225, -2.259542, 1.8225, 4.0076337, 1.8225, 0.5572519
0.2152059, -0.0142672, 1.82925, -0.043457, 1.82925, -0.9724121, 1.82925, -0.3381348, 1.82925, -2.129771, 1.82925, 3.480916, 1.82925, 0.2977099
0.216, -0.01561, 1.836, -0.0466919, 1.836, -0.9692993, 1.836, -0.3380737, 1.836, -2.3053436, 1.836, 3.6183207, 1.836, 0.4351145
0.2167941, -0.014435, 1.84275, -0.0495605, 1.84275, -0.9677124, 1.84275, -0.3397217, 1.84275, -2.091603, 1.84275, 3.7328243, 1.84275, 0.4351145
0.2175882, -0.0112459, 1.8495, -0.053833, 1.8495, -0.9659424, 1.8495, -0.3419189, 1.8495, -2.2442749, 1.8495, 3.5114503, 1.8495, 0.5267175
0.2183824, -0.0115816, 1.85625, -0.0485229, 1.85625, -0.9645996, 1.85625, -0.3497314, 1.85625, -1.8244275, 1.85625, 3.2671757, 1.85625, 0.2977099
0.2191765, -0.0149386, 1.863, -0.048645, 1.863, -0.9666138, 1.863, -0.3473511, 1.863, -2.0839694, 1.863, 3.3664122, 1.863, 0.351145
0.2199706, -0.0162814, 1.86975, -0.0584106, 1.86975, -0.9671021, 1.86975, -0.34375, 1.86975, -2.1450381, 1.86975, 3.1374047, 1.86975, 0.1679389
0.2207647, -0.0191348, 1.8765, -0.0614624, 1.8765, -0.9697876, 1.8765, -0.3495483, 1.8765, -2.4961832, 1.8765, 2.4961832, 1.8765, 0.1221374
0.2215588, -0.0209812, 1.88325, -0.0634155, 1.88325, -0.9754639, 1.88325, -0.3483276, 1.88325, -2.7022901, 1.88325, 1.6564885, 1.88325, -0.2977099
0.2223529, -0.0243381, 1.89, -0.0599976, 1.89, -0.9822388, 1.89, -0.3469238, 1.89, -2.221374, 1.89, 1.778626, 1.89, -0.5648855
0.2231471, -0.0251774, 1.89675, -0.062439, 1.89675, -0.9818726, 1.89675, -0.3474731, 1.89675, -2.0839694, 1.89675, 1.6717557, 1.89675, -0.5038168
0.2239412, -0.0216526, 1.9035, -0.0654297, 1.9035, -0.9810791, 1.9035, -0.3467407, 1.9035, -2.0458016, 1.9035, 0.9007633, 1.9035, -0.3816794
0.2247353, -0.0176242, 1.91025, -0.0709229, 1.91025, -0.9794312, 1.91025, -0.3477173, 1.91025, -2.5954199, 1.91025, 0.1984733, 1.91025, -0.5496183
0.2255294, -0.0193027, 1.917, -0.0743408, 1.917, -0.9816895, 1.917, -0.3546753, 1.917, -2.6259542, 1.917, 0.1908397, 1.917, -0.5725191
0.2263235, -0.018967, 1.92375, -0.0740967, 1.92375, -0.9805908, 1.92375, -0.3546143, 1.92375, -2.8549619, 1.92375, 0.0916031, 1.92375, -0.6870229
0.2271176, -0.0139315, 1.9305, -0.0737305, 1.9305, -0.9844971, 1.9305, -0.3508911, 1.9305, -3.2061069, 1.9305, -0.1832061, 1.9305, -0.740458
0.2279118, -0.0109102, 1.93725, -0.0776978, 1.93725, -0.9813232, 1.93725, -0.3460083, 1.93725, -2.6259542, 1.93725, -0.2824427, 1.93725, -1.091603
0.2287059, -0.0112459, 1.944, -0.076416, 1.944, -0.9717407, 1.944, -0.3589478, 1.944, -2.5419848, 1.944, -1.0534351, 1.944, -1.0458015
0.2295, -0.0226596, 1.95075, -0.0708008, 1.95075, -0.9730225, 1.95075, -0.362793, 1.95075, -2.9923663, 1.95075, -1.7480916, 1.95075, -1.2824427
0.2302941, -0.0243381, 1.9575, -0.0666504, 1.9575, -0.9732056, 1.9575, -0.3574219, 1.9575, -2.480916, 1.9575, -1.9236641, 1.9575, -1.3816794
0.2310882, -0.0209812, 1.96425, -0.0606079, 1.96425, -0.9719849, 1.96425, -0.3579102, 1.96425, -2.3358779, 1.96425, -2.0610688, 1.96425, -1.5114504
0.2318824, -0.0142672, 1.971, -0.0541382, 1.971, -0.9671631, 1.971, -0.361084, 1.971, -2.1984732, 1.971, -2.480916, 1.971, -1.7175573
0.2326765, -0.0082246, 1.97775, -0.0466919, 1.97775, -0.9673462, 1.97775, -0.3618774, 1.97775, -2.1145039, 1.97775, -1.7862595, 1.97775, -1.6717557
0.2334706, -0.0092317, 1.9845, -0.0484619, 1.9845, -0.9654541, 1.9845, -0.3574829, 1.9845, -1.6335878, 1.9845, -0.610687, 1.9845, -1.3282443
0.2342647, -0.0112459, 1.99125, -0.0476685, 1.99125, -0.9672241, 1.99125, -0.3673096, 1.99125, -1.519084, 1.99125, -0.0916031, 1.99125, -1.351145
0.2350588, -0.0137636, 1.998, -0.0534058, 1.998, -0.9638062, 1.998, -0.3613892, 1.998, -1.2900764, 1.998, 1.1450381, 1.998, -0.9389313
0.2358529, -0.0149386, 2.00475, -0.0524292, 2.00475, -0.961731, 2.00475, -0.3591309, 2.00475, -1.3129771, 2.00475, 1.3435115, 2.00475, -0.7862595
0.2366471, -0.012253, 2.0115, -0.0581055, 2.0115, -0.9698486, 2.0115, -0.3531494, 2.0115, -0.8244275, 2.0115, 1.4198474, 2.0115, -0.8778626
0.2374412, -0.008896, 2.01825, -0.0631104, 2.01825, -0.9698486, 2.01825, -0.3549194, 2.01825, -0.7862595, 2.01825, 1.2519084, 2.01825, -0.7480916
0.2382353, -0.0129244, 2.025, -0.0629883, 2.025, -0.9683228, 2.025, -0.3521729, 2.025, -1.091603, 2.025, 0.6030535, 2.025, -0.8167939
0.2390294, -0.012253, 2.03175, -0.0648193, 2.03175, -0.97229, 2.03175, -0.3530884, 2.03175, -0.7175573, 2.03175, 0.5419847, 2.03175, -0.9160305
0.2398235, -0.0137636, 2.0385, -0.0613403, 2.0385, -0.9706421, 2.0385, -0.3552856, 2.0385, -1.389313, 2.0385, 0.3740458, 2.0385, -1.1145039
0.2406176, -0.0182956, 2.04525, -0.0654907, 2.04525, -0.97229, 2.04525, -0.3522339, 2.04525, -1.5038168, 2.04525, 0.0229008, 2.04525, -1.0763359
0.2414118, -0.0176242, 2.052, -0.0633545, 2.052, -0.9729004, 2.052, -0.3555298, 2.052, -1.5801526, 2.052, -0.1832061, 2.052, -1.2442749
0.2422059, -0.0179599, 2.05875, -0.0564575, 2.05875, -0.972229, 2.05875, -0.3578491, 2.05875, -1.4427481, 2.05875, 0.1526718, 2.05875, -1.1450381
0.243, -0.0186313, 2.0655, -0.0546875, 2.0655, -0.9734497, 2.0655, -0.3556519, 2.0655, -1.4580153, 2.0655, 0.389313, 2.0655, -1.1832061
0.2437941, -0.0152743, 2.07225, -0.0535278, 2.07225, -0.9708252, 2.07225, -0.3531494, 2.07225, -1.351145, 2.07225, 0.519084, 2.07225, -1.1908396
0.2445882, -0.0139315, 2.079, -0.050354, 2.079, -0.9661255, 2.079, -0.3591919, 2.079, -1.7099236, 2.079, 0.4656489, 2.079, -1.2290076
0.2453824, -0.0171206, 2.08575, -0.0540771, 2.08575, -0.9648438, 2.08575, -0.3600464, 2.08575, -2.0229008, 2.08575, 0.740458, 2.08575, -1.0152671
0.2461765, -0.0137636, 2.0925, -0.0547485, 2.0925, -0.9679565, 2.0925, -0.3612671, 2.0925, -1.6030535, 2.0925, 1.1526718, 2.0925, -0.740458
0.2469706, -0.0095674, 2.09925, -0.0533447, 2.09925, -0.9701538, 2.09925, -0.3563843, 2.09925, -1.480916, 2.09925, 1.5038168, 2.09925, -0.7328244
0.2477647, -0.0099031, 2.106, -0.057312, 2.106, -0.968811, 2.106, -0.354126, 2.106, -1.2900764, 2.106, 1.5496184, 2.106, -0.6412213
0.2485588, -0.012253, 2.11275, -0.0605469, 2.11275, -0.9678345, 2.11275, -0.3556519, 2.11275, -0.8473282, 2.11275, 1.2900764, 2.11275, -0.5114504
0.2493529, -0.011078, 2.1195, -0.0634766, 2.1195, -0.9661255, 2.1195, -0.3568115, 2.1195, -1.2061069, 2.1195, 1.4122137, 2.1195, -0.2061069
0.2501471, -0.0132601, 2.12625, -0.0626221, 2.12625, -0.9672241, 2.12625, -0.362915, 2.12625, -1.4580153, 2.12625, 1.480916, 2.12625, -0.0839695
0.2509412, -0.0135958, 2.133, -0.0668945, 2.133, -0.9679565, 2.133, -0.3597412, 2.133, -1.5954199, 2.133, 2.0076337, 2.133, 0.2519084
0.2517353, -0.012253, 2.13975, -0.0665283, 2.13975, -0.9710693, 2.13975, -0.3544922, 2.13975, -1.4580153, 2.13975, 2.0305343, 2.13975, 0.0229008
0.2525294, -0.0099031, 2.1465, -0.0681152, 2.1465, -0.9702759, 2.1465, -0.3591919, 2.1465, -1.3664122, 2.1465, 1.480916, 2.1465, -0.1603053
0.2533235, -0.0142672, 2.15325, -0.0743408, 2.15325, -0.9714966, 2.15325, -0.364502, 2.15325, -1.3587786, 2.15325, 1.259542, 2.15325, -0.0839695
0.2541176, -0.01561, 2.16, -0.071167, 2.16, -0.9707642, 2.16, -0.3669434, 2.16, -1.4961832, 2.16, 1.2824427, 2.16, -0.2366412
0.2549118, -0.0142672, 2.16675, -0.0714722, 2.16675, -0.9661865, 2.16675, -0.3684692, 2.16675, -1.091603, 2.16675, 1.6412214, 2.16675, -0.3053435
0.2557059, -0.0179599, 2.1735, -0.0709229, 2.1735, -0.967041, 2.1735, -0.3706055, 2.1735, -1.2366412, 2.1735, 1.4732825, 2.1735, -0.4274809
0.2565, -0.0186313, 2.18025, -0.0685425, 2.18025, -0.9666748, 2.18025, -0.3641968, 2.18025, -1.0229008, 2.18025, 1.1526718, 2.18025, -0.7175573
0.2572941, -0.0142672, 2.187, -0.0703125, 2.187, -0.9702148, 2.187, -0.3669434, 2.187, -0.908397, 2.187, 1, 2.187, -0.8015267
0.2580882, -0.0105745, 2.19375, -0.0742188, 2.19375, -0.9712524, 2.19375, -0.3700562, 2.19375, -0.7633588, 2.19375, 0.8931298, 2.19375, -0.740458
0.2588824, -0.012253, 2.2005, -0.0719604, 2.2005, -0.9694824, 2.2005, -0.3737793, 2.2005, -0.4885496, 2.2005, 0.9694657, 2.2005, -0.7557252
0.2596765, -0.0179599, 2.20725, -0.0697632, 2.20725, -0.96875, 2.20725, -0.3712158, 2.20725, -0.3358779, 2.20725, 0.8778626, 2.20725, -0.9541985
0.2604706, -0.0198062, 2.214, -0.0665894, 2.214, -0.9697266, 2.214, -0.3717651, 2.214, 0.129771, 2.214, 0.8091603, 2.214, -1.0152671
0.2612647, -0.0172885, 2.22075, -0.0675049, 2.22075, -0.9708862, 2.22075, -0.3737183, 2.22075, 0.6870229, 2.22075, 1.0839695, 2.22075, -1.0229008
0.2620588, -0.0162814, 2.2275, -0.0689697, 2.2275, -0.9667969, 2.2275, -0.3734741, 2.2275, 0.6183206, 2.2275, 1.3053435, 2.2275, -1.0610687
0.2628529, -0.0124208, 2.23425, -0.0808105, 2.23425, -0.9611816, 2.23425, -0.3741455, 2.23425, 0.3587786, 2.23425, 1.6183206, 2.23425, -1.1832061
0.2636471, -0.0115816, 2.241, -0.0822144, 2.241, -0.9586182, 2.241, -0.3726196, 2.241, 0.5267175, 2.241, 2.3206108, 2.241, -1.0687023
0.2644412, -0.0125887, 2.24775, -0.0761108, 2.24775, -0.9596558, 2.24775, -0.3706055, 2.24775, 0.221374, 2.24775, 2.0305343, 2.24775, -0.9770992
0.2652353, -0.0132601, 2.2545, -0.0710449, 2.2545, -0.9643555, 2.2545, -0.3771973, 2.2545, -0.129771, 2.2545, 1.7938931, 2.2545, -1.1374046
0.2660294, -0.0129244, 2.26125, -0.074585, 2.26125, -0.9669189, 2.26125, -0.3721313, 2.26125, -0.1908397, 2.26125, 1.9389313, 2.26125, -1.3664122
0.2668235, -0.0114137, 2.268, -0.0752563, 2.268, -0.9691162, 2.268, -0.3706055, 2.268, 0.3358779, 2.268, 1.778626, 2.268, -1.3587786
0.2676176, -0.012253, 2.27475, -0.0783081, 2.27475, -0.9692993, 2.27475, -0.3687744, 2.27475, 0.3664122, 2.27475, 1.4274809, 2.27475, -1.5496184
0.2684118, -0.012253, 2.2815, -0.0767212, 2.2815, -0.9691162, 2.2815, -0.3690186, 2.2815, 0.2977099, 2.2815, 1.3053435, 2.2815, -1.7099236
0.2692059, -0.0135958, 2.28825, -0.072937, 2.28825, -0.9680176, 2.28825, -0.3693237, 2.28825, 0.4122137, 2.28825, 1.259542, 2.28825, -1.7557251
0.27, -0.0169528, 2.295, -0.0710449, 2.295, -0.9688721, 2.295, -0.3682251, 2.295, 0.4045801, 2.295, 1.3206106, 2.295, -1.8549619
0.2707941, -0.0152743, 2.30175, -0.0723877, 2.30175, -0.9685669, 2.30175, -0.371582, 2.30175, 0.3816794, 2.30175, 1.2290076, 2.30175, -1.8091604
0.2715882, -0.012253, 2.3085, -0.0722046, 2.3085, -0.9660034, 2.3085, -0.3709106, 2.3085, 0.259542, 2.3085, 1.1450381, 2.3085, -1.7938931
0.2723824, -0.0142672, 2.31525, -0.0750122, 2.31525, -0.9680176, 2.31525, -0.3659058, 2.31525, -0.4198473, 2.31525, 1.129771, 2.31525, -1.9847329
0.2731765, -0.0162814, 2.322, -0.0759277, 2.322, -0.9683838, 2.322, -0.3603516, 2.322, -0.3053435, 2.322, 0.8473282, 2.322, -2.038168
0.2739706, -0.0115816, 2.32875, -0.0810547, 2.32875, -0.9639893, 2.32875, -0.3676758, 2.32875, -0.1374046, 2.32875, 0.4885496, 2.32875, -2.2061069
0.2747647, -0.0135958, 2.3355, -0.0805664, 2.3355, -0.9612427, 2.3355, -0.3699341, 2.3355, -0.2824427, 2.3355, 0.2442748, 2.3355, -2.259542
0.2755588, -0.01561, 2.34225, -0.0772705, 2.34225, -0.9664307, 2.34225, -0.3727417, 2.34225, -0.1755725, 2.34225, -0.0839695, 2.34225, -2.4503818
0.2763529, -0.0172885, 2.349, -0.0802612, 2.349, -0.9695435, 2.349, -0.3666992, 2.349, 0.3358779, 2.349, -0.0381679, 2.349, -2.7099237
0.2771471, -0.0132601, 2.35575, -0.0791626, 2.35575, -0.9705811, 2.35575, -0.3668213, 2.35575, 1.0229008, 2.35575, 0.8473282, 2.35575, -2.4198472
0.2779412, -0.01561, 2.3625, -0.0717163, 2.3625, -0.9676514, 2.3625, -0.3706665, 2.3625, 0.8625954, 2.3625, 0.7633588, 2.3625, -2.480916
0.2787353, -0.0162814, 2.36925, -0.0652466, 2.36925, -0.9642944, 2.36925, -0.3713989, 2.36925, 0.9312977, 2.36925, 0.351145, 2.36925, -2.8320611
0.2795294, -0.0129244, 2.376, -0.0618286, 2.376, -0.9692993, 2.376, -0.3728027, 2.376, 1.3664122, 2.376, 0.5801527, 2.376, -2.5954199
0.2803235, -0.0125887, 2.38275, -0.0671387, 2.38275, -0.9675903, 2.38275, -0.3673096, 2.38275, 1.5801526, 2.38275, 1.0610687, 2.38275, -2.4045801
0.2811176, -0.0124208, 2.3895, -0.067749, 2.3895, -0.9678955, 2.3895, -0.361084, 2.3895, 1.4045801, 2.3895, 1.2977099, 2.3895, -2.4274809
0.2819118, -0.0112459, 2.39625, -0.0685425, 2.39625, -0.9667969, 2.39625, -0.362854, 2.39625, 1.4045801, 2.39625, 1.2748091, 2.39625, -2.2366412
0.2827059, -0.0109102, 2.403, -0.0733643, 2.403, -0.9627075, 2.403, -0.3690186, 2.403, 1.1984733, 2.403, 1.3282443, 2.403, -2.4732823
0.2835, -0.0115816, 2.40975, -0.0797729, 2.40975, -0.9612427, 2.40975, -0.3707275, 2.40975, 0.8091603, 2.40975, 1.2519084, 2.40975, -2.4427481
0.2842941, -0.0104067, 2.4165, -0.0817871, 2.4165, -0.9607544, 2.4165, -0.3690186, 2.4165, 0.778626, 2.4165, 1.5877863, 2.4165, -2.2137403
0.2850882, -0.012253, 2.42325, -0.0791626, 2.42325, -0.9622803, 2.42325, -0.3726807, 2.42325, 0.5343512, 2.42325, 1.0305344, 2.42325, -2.4122138
0.2858824, -0.0169528, 2.43, -0.0753784, 2.43, -0.9692993, 2.43, -0.3649292, 2.43, 0.2900763, 2.43, 0.9694657, 2.43, -2.7099237
0.2866765, -0.012253, 2.43675, -0.0755005, 2.43675, -0.967041, 2.43675, -0.3609619, 2.43675, 0.5801527, 2.43675, 0.6183206, 2.43675, -2.9236641
0.2874706, -0.0102388, 2.4435, -0.0794678, 2.4435, -0.9688721, 2.4435, -0.3630371, 2.4435, 0.3587786, 2.4435, 0.7862595, 2.4435, -3.0534351
0.2882647, -0.011078, 2.45025, -0.0759888, 2.45025, -0.9640503, 2.45025, -0.3701172, 2.45025, 0.1374046, 2.45025, 0.5496183, 2.45025, -3.091603
0.2890588, -0.0115816, 2.457, -0.074646, 2.457, -0.9674072, 2.457, -0.3678589, 2.457, 0.4274809, 2.457, 0.2748092, 2.457, -3.091603
0.2898529, -0.0149386, 2.46375, -0.0735474, 2.46375, -0.9674072, 2.46375, -0.3701782, 2.46375, 0.5572519, 2.46375, 0.1679389, 2.46375, -3.0763359
0.2906471, -0.0176242, 2.4705, -0.0761719, 2.4705, -0.9672241, 2.4705, -0.3720703, 2.4705, 0.740458, 2.4705, -0.1679389, 2.4705, -3.1221373
0.2914412, -0.0186313, 2.47725, -0.0762329, 2.47725, -0.9668579, 2.47725, -0.3731079, 2.47725, 0.8931298, 2.47725, -0.0763359, 2.47725, -3.2366412
0.2922353, -0.0203098, 2.484, -0.0809937, 2.484, -0.96698, 2.484, -0.368103, 2.484, 1.0152671, 2.484, 0.8320611, 2.484, -3.1526718
0.2930294, -0.0162814, 2.49075, -0.0770264, 2.49075, -0.9644165, 2.49075, -0.3670654, 2.49075, 1.1832061, 2.49075, 1.0839695, 2.49075, -2.8549619
0.2938235, -0.0209812, 2.4975, -0.0741577, 2.4975, -0.9686279, 2.4975, -0.3649902, 2.4975, 1.3587786, 2.4975, 1.0534351, 2.4975, -3.2748091
0.2946176, -0.0256809, 2.50425, -0.0744629, 2.50425, -0.9680176, 2.50425, -0.3621826, 2.50425, 1.6412214, 2.50425, 0.7938932, 2.50425, -3.1450381
0.2954118, -0.0203098, 2.511, -0.0783081, 2.511, -0.963562, 2.511, -0.366394, 2.511, 1.6412214, 2.511, 0.389313, 2.511, -3.3053436
0.2962059, -0.0142672, 2.51775, -0.0776978, 2.51775, -0.968689, 2.51775, -0.368103, 2.51775, 1.7709924, 2.51775, 0.5954198, 2.51775, -3.5648854
0.297, -0.012253, 2.5245, -0.0735474, 2.5245, -0.9654541, 2.5245, -0.368103, 2.5245, 2.5725191, 2.5245, 0.1908397, 2.5245, -3.7251909
0.2977941, -0.0070497, 2.53125, -0.0753784, 2.53125, -0.9674683, 2.53125, -0.3622437, 2.53125, 2.4885497, 2.53125, -0.0381679, 2.53125, -3.610687
0.2985882, -0.008896, 2.538, -0.0740967, 2.538, -0.9686279, 2.538, -0.3632202, 2.538, 2.3282442, 2.538, -0.221374, 2.538, -3.648855
0.2993824, -0.0062104, 2.54475, -0.0684204, 2.54475, -0.9673462, 2.54475, -0.3632202, 2.54475, 2.4580152, 2.54475, -0.1526718, 2.54475, -3.7022901
0.3001765, -0.0041962, 2.5515, -0.0638428, 2.5515, -0.9667969, 2.5515, -0.3612061, 2.5515, 2.8625953, 2.5515, 0.4656489, 2.5515, -3.6793892
0.3009706, -0.0045319, 2.55825, -0.0631104, 2.55825, -0.9632568, 2.55825, -0.3643188, 2.55825, 2.4122138, 2.55825, 0.4122137, 2.55825, -3.7557251
0.3017647, -0.0112459, 2.565, -0.0669556, 2.565, -0.9594727, 2.565, -0.3583374, 2.565, 2.221374, 2.565, 0.2900763, 2.565, -3.7862597
0.3025588, -0.0186313, 2.57175, -0.0720215, 2.57175, -0.9597168, 2.57175, -0.3633423, 2.57175, 2.519084, 2.57175, 0.0763359, 2.57175, -3.9007633
0.3033529, -0.0204776, 2.5785, -0.0737305, 2.5785, -0.9615479, 2.5785, -0.3682251, 2.5785, 2.1221373, 2.5785, -0.1526718, 2.5785, -4.1526718
0.3041471, -0.0204776, 2.58525, -0.0744629, 2.58525, -0.9689331, 2.58525, -0.3654785, 2.58525, 1.8778626, 2.58525, -0.2290076, 2.58525, -4.3587785
0.3049412, -0.0169528, 2.592, -0.0725098, 2.592, -0.970459, 2.592, -0.3692627, 2.592, 1.7557251, 2.592, -0.7328244, 2.592, -4.5801525
0.3057353, -0.0162814, 2.59875, -0.0755615, 2.59875, -0.9742432, 2.59875, -0.3638306, 2.59875, 2, 2.59875, -0.9389313, 2.59875, -4.3282442
0.3065294, -0.0206455, 2.6055, -0.0778809, 2.6055, -0.9736938, 2.6055, -0.3688354, 2.6055, 2.0763359, 2.6055, -1.2137405, 2.6055, -4.1908398
0.3073235, -0.0213169, 2.61225, -0.0772095, 2.61225, -0.9716797, 2.61225, -0.3730469, 2.61225, 2.0458016, 2.61225, -0.740458, 2.61225, -4.4885497
0.3081176, -0.0203098, 2.619, -0.0791626, 2.619, -0.9744873, 2.619, -0.3660889, 2.619, 2.1374047, 2.619, -0.0763359, 2.619, -4.3816795
0.3089118, -0.0186313, 2.62575, -0.0807495, 2.62575, -0.9707031, 2.62575, -0.3690796, 2.62575, 2.1832061, 2.62575, 0.3969466, 2.62575, -4.4274807
0.3097059, -0.01561, 2.6325, -0.0784302, 2.6325, -0.970459, 2.6325, -0.3675537, 2.6325, 2.4580152, 2.6325, 0.2519084, 2.6325, -4.3358779
0.3105, -0.0152743, 2.63925, -0.0818481, 2.63925, -0.9661255, 2.63925, -0.367981, 2.63925, 2.5572519, 2.63925, -0.5419847, 2.63925, -4.3282442
0.3112941, -0.0139315, 2.646, -0.0834961, 2.646, -0.9698486, 2.646, -0.3692017, 2.646, 2.648855, 2.646, -0.8244275, 2.646, -4.6488547
0.3120882, -0.0125887, 2.65275, -0.0823975, 2.65275, -0.9677734, 2.65275, -0.37146, 2.65275, 2.6946564, 2.65275, -0.7251908, 2.65275, -4.7099237
0.3128824, -0.0105745, 2.6595, -0.0749512, 2.6595, -0.9653931, 2.6595, -0.3712158, 2.6595, 2.6030533, 2.6595, -1.1450381, 2.6595, -5.1755724
0.3136765, -0.0095674, 2.66625, -0.069458, 2.66625, -0.9638672, 2.66625, -0.3717041, 2.66625, 2.7938931, 2.66625, -1.2290076, 2.66625, -5.0610685
0.3144706, -0.012253, 2.673, -0.0663452, 2.673, -0.9610596, 2.673, -0.3723755, 2.673, 2.8091602, 2.673, -0.9770992, 2.673, -5.0076337
0.3152647, -0.0099031, 2.67975, -0.0603638, 2.67975, -0.9630737, 2.67975, -0.3666992, 2.67975, 2.7557251, 2.67975, -0.7862595, 2.67975, -5.1603055
0.3160588, -0.0068818, 2.6865, -0.0610962, 2.6865, -0.9632568, 2.6865, -0.362854, 2.6865, 3.0152671, 2.6865, -0.2061069, 2.6865, -4.9312978
0.3168529, -0.0109102, 2.69325, -0.0576172, 2.69325, -0.9672241, 2.69325, -0.366272, 2.69325, 3.1068702, 2.69325, 0.2290076, 2.69325, -4.8931298
0.3176471, -0.0139315, 2.7, -0.0609741, 2.7, -0.9655762, 2.7, -0.3624878, 2.7, 3, 2.7, 0.5877863, 2.7, -4.8320613
0.3184412, -0.0154421, 2.70675, -0.0621338, 2.70675, -0.9667969, 2.70675, -0.3606567, 2.70675, 3.2748091, 2.70675, 1.2366412, 2.70675, -4.7480917
0.3192353, -0.0176242, 2.7135, -0.0667725, 2.7135, -0.9674683, 2.7135, -0.3610229, 2.7135, 3.2671757, 2.7135, 1.4351145, 2.7135, -4.6412215
0.3200294, -0.0176242, 2.72025, -0.074707, 2.72025, -0.9699097, 2.72025, -0.3552856, 2.72025, 3.221374, 2.72025, 1.1145039, 2.72025, -4.6030536
0.3208235, -0.0142672, 2.727, -0.0770874, 2.727, -0.9650269, 2.727, -0.3602905, 2.727, 2.9541984, 2.727, 0.6793893, 2.727, -4.5572519
0.3216176, -0.0152743, 2.73375, -0.0745239, 2.73375, -0.9689331, 2.73375, -0.3670654, 2.73375, 2.8015268, 2.73375, 0.6335878, 2.73375, -4.6488547
0.3224118, -0.0157778, 2.7405, -0.0701294, 2.7405, -0.9729614, 2.7405, -0.3646851, 2.7405, 2.8931298, 2.7405, 0.7022901, 2.7405, -4.8702292
0.3232059, -0.0124208, 2.74725, -0.0703735, 2.74725, -0.9784546, 2.74725, -0.3591919, 2.74725, 3.0687022, 2.74725, 0.5877863, 2.74725, -4.9312978
0.324, -0.0149386, 2.754, -0.0689087, 2.754, -0.9731445, 2.754, -0.3610229, 2.754, 3.389313, 2.754, 0.6412213, 2.754, -4.7862597
0.3247941, -0.0172885, 2.76075, -0.060791, 2.76075, -0.9708862, 2.76075, -0.3582764, 2.76075, 3.0076337, 2.76075, 1.0992366, 2.76075, -4.7633586
0.3255882, -0.0167849, 2.7675, -0.0583496, 2.7675, -0.9684448, 2.7675, -0.3600464, 2.7675, 3.0610688, 2.7675, 1.4351145, 2.7675, -4.3740458
0.3263824, -0.0102388, 2.77425, -0.0606079, 2.77425, -0.9682007, 2.77425, -0.3575439, 2.77425, 3.0305343, 2.77425, 1.3129771, 2.77425, -4.3740458
0.3271765, -0.011078, 2.781, -0.0612793, 2.781, -0.9677124, 2.781, -0.3562012, 2.781, 3.1221373, 2.781, 1.221374, 2.781, -4.3435116
0.3279706, -0.0162814, 2.78775, -0.0650635, 2.78775, -0.9665527, 2.78775, -0.3535767, 2.78775, 3.1221373, 2.78775, 1.2137405, 2.78775, -4.2824426
0.3287647, -0.0129244, 2.7945, -0.0629272, 2.7945, -0.9664917, 2.7945, -0.3540039, 2.7945, 3.129771, 2.7945, 1.0229008, 2.7945, -4.4274807
0.3295588, -0.0139315, 2.80125, -0.0563354, 2.80125, -0.9673462, 2.80125, -0.352478, 2.80125, 3.0992367, 2.80125, 0.9694657, 2.80125, -4.4198475
0.3303529, -0.0115816, 2.808, -0.0543213, 2.808, -0.9674072, 2.808, -0.3583984, 2.808, 3.1603053, 2.808, 1.2137405, 2.808, -4.3206105
0.3311471, -0.0087282, 2.81475, -0.0579834, 2.81475, -0.9654541, 2.81475, -0.3537598, 2.81475, 2.9312978, 2.81475, 1.6793894, 2.81475, -4.1526718
0.3319412, -0.0095674, 2.8215, -0.0616455, 2.8215, -0.965271, 2.8215, -0.3554688, 2.8215, 3.0152671, 2.8215, 2.2061069, 2.8215, -3.8167939
0.3327353, -0.012253, 2.82825, -0.0568237, 2.82825, -0.961792, 2.82825, -0.3554688, 2.82825, 2.961832, 2.82825, 2.6335878, 2.82825, -3.4885497
0.3335294, -0.0082246, 2.835, -0.0581665, 2.835, -0.9619751, 2.835, -0.3554077, 2.835, 2.8625953, 2.835, 2.480916, 2.835, -3.6259542
0.3343235, -0.0048676, 2.84175, -0.0616455, 2.84175, -0.9677124, 2.84175, -0.3484497, 2.84175, 3.1984732, 2.84175, 2.7709923, 2.84175, -3.5801528
0.3351176, -0.0085603, 2.8485, -0.0656738, 2.8485, -0.9666138, 2.8485, -0.3462524, 2.8485, 3.0687022, 2.8485, 2.648855, 2.8485, -3.5572519
0.3359118, -0.0095674, 2.85525, -0.067749, 2.85525, -0.9674683, 2.85525, -0.3498535, 2.85525, 2.9160306, 2.85525, 2.0687022, 2.85525, -3.5419848
0.3367059, -0.0102388, 2.862, -0.069397, 2.862, -0.9672852, 2.862, -0.3497925, 2.862, 3.1832061, 2.862, 2.0076337, 2.862, -3.7099237
0.3375, -0.0132601, 2.86875, -0.0663452, 2.86875, -0.9654541, 2.86875, -0.354187, 2.86875, 3.3358779, 2.86875, 2.1450381, 2.86875, -3.4503818
0.3382941, -0.0152743, 2.8755, -0.0614014, 2.8755, -0.9665527, 2.8755, -0.3531494, 2.8755, 2.9923663, 2.8755, 2.2824428, 2.8755, -3.4198472
0.3390882, -0.0162814, 2.88225, -0.0610352, 2.88225, -0.9698486, 2.88225, -0.3482666, 2.88225, 3.091603, 2.88225, 2.4580152, 2.88225, -3.4122138
0.3398824, -0.0139315, 2.889, -0.0592041, 2.889, -0.97229, 2.889, -0.3498535, 2.889, 3.2977099, 2.889, 2.7251909, 2.889, -3.351145
0.3406765, -0.0142672, 2.89575, -0.0565186, 2.89575, -0.9675293, 2.89575, -0.3482666, 2.89575, 3.0229008, 2.89575, 2.5801528, 2.89575, -3.2290077
0.3414706, -0.0172885, 2.9025, -0.0610352, 2.9025, -0.9662476, 2.9025, -0.3428955, 2.9025, 3.0458016, 2.9025, 2.4580152, 2.9025, -3.1832061
0.3422647, -0.0191348, 2.90925, -0.0628052, 2.90925, -0.9630737, 2.90925, -0.3480835, 2.90925, 2.6641221, 2.90925, 2.5572519, 2.90925, -3.0610688
0.3430588, -0.0166171, 2.916, -0.0628052, 2.916, -0.96698, 2.916, -0.3458252, 2.916, 2.6183207, 2.916, 2.5877862, 2.916, -3.1221373
0.3438529, -0.01561, 2.92275, -0.0625, 2.92275, -0.9671631, 2.92275, -0.34552, 2.92275, 2.6946564, 2.92275, 2.3358779, 2.92275, -3.0992367
0.3446471, -0.0130922, 2.9295, -0.0680542, 2.9295, -0.9691772, 2.9295, -0.3461304, 2.9295, 2.6412213, 2.9295, 2.0305343, 2.9295, -2.9694657
0.3454412, -0.0109102, 2.93625, -0.0674438, 2.93625, -0.9686279, 2.93625, -0.3447876, 2.93625, 2.5267177, 2.93625, 1.9312977, 2.93625, -3.0610688
0.3462353, -0.0125887, 2.943, -0.0679321, 2.943, -0.97229, 2.943, -0.3502808, 2.943, 2.1526718, 2.943, 1.7099236, 2.943, -2.9923663
0.3470294, -0.0151064, 2.94975, -0.0640869, 2.94975, -0.97229, 2.94975, -0.352417, 2.94975, 2.1603053, 2.94975, 1.259542, 2.94975, -2.9923663
0.3478235, -0.014435, 2.9565, -0.0680542, 2.9565, -0.9723511, 2.9565, -0.3527832, 2.9565, 2.0992367, 2.9565, 1.2748091, 2.9565, -3.0458016
0.3486176, -0.012253, 2.96325, -0.0626831, 2.96325, -0.9733276, 2.96325, -0.3533325, 2.96325, 2.1526718, 2.96325, 1.0839695, 2.96325, -2.8778627
0.3494118, -0.0159457, 2.97, -0.062561, 2.97, -0.9697266, 2.97, -0.3511353, 2.97, 1.8778626, 2.97, 0.9236641, 2.97, -2.5877862
0.3502059, -0.0166171, 2.97675, -0.0630493, 2.97675, -0.9674683, 2.97675, -0.3496094, 2.97675, 1.908397, 2.97675, 0.8091603, 2.97675, -2.6870229
0.351, -0.0142672, 2.9835, -0.0623169, 2.9835, -0.9668579, 2.9835, -0.3487549, 2.9835, 1.6183206, 2.9835, 1.0076336, 2.9835, -2.6335878
0.3517941, -0.01561, 2.99025, -0.0618896, 2.99025, -0.9674683, 2.99025, -0.3498535, 2.99025, 1.610687, 2.99025, 1.091603, 2.99025, -2.6793892
0.3525882, -0.0149386, 2.997, -0.0654297, 2.997, -0.9664917, 2.997, -0.3498535, 2.997, 1.4656489, 2.997, 1.1603054, 2.997, -2.7099237
0.3533824, -0.0169528, 3.00375, -0.0687866, 3.00375, -0.9642944, 3.00375, -0.3484497, 3.00375, 1.3969465, 3.00375, 1.0839695, 3.00375, -2.740458
0.3541765, -0.0172885, 3.0105, -0.0709229, 3.0105, -0.9638672, 3.0105, -0.3527832, 3.0105, 1.221374, 3.0105, 0.8167939, 3.0105, -2.648855
0.3549706, -0.0135958, 3.01725, -0.067627, 3.01725, -0.9683838, 3.01725, -0.350769, 3.01725, 1.3053435, 3.01725, 0.6259542, 3.01725, -2.6030533
0.3557647, -0.0157778, 3.024, -0.0637817, 3.024, -0.9703979, 3.024, -0.3501587, 3.024, 1.1450381, 3.024, 1, 3.024, -2.4580152
0.3565588, -0.018967, 3.03075, -0.0653687, 3.03075, -0.9662476, 3.03075, -0.3494873, 3.03075, 1.5419847, 3.03075, 1.0229008, 3.03075, -2.6030533
0.3573529, -0.0203098, 3.0375, -0.064209, 3.0375, -0.9656372, 3.0375, -0.3510132, 3.0375, 1.6030535, 3.0375, 0.7557252, 3.0375, -2.5801528
0.3581471, -0.0209812, 3.04425, -0.0629883, 3.04425, -0.9683838, 3.04425, -0.3560181, 3.04425, 2, 3.04425, 0.9465649, 3.04425, -2.5419848
0.3589412, -0.0209812, 3.051, -0.0625, 3.051, -0.9677124, 3.051, -0.3591919, 3.051, 2.5801528, 3.051, 1.7480916, 3.051, -2.5725191
0.3597353, -0.0203098, 3.05775, -0.0647583, 3.05775, -0.9700928, 3.05775, -0.3574219, 3.05775, 2.5954199, 3.05775, 2.0839694, 3.05775, -2.3358779
0.3605294, -0.0166171, 3.0645, -0.0686035, 3.0645, -0.9717407, 3.0645, -0.3486328, 3.0645, 2.5267177, 3.0645, 2.1526718, 3.0645, -2.6259542
0.3613235, -0.0090639, 3.07125, -0.0726929, 3.07125, -0.9719849, 3.07125, -0.3491211, 3.07125, 2.6641221, 3.07125, 2.259542, 3.07125, -2.5343511
0.3621176, -0.0135958, 3.078, -0.0670776, 3.078, -0.9728394, 3.078, -0.3531494, 3.078, 2.5801528, 3.078, 2.1755726, 3.078, -2.4351146
0.3629118, -0.0129244, 3.08475, -0.0733643, 3.08475, -0.9745483, 3.08475, -0.3519897, 3.08475, 2.4198472, 3.08475, 2.0534351, 3.08475, -2.5038168
0.3637059, -0.0095674, 3.0915, -0.0742798, 3.0915, -0.9727783, 3.0915, -0.352356, 3.0915, 2.6259542, 3.0915, 1.7251909, 3.0915, -2.5419848
0.3645, -0.0135958, 3.09825, -0.0717163, 3.09825, -0.9709473, 3.09825, -0.3481445, 3.09825, 2.3740458, 3.09825, 1.6564885, 3.09825, -2.7175572
0.3652941, -0.0176242, 3.105, -0.0689697, 3.105, -0.9703369, 3.105, -0.3504028, 3.105, 2.0610688, 3.105, 1.610687, 3.105, -2.648855
0.3660882, -0.0162814, 3.11175, -0.0722046, 3.11175, -0.9696045, 3.11175, -0.3508911, 3.11175, 1.961832, 3.11175, 1.5954199, 3.11175, -2.8931298
0.3668824, -0.0151064, 3.1185, -0.0698242, 3.1185, -0.9693604, 3.1185, -0.348938, 3.1185, 1.9694656, 3.1185, 1.5572519, 3.1185, -2.8549619
0.3676765, -0.0129244, 3.12525, -0.069397, 3.12525, -0.9706421, 3.12525, -0.347168, 3.12525, 1.870229, 3.12525, 1.8625954, 3.12525, -2.908397
0.3684706, -0.0157778, 3.132, -0.0634155, 3.132, -0.9678955, 3.132, -0.3485718, 3.132, 1.8396946, 3.132, 1.8778626, 3.132, -2.8320611
0.3692647, -0.0179599, 3.13875, -0.0641479, 3.13875, -0.9644775, 3.13875, -0.3514404, 3.13875, 1.6259542, 3.13875, 1.4656489, 3.13875, -2.778626
0.3700588, -0.0182956, 3.1455, -0.0621948, 3.1455, -0.9656982, 3.1455, -0.3505859, 3.1455, 1.7862595, 3.1455, 1.8244275, 3.1455, -2.8167939
0.3708529, -0.0203098, 3.15225, -0.0675659, 3.15225, -0.9708252, 3.15225, -0.3482666, 3.15225, 1.2671756, 3.15225, 2.0229008, 3.15225, -2.6870229
0.3716471, -0.0162814, 3.159, -0.0690308, 3.159, -0.9709473, 3.159, -0.3480225, 3.159, 1.351145, 3.159, 2.038168, 3.159, -2.7099237
0.3724412, -0.0130922, 3.16575, -0.0684814, 3.16575, -0.9716187, 3.16575, -0.3538818, 3.16575, 1.480916, 3.16575, 1.8473282, 3.16575, -2.6717558
0.3732353, -0.0085603, 3.1725, -0.0669556, 3.1725, -0.970459, 3.1725, -0.3515015, 3.1725, 1.3358779, 3.1725, 2.0763359, 3.1725, -2.5419848
0.3740294, -0.0075532, 3.17925, -0.0686646, 3.17925, -0.9707642, 3.17925, -0.3491821, 3.17925, 1.4885496, 3.17925, 2.0458016, 3.17925, -2.5343511
0.3748235, -0.0124208, 3.186, -0.0672607, 3.186, -0.9702759, 3.186, -0.3485718, 3.186, 1.7557251, 3.186, 2.2519083, 3.186, -2.6335878
0.3756176, -0.01561, 3.19275, -0.0675049, 3.19275, -0.9675293, 3.19275, -0.3540649, 3.19275, 1.6412214, 3.19275, 2.6259542, 3.19275, -2.8091602
0.3764118, -0.0176242, 3.1995, -0.0700073, 3.1995, -0.9654541, 3.1995, -0.3532715, 3.1995, 1.3435115, 3.1995, 2.5114503, 3.1995, -2.7480917
0.3772059, -0.0209812, 3.20625, -0.0701904, 3.20625, -0.96875, 3.20625, -0.350769, 3.20625, 1.4732825, 3.20625, 2.4580152, 3.20625, -2.9923663
0.378, -0.0234989, 3.213, -0.0724487, 3.213, -0.9681396, 3.213, -0.3500366, 3.213, 1.2671756, 3.213, 2.4351146, 3.213, -3.0534351
0.3787941, -0.0199741, 3.21975, -0.0707397, 3.21975, -0.9743042, 3.21975, -0.3474121, 3.21975, 0.961832, 3.21975, 2.1755726, 3.21975, -3.1526718
0.3795882, -0.0186313, 3.2265, -0.069519, 3.2265, -0.9708862, 3.2265, -0.3502808, 3.2265, 1.2977099, 3.2265, 1.778626, 3.2265, -3.1603053
0.3803824, -0.0182956, 3.23325, -0.0700073, 3.23325, -0.9682007, 3.23325, -0.352356, 3.23325, 1.2442749, 3.23325, 1.6946565, 3.23325, -3.2671757
0.3811765, -0.0152743, 3.24, -0.0655518, 3.24, -0.9685059, 3.24, -0.3504028, 3.24, 1.4351145, 3.24, 1.7022901, 3.24, -3.4198472
0.3819706, -0.0109102, 3.24675, -0.0626221, 3.24675, -0.970459, 3.24675, -0.3505859, 3.24675, 1.3435115, 3.24675, 1.9541985, 3.24675, -3.1984732
0.3827647, -0.0112459, 3.2535, -0.0637207, 3.2535, -0.9713745, 3.2535, -0.3509521, 3.2535, 1.2519084, 3.2535, 2.4732823, 3.2535, -3.0458016
0.3835588, -0.0130922, 3.26025, -0.0645752, 3.26025, -0.9705811, 3.26025, -0.3503418, 3.26025, 0.8473282, 3.26025, 2.6412213, 3.26025, -3.091603
0.3843529, -0.0092317, 3.267, -0.0689697, 3.267, -0.9693604, 3.267, -0.3482056, 3.267, 0.5038168, 3.267, 2.5419848, 3.267, -3.1908398
0.3851471, -0.0028534, 3.27375, -0.0773926, 3.27375, -0.9674072, 3.27375, -0.3497314, 3.27375, 0.6412213, 3.27375, 2.1908398, 3.27375, -3.1145039
0.3859412, 0.0062104, 3.2805, -0.0731201, 3.2805, -0.9656982, 3.2805, -0.3515015, 3.2805, 0.5725191, 3.2805, 1.6412214, 3.2805, -3.3358779
0.3867353, 0.0038605, 3.28725, -0.0748901, 3.28725, -0.9671631, 3.28725, -0.3504639, 3.28725, 0.648855, 3.28725, 1.1145039, 3.28725, -3.8320611
0.3875294, -0.0114137, 3.294, -0.0715942, 3.294, -0.9667969, 3.294, -0.3527222, 3.294, 0.8091603, 3.294, 0.5114504, 3.294, -3.6335878
0.3883235, -0.0176242, 3.30075, -0.0706787, 3.30075, -0.9689331, 3.30075, -0.3547974, 3.30075, 0.961832, 3.30075, 0.0381679, 3.30075, -3.870229
0.3891176, -0.0162814, 3.3075, -0.0720215, 3.3075, -0.97229, 3.3075, -0.3533325, 3.3075, 1.2900764, 3.3075, 0.3969466, 3.3075, -3.7099237
0.3899118, -0.0125887, 3.31425, -0.069458, 3.31425, -0.9698486, 3.31425, -0.352356, 3.31425, 1.2824427, 3.31425, 0.4274809, 3.31425, -3.6793892
0.3907059, -0.0129244, 3.321, -0.0675049, 3.321, -0.9694214, 3.321, -0.3543701, 3.321, 1.1526718, 3.321, 0.1145038, 3.321, -3.9160306
0.3915, -0.0182956, 3.32775, -0.0701904, 3.32775, -0.9719238, 3.32775, -0.355957, 3.32775, 1.2900764, 3.32775, 0.3282443, 3.32775, -3.9847329
0.3922941, -0.0253452, 3.3345, -0.0739746, 3.3345, -0.9748535, 3.3345, -0.3536987, 3.3345, 1.4961832, 3.3345, 0.221374, 3.3345, -4.1374044
0.3930882, -0.0310521, 3.34125, -0.0786743, 3.34125, -0.9747314, 3.34125, -0.3534546, 3.34125, 1.4351145, 3.34125, -0.0763359, 3.34125, -4.3435116
0.3938824, -0.0292058, 3.348, -0.0749512, 3.348, -0.9726562, 3.348, -0.3533325, 3.348, 1.2748091, 3.348, -0.2748092, 3.348, -4.4580154
0.3946765, -0.0208133, 3.35475, -0.0698853, 3.35475, -0.9682617, 3.35475, -0.3517456, 3.35475, 1.1145039, 3.35475, -0.648855, 3.35475, -4.6259542
0.3954706, -0.0092317, 3.3615, -0.0678711, 3.3615, -0.9656372, 3.3615, -0.3552856, 3.3615, 1.1450381, 3.3615, -0.8396947, 3.3615, -4.7633586
0.3962647, -0.0050355, 3.36825, -0.0634155, 3.36825, -0.9699097, 3.36825, -0.3545532, 3.36825, 1.2824427, 3.36825, -0.5648855, 3.36825, -4.778626
0.3970588, -0.0125887, 3.375, -0.0650024, 3.375, -0.9711304, 3.375, -0.3547363, 3.375, 1.1526718, 3.375, -0.3206107, 3.375, -4.8549619
0.3978529, -0.011078, 3.38175, -0.0643311, 3.38175, -0.9696655, 3.38175, -0.3502197, 3.38175, 1.2290076, 3.38175, -0.3969466, 3.38175, -4.9083967
0.3986471, -0.005539, 3.3885, -0.0671997, 3.3885, -0.9707642, 3.3885, -0.3520508, 3.3885, 1.2442749, 3.3885, -0.6870229, 3.3885, -4.961832
0.3994412, -0.0132601, 3.39525, -0.0696411, 3.39525, -0.9718628, 3.39525, -0.3519897, 3.39525, 1.1374046, 3.39525, -0.908397, 3.39525, -5.0305343
0.4002353, -0.0191348, 3.402, -0.0700073, 3.402, -0.9713745, 3.402, -0.3505249, 3.402, 1.0687023, 3.402, -1.0305344, 3.402, -5.1068702
0.4010294, -0.0193027, 3.40875, -0.0644531, 3.40875, -0.9729004, 3.40875, -0.3522339, 3.40875, 1.4580153, 3.40875, -1.0763359, 3.40875, -5.1526718
0.4018235, -0.0142672, 3.4155, -0.0671387, 3.4155, -0.9709473, 3.4155, -0.3433838, 3.4155, 1.3816794, 3.4155, -1.0534351, 3.4155, -5.1755724
0.4026176, -0.0140993, 3.42225, -0.0708618, 3.42225, -0.9741821, 3.42225, -0.3398438, 3.42225, 0.9389313, 3.42225, -0.2442748, 3.42225, -4.9847326
0.4034118, -0.0166171, 3.429, -0.0672607, 3.429, -0.9712524, 3.429, -0.3496094, 3.429, 0.7938932, 3.429, -0.1832061, 3.429, -4.8625956
0.4042059, -0.0169528, 3.43575, -0.0628662, 3.43575, -0.9742432, 3.43575, -0.3487549, 3.43575, 0.6183206, 3.43575, -0.129771, 3.43575, -5.0229006
0.405, -0.0152743, 3.4425, -0.0594482, 3.4425, -0.9772339, 3.4425, -0.3469849, 3.4425, 0.7175573, 3.4425, -0.2519084, 3.4425, -5.0229006
0.4057941, -0.0172885, 3.44925, -0.0596924, 3.44925, -0.975647, 3.44925, -0.3452148, 3.44925, 0.5648855, 3.44925, -0.1221374, 3.44925, -5
0.4065882, -0.0204776, 3.456, -0.0593872, 3.456, -0.9738159, 3.456, -0.3447266, 3.456, 0.4732825, 3.456, -0.0305344, 3.456, -4.9312978
0.4073824, -0.0176242, 3.46275, -0.0535278, 3.46275, -0.9715576, 3.46275, -0.3485718, 3.46275, 0.2748092, 3.46275, 0.2061069, 3.46275, -4.8854961
0.4081765, -0.0157778, 3.4695, -0.0534668, 3.4695, -0.9715576, 3.4695, -0.3545532, 3.4695, 0.2519084, 3.4695, 0.4122137, 3.4695, -4.8244276
0.4089706, -0.0203098, 3.47625, -0.0523682, 3.47625, -0.9706421, 3.47625, -0.3521118, 3.47625, 0.2519084, 3.47625, 0.5877863, 3.47625, -4.8015265
0.4097647, -0.0199741, 3.483, -0.0571289, 3.483, -0.9710083, 3.483, -0.3522949, 3.483, 0.3129771, 3.483, 0.8778626, 3.483, -4.7328243
0.4105588, -0.0229953, 3.48975, -0.0564575, 3.48975, -0.968811, 3.48975, -0.3519897, 3.48975, 0.4351145, 3.48975, 0.9694657, 3.48975, -4.5877862
0.4113529, -0.0209812, 3.4965, -0.0560913, 3.4965, -0.9685669, 3.4965, -0.3511963, 3.4965, 0.480916, 3.4965, 0.961832, 3.4965, -4.4656487
0.4121471, -0.0162814, 3.50325, -0.0576172, 3.50325, -0.96875, 3.50325, -0.3514404, 3.50325, 0.5038168, 3.50325, 0.8167939, 3.50325, -4.3129773
0.4129412, -0.0176242, 3.51, -0.0575562, 3.51, -0.9685669, 3.51, -0.3563232, 3.51, 0.778626, 3.51, 1.0229008, 3.51, -4.3206105
0.4137353, -0.0115816, 3.51675, -0.0546265, 3.51675, -0.9682617, 3.51675, -0.3550415, 3.51675, 0.6641222, 3.51675, 0.5572519, 3.51675, -4.4198475
0.4145294, -0.0072175, 3.5235, -0.0566406, 3.5235, -0.9671021, 3.5235, -0.3574219, 3.5235, 0.610687, 3.5235, 0.3053435, 3.5235, -4.3206105
0.4153235, -0.0085603, 3.53025, -0.0556641, 3.53025, -0.97052, 3.53025, -0.357666, 3.53025, 0.740458, 3.53025, 0.2824427, 3.53025, -4.2061067
0.4161176, -0.0068818, 3.537, -0.0553589, 3.537, -0.9718018, 3.537, -0.3582764, 3.537, 0.7709923, 3.537, 0.2442748, 3.537, -4.0839696
0.4169118, -0.0099031, 3.54375, -0.057312, 3.54375, -0.9709473, 3.54375, -0.3615723, 3.54375, 0.6946565, 3.54375, 0.1450382, 3.54375, -4.1145039
0.4177059, -0.0068818, 3.5505, -0.0597534, 3.5505, -0.9732666, 3.5505, -0.3615112, 3.5505, 0.5801527, 3.5505, 0.0381679, 3.5505, -4.038168
0.4185, -0.0063783, 3.55725, -0.0598755, 3.55725, -0.9708252, 3.55725, -0.3600464, 3.55725, 0.5572519, 3.55725, 0.4580153, 3.55725, -3.870229
0.4192941, -0.0115816, 3.564, -0.0606079, 3.564, -0.96875, 3.564, -0.3629761, 3.564, 0.9923664, 3.564, 0.9847328, 3.564, -3.7633588
0.4200882, -0.0142672, 3.57075, -0.0614014, 3.57075, -0.9683838, 3.57075, -0.3637085, 3.57075, 1.4045801, 3.57075, 1.0152671, 3.57075, -3.7862597
0.4208824, -0.0193027, 3.5775, -0.0574341, 3.5775, -0.9723511, 3.5775, -0.355957, 3.5775, 1.480916, 3.5775, 0.778626, 3.5775, -3.8396947
0.4216765, -0.01561, 3.58425, -0.0583496, 3.58425, -0.9732666, 3.58425, -0.3529663, 3.58425, 1.4732825, 3.58425, 0.9389313, 3.58425, -3.8320611
0.4224706, -0.0125887, 3.591, -0.0586548, 3.591, -0.9711304, 3.591, -0.3513794, 3.591, 1.4198474, 3.591, 0.7328244, 3.591, -3.519084
0.4232647, -0.0162814, 3.59775, -0.0568237, 3.59775, -0.9667358, 3.59775, -0.3547363, 3.59775, 1.4656489, 3.59775, 0.648855, 3.59775, -3.4961832
0.4240588, -0.0204776, 3.6045, -0.0611572, 3.6045, -0.9680176, 3.6045, -0.3539429, 3.6045, 1.1068702, 3.6045, 0.961832, 3.6045, -3.6030533
0.4248529, -0.0182956, 3.61125, -0.0601807, 3.61125, -0.9671021, 3.61125, -0.3549194, 3.61125, 1.0152671, 3.61125, 1.1755725, 3.61125, -3.259542
0.4256471, -0.0179599, 3.618, -0.0568237, 3.618, -0.9678955, 3.618, -0.3515625, 3.618, 0.7480916, 3.618, 0.8854962, 3.618, -3.3282442
0.4264412, -0.0169528, 3.62475, -0.0584106, 3.62475, -0.9699707, 3.62475, -0.3485107, 3.62475, 0.8015267, 3.62475, 0.8473282, 3.62475, -3.4961832
0.4272353, -0.0162814, 3.6315, -0.05896, 3.6315, -0.9702148, 3.6315, -0.3508301, 3.6315, 0.961832, 3.6315, 0.6183206, 3.6315, -3.1755726
0.4280294, -0.0162814, 3.63825, -0.0574951, 3.63825, -0.9690552, 3.63825, -0.3502197, 3.63825, 0.8396947, 3.63825, 0.389313, 3.63825, -3.259542
0.4288235, -0.0140993, 3.645, -0.0584717, 3.645, -0.9669189, 3.645, -0.3518677, 3.645, 0.8625954, 3.645, 0.351145, 3.645, -3.3664122
0.4296176, -0.008896, 3.65175, -0.0601807, 3.65175, -0.970459, 3.65175, -0.3526001, 3.65175, 0.778626, 3.65175, 0.1679389, 3.65175, -3.4198472
0.4304118, -0.0115816, 3.6585, -0.0566406, 3.6585, -0.9689331, 3.6585, -0.3532104, 3.6585, 1.2290076, 3.6585, -0.1221374, 3.6585, -3.3587787
0.4312059, -0.0142672, 3.66525, -0.0578003, 3.66525, -0.9671631, 3.66525, -0.3504028, 3.66525, 1.480916, 3.66525, 0.2442748, 3.66525, -3.3206108
0.432, -0.0179599, 3.672, -0.0584717, 3.672, -0.9698486, 3.672, -0.3544922, 3.672, 1.0534351, 3.672, 0.0458015, 3.672, -3.3816793
0.4327941, -0.0162814, 3.67875, -0.05896, 3.67875, -0.9708252, 3.67875, -0.3588867, 3.67875, 0.961832, 3.67875, -0.1450382, 3.67875, -3.2671757
0.4335882, -0.0125887, 3.6855, -0.0563354, 3.6855, -0.9730225, 3.6855, -0.3562012, 3.6855, 0.9923664, 3.6855, -0.0381679, 3.6855, -3.0076337
0.4343824, -0.008896, 3.69225, -0.0591431, 3.69225, -0.9741211, 3.69225, -0.3572388, 3.69225, 0.8778626, 3.69225, 0.0381679, 3.69225, -3.2442749
0.4351765, -0.0078889, 3.699, -0.0579834, 3.699, -0.9716797, 3.699, -0.3659058, 3.699, 1.2824427, 3.699, -0.1068702, 3.699, -3.2290077
0.4359706, -0.0112459, 3.70575, -0.0664673, 3.70575, -0.9708862, 3.70575, -0.3565674, 3.70575, 1.5725191, 3.70575, 0.129771, 3.70575, -3.2824428
0.4367647, -0.0085603, 3.7125, -0.0675049, 3.7125, -0.9718018, 3.7125, -0.3532104, 3.7125, 1.4885496, 3.7125, -0.0534351, 3.7125, -3.259542
0.4375588, -0.0097353, 3.71925, -0.06604, 3.71925, -0.9708252, 3.71925, -0.3565063, 3.71925, 1.4274809, 3.71925, -0.389313, 3.71925, -3.2748091
0.4383529, -0.0146029, 3.726, -0.0635986, 3.726, -0.9697266, 3.726, -0.3530884, 3.726, 1.3053435, 3.726, -0.4045801, 3.726, -3.3206108
0.4391471, -0.0157778, 3.73275, -0.0618896, 3.73275, -0.9711914, 3.73275, -0.3464966, 3.73275, 1.908397, 3.73275, 0.1984733, 3.73275, -3.1526718
0.4399412, -0.0140993, 3.7395, -0.0603638, 3.7395, -0.9710693, 3.7395, -0.3518066, 3.7395, 1.6412214, 3.7395, -0.1374046, 3.7395, -2.9541984
0.4407353, -0.0112459, 3.74625, -0.0606689, 3.74625, -0.975769, 3.74625, -0.3496704, 3.74625, 1.8015267, 3.74625, -0.7099237, 3.74625, -3.1068702
0.4415294, -0.0109102, 3.753, -0.062439, 3.753, -0.9736938, 3.753, -0.3490601, 3.753, 1.8320611, 3.753, -0.2824427, 3.753, -3.1450381
0.4423235, -0.0149386, 3.75975, -0.0595703, 3.75975, -0.972229, 3.75975, -0.3485718, 3.75975, 1.7099236, 3.75975, -0.6412213, 3.75975, -3.1908398
0.4431176, -0.0162814, 3.7665, -0.0610962, 3.7665, -0.9712524, 3.7665, -0.3493652, 3.7665, 1.6793894, 3.7665, -0.8854962, 3.7665, -3.1221373
0.4439118, -0.0152743, 3.77325, -0.0588379, 3.77325, -0.9676514, 3.77325, -0.3591919, 3.77325, 1.4656489, 3.77325, -0.7557252, 3.77325, -3.1145039
0.4447059, -0.0129244, 3.78, -0.0540161, 3.78, -0.9706421, 3.78, -0.3535767, 3.78, 1.1450381, 3.78, -0.5648855, 3.78, -2.9160306
0.4455, -0.0109102, 3.78675, -0.0567017, 3.78675, -0.9724121, 3.78675, -0.3499146, 3.78675, 1, 3.78675, -0.8091603, 3.78675, -3.0992367
0.4462941, -0.012253, 3.7935, -0.0575562, 3.7935, -0.9737549, 3.7935, -0.350769, 3.7935, 1.0992366, 3.7935, -0.8549618, 3.7935, -3.0458016
0.4470882, -0.0132601, 3.80025, -0.0578003, 3.80025, -0.9696045, 3.80025, -0.348938, 3.80025, 1.259542, 3.80025, -1.038168, 3.80025, -2.9236641
0.4478824, -0.0114137, 3.807, -0.0595703, 3.807, -0.9701538, 3.807, -0.3504639, 3.807, 1.1221374, 3.807, -1.1832061, 3.807, -2.778626
0.4486765, -0.0104067, 3.81375, -0.0575562, 3.81375, -0.9738159, 3.81375, -0.3512573, 3.81375, 0.8931298, 3.81375, -1.351145, 3.81375, -2.9389312
0.4494706, -0.012253, 3.8205, -0.0582275, 3.8205, -0.9716187, 3.8205, -0.3492432, 3.8205, 1.1221374, 3.8205, -1.0229008, 3.8205, -2.9541984
0.4502647, -0.008896, 3.82725, -0.0614014, 3.82725, -0.9702148, 3.82725, -0.3479614, 3.82725, 1.0992366, 3.82725, -0.6183206, 3.82725, -2.8931298
0.4510588, -0.0147707, 3.834, -0.0610962, 3.834, -0.963501, 3.834, -0.348938, 3.834, 1, 3.834, -0.740458, 3.834, -2.5801528
0.4518529, -0.0198062, 3.84075, -0.0620728, 3.84075, -0.9636841, 3.84075, -0.3530884, 3.84075, 0.8854962, 3.84075, -1.1526718, 3.84075, -2.8167939
0.4526471, -0.0166171, 3.8475, -0.0609741, 3.8475, -0.9659424, 3.8475, -0.3504028, 3.8475, 0.8015267, 3.8475, -1.0076336, 3.8475, -2.7480917
0.4534412, -0.0142672, 3.85425, -0.0601196, 3.85425, -0.9673462, 3.85425, -0.3514404, 3.85425, 0.9007633, 3.85425, -0.8931298, 3.85425, -2.6259542
0.4542353, -0.0072175, 3.861, -0.0610352, 3.861, -0.9702148, 3.861, -0.3502197, 3.861, 1.038168, 3.861, -0.7633588, 3.861, -2.7709923
0.4550294, -0.0104067, 3.86775, -0.0599976, 3.86775, -0.9658203, 3.86775, -0.3516235, 3.86775, 1.4198474, 3.86775, -0.7175573, 3.86775, -2.6030533
0.4558235, -0.0203098, 3.8745, -0.0568848, 3.8745, -0.9630737, 3.8745, -0.3563232, 3.8745, 1.389313, 3.8745, -0.610687, 3.8745, -2.5496182
0.4566176, -0.0231632, 3.88125, -0.0579224, 3.88125, -0.9693604, 3.88125, -0.3566895, 3.88125, 1.3282443, 3.88125, -0.389313, 3.88125, -2.6259542
0.4574118, -0.0236667, 3.888, -0.0608521, 3.888, -0.9711304, 3.888, -0.3503418, 3.888, 1.1221374, 3.888, -0.1603053, 3.888, -2.610687
0.4582059, -0.0229953, 3.89475, -0.0620117, 3.89475, -0.967041, 3.89475, -0.3479004, 3.89475, 0.9923664, 3.89475, -0.0152672, 3.89475, -2.5801528
0.459, -0.0182956, 3.9015, -0.0651855, 3.9015, -0.9673462, 3.9015, -0.3491211, 3.9015, 0.7022901, 3.9015, 0.0076336, 3.9015, -2.5496182
0.4597941, -0.0119173, 3.90825, -0.0653687, 3.90825, -0.9671021, 3.90825, -0.3510742, 3.90825, 0.4503817, 3.90825, -0.1679389, 3.90825, -2.610687
0.4605882, -0.0112459, 3.915, -0.0657349, 3.915, -0.9716187, 3.915, -0.3502197, 3.915, 0.3435115, 3.915, -0.4961832, 3.915, -2.7099237
0.4613824, -0.0102388, 3.92175, -0.0675049, 3.92175, -0.9736328, 3.92175, -0.3475952, 3.92175, 0.1908397, 3.92175, -0.221374, 3.92175, -2.6412213
0.4621765, -0.0109102, 3.9285, -0.0661621, 3.9285, -0.9731445, 3.9285, -0.3476562, 3.9285, 0.2671756, 3.9285, -0.129771, 3.9285, -2.648855
0.4629706, -0.012253, 3.93525, -0.0613403, 3.93525, -0.9708862, 3.93525, -0.3480835, 3.93525, 0.1221374, 3.93525, -0.2671756, 3.93525, -2.5572519
0.4637647, -0.0135958, 3.942, -0.0645752, 3.942, -0.9696655, 3.942, -0.3478394, 3.942, 0.2061069, 3.942, -0.1603053, 3.942, -2.6946564
0.4645588, -0.0169528, 3.94875, -0.0649414, 3.94875, -0.9731445, 3.94875, -0.3456421, 3.94875, 0.0763359, 3.94875, -0.2824427, 3.94875, -2.6870229
0.4653529, -0.0142672, 3.9555, -0.0675659, 3.9555, -0.9696045, 3.9555, -0.3532715, 3.9555, 0.129771, 3.9555, 0.0763359, 3.9555, -2.6641221
0.4661471, -0.0146029, 3.96225, -0.0678101, 3.96225, -0.9671631, 3.96225, -0.3526001, 3.96225, 0.1221374, 3.96225, 0.1526718, 3.96225, -2.7557251
0.4669412, -0.0172885, 3.969, -0.0670166, 3.969, -0.9664917, 3.969, -0.3508911, 3.969, -0.0381679, 3.969, 0.0763359, 3.969, -2.8473282
0.4677353, -0.0166171, 3.97575, -0.0669556, 3.97575, -0.970459, 3.97575, -0.3533936, 3.97575, 0.2671756, 3.97575, 0.259542, 3.97575, -2.8931298
0.4685294, -0.0209812, 3.9825, -0.0656128, 3.9825, -0.968689, 3.9825, -0.3545532, 3.9825, 0.2290076, 3.9825, 0.6946565, 3.9825, -2.9160306
0.4693235, -0.018967, 3.98925, -0.0653076, 3.98925, -0.9682007, 3.98925, -0.3549805, 3.98925, 0.0610687, 3.98925, 1.1603054, 3.98925, -2.9465649
0.4701176, -0.018967, 3.996, -0.0634766, 3.996, -0.96875, 3.996, -0.352356, 3.996, 0.1526718, 3.996, 1.778626, 3.996, -2.8931298
0.4709118, -0.0199741, 4.00275, -0.06604, 4.00275, -0.9679565, 4.00275, -0.3555298, 4.00275, 0.3053435, 4.00275, 2.221374, 4.00275, -2.8396947
0.4717059, -0.0186313, 4.0095, -0.064209, 4.0095, -0.96875, 4.0095, -0.3545532, 4.0095, -0.0076336, 4.0095, 1.961832, 4.0095, -3.0534351
0.4725, -0.0182956, 4.01625, -0.0628052, 4.01625, -0.9656982, 4.01625, -0.354187, 4.01625, 0.1450382, 4.01625, 2.091603, 4.01625, -2.8854961
0.4732941, -0.0206455, 4.023, -0.05896, 4.023, -0.9666748, 4.023, -0.3529663, 4.023, 0.4045801, 4.023, 2.221374, 4.023, -2.9541984
0.4740882, -0.0223239, 4.02975, -0.0609131, 4.02975, -0.9692993, 4.02975, -0.3499146, 4.02975, 0.4503817, 4.02975, 2.0687022, 4.02975, -3.2137403
0.4748824, -0.0149386, 4.0365, -0.0643311, 4.0365, -0.9693604, 4.0365, -0.3494873, 4.0365, 0.4427481, 4.0365, 1.908397, 4.0365, -3.1755726
0.4756765, -0.0142672, 4.04325, -0.0653687, 4.04325, -0.9707642, 4.04325, -0.3476562, 4.04325, 0.5114504, 4.04325, 1.870229, 4.04325, -3.1374047
0.4764706, -0.0149386, 4.05, -0.065979, 4.05, -0.9696045, 4.05, -0.3460693, 4.05, 0.5877863, 4.05, 1.778626, 4.05, -3.1679389
0.4772647, -0.0142672, 4.05675, -0.0646362, 4.05675, -0.9732666, 4.05675, -0.3486938, 4.05675, 0.9770992, 4.05675, 1.4274809, 4.05675, -3.2061069
0.4780588, -0.0154421, 4.0635, -0.06604, 4.0635, -0.9702759, 4.0635, -0.3519897, 4.0635, 1.1374046, 4.0635, 1.4122137, 4.0635, -3.3206108
0.4788529, -0.0119173, 4.07025, -0.065918, 4.07025, -0.9721069, 4.07025, -0.3535767, 4.07025, 1.1755725, 4.07025, 1.3282443, 4.07025, -3.2748091
0.4796471, -0.0078889, 4.077, -0.0616455, 4.077, -0.9740601, 4.077, -0.3534546, 4.077, 1.6183206, 4.077, 1.3740458, 4.077, -3.4427481
0.4804412, -0.0102388, 4.08375, -0.0617676, 4.08375, -0.9733887, 4.08375, -0.3526611, 4.08375, 2.4885497, 4.08375, 1.4503816, 4.08375, -3.610687
0.4812353, -0.0102388, 4.0905, -0.0627441, 4.0905, -0.9716797, 4.0905, -0.3538818, 4.0905, 2.5038168, 4.0905, 1.519084, 4.0905, -3.3816793
0.4820294, -0.0112459, 4.09725, -0.0625, 4.09725, -0.9769287, 4.09725, -0.3568115, 4.09725, 2.9465649, 4.09725, 1.6335878, 4.09725, -3.519084
0.4828235, -0.0119173, 4.104, -0.0634766, 4.104, -0.9769287, 4.104, -0.3604126, 4.104, 3.2137403, 4.104, 1.5343511, 4.104, -3.3740458
0.4836176, -0.0085603, 4.11075, -0.0606079, 4.11075, -0.9768066, 4.11075, -0.3599854, 4.11075, 4.0687022, 4.11075, 1.5572519, 4.11075, -3.2900763
0.4844118, -0.0083925, 4.1175, -0.0640259, 4.1175, -0.9730835, 4.1175, -0.3581543, 4.1175, 4.3053436, 4.1175, 1.740458, 4.1175, -3.259542
0.4852059, -0.0095674, 4.12425, -0.0609131, 4.12425, -0.975708, 4.12425, -0.352478, 4.12425, 4.5648856, 4.12425, 1.7175573, 4.12425, -3.3053436
0.486, -0.0135958, 4.131, -0.0634766, 4.131, -0.9719238, 4.131, -0.3535767, 4.131, 4.5801525, 4.131, 1.0229008, 4.131, -3.1832061
0.4867941, -0.01561, 4.13775, -0.0637817, 4.13775, -0.9677124, 4.13775, -0.3598633, 4.13775, 4.0839696, 4.13775, 0.610687, 4.13775, -3.038168
0.4875882, -0.0149386, 4.1445, -0.0681763, 4.1445, -0.9674072, 4.1445, -0.3573608, 4.1445, 3.740458, 4.1445, 0.4885496, 4.1445, -3.259542
0.4883824, -0.012253, 4.15125, -0.0686035, 4.15125, -0.9614868, 4.15125, -0.3544312, 4.15125, 3.6793892, 4.15125, 0.1755725, 4.15125, -3.1908398
0.4891765, -0.0162814, 4.158, -0.067627, 4.158, -0.9644165, 4.158, -0.3552856, 4.158, 3.778626, 4.158, 0.1145038, 4.158, -3.1374047
0.4899706, -0.0209812, 4.16475, -0.0648193, 4.16475, -0.965332, 4.16475, -0.3562012, 4.16475, 3.6335878, 4.16475, -0.0381679, 4.16475, -3.2977099
0.4907647, -0.0176242, 4.1715, -0.0692749, 4.1715, -0.9645996, 4.1715, -0.352417, 4.1715, 3.7022901, 4.1715, -0.2366412, 4.1715, -3.3816793
0.4915588, -0.0139315, 4.17825, -0.0684814, 4.17825, -0.9669189, 4.17825, -0.3527832, 4.17825, 3.6717558, 4.17825, -0.5419847, 4.17825, -3.4961832
0.4923529, -0.0157778, 4.185, -0.0709839, 4.185, -0.9654541, 4.185, -0.3521118, 4.185, 3.5419848, 4.185, -0.519084, 4.185, -3.778626
0.4931471, -0.0176242, 4.19175, -0.0690308, 4.19175, -0.9653931, 4.19175, -0.3534546, 4.19175, 3.5572519, 4.19175, -0.8931298, 4.19175, -3.9389312
0.4939412, -0.0169528, 4.1985, -0.069458, 4.1985, -0.9680176, 4.1985, -0.3545532, 4.1985, 3.389313, 4.1985, -0.7480916, 4.1985, -3.7938931
0.4947353, -0.0129244, 4.20525, -0.0646362, 4.20525, -0.9702759, 4.20525, -0.3540649, 4.20525, 3.648855, 4.20525, -0.5267175, 4.20525, -3.7862597
0.4955294, -0.0129244, 4.212, -0.0681152, 4.212, -0.9737549, 4.212, -0.3521729, 4.212, 3.6183207, 4.212, -0.2442748, 4.212, -3.8320611
0.4963235, -0.0095674, 4.21875, -0.0671387, 4.21875, -0.9734497, 4.21875, -0.3491821, 4.21875, 3.6412213, 4.21875, 0.0076336, 4.21875, -3.7480917
0.4971176, -0.008896, 4.2255, -0.0682373, 4.2255, -0.9720459, 4.2255, -0.3527222, 4.2255, 3.7557251, 4.2255, -0.0305344, 4.2255, -3.6870229
0.4979118, -0.0083925, 4.23225, -0.0667725, 4.23225, -0.975647, 4.23225, -0.3560791, 4.23225, 3.8473282, 4.23225, 0.0076336, 4.23225, -3.778626
0.4987059, -0.0073854, 4.239, -0.0668335, 4.239, -0.9768066, 4.239, -0.3587036, 4.239, 4.3587785, 4.239, 0.5954198, 4.239, -3.6870229
0.4995, -0.0129244, 4.24575, -0.0656738, 4.24575, -0.9747314, 4.24575, -0.355957, 4.24575, 4.6793895, 4.24575, 1.0229008, 4.24575, -3.7251909
0.5002941, -0.0162814, 4.2525, -0.0619507, 4.2525, -0.9747925, 4.2525, -0.3530273, 4.2525, 4.6030536, 4.2525, 1.2519084, 4.2525, -3.6183207
0.5010882, -0.0169528, 4.25925, -0.0640259, 4.25925, -0.9764404, 4.25925, -0.3536377, 4.25925, 4.6488547, 4.25925, 0.9923664, 4.25925, -3.8931298
0.5018824, -0.0152743, 4.266, -0.0634766, 4.266, -0.973938, 4.266, -0.3560791, 4.266, 4.9847326, 4.266, 1.1526718, 4.266, -3.8854961
0.5026765, -0.0139315, 4.27275, -0.0598145, 4.27275, -0.9731445, 4.27275, -0.3549194, 4.27275, 5.1068702, 4.27275, 1.2824427, 4.27275, -3.9160306
0.5034706, -0.012253, 4.2795, -0.0628052, 4.2795, -0.9720459, 4.2795, -0.3588867, 4.2795, 5.1450381, 4.2795, 1.2824427, 4.2795, -3.9465649
0.5042647, -0.0162814, 4.28625, -0.0618286, 4.28625, -0.9689331, 4.28625, -0.3562622, 4.28625, 4.6870227, 4.28625, 1.1526718, 4.28625, -3.8778627
0.5050588, -0.0179599, 4.293, -0.0645142, 4.293, -0.9680786, 4.293, -0.354248, 4.293, 4.5496182, 4.293, 0.9236641, 4.293, -3.9694657
0.5058529, -0.018967, 4.29975, -0.0656128, 4.29975, -0.9699707, 4.29975, -0.348877, 4.29975, 4.2061067, 4.29975, 1.0152671, 4.29975, -3.8320611
0.5066471, -0.0182956, 4.3065, -0.0651855, 4.3065, -0.9682007, 4.3065, -0.3485107, 4.3065, 3.9847329, 4.3065, 1.0534351, 4.3065, -3.8473282
0.5074412, -0.0169528, 4.31325, -0.0675049, 4.31325, -0.9738159, 4.31325, -0.348877, 4.31325, 3.9465649, 4.31325, 0.9541985, 4.31325, -3.8854961
0.5082353, -0.0176242, 4.32, -0.0664062, 4.32, -0.9716187, 4.32, -0.3444214, 4.32, 4.1450381, 4.32, 0.9160305, 4.32, -3.961832
0.5090294, -0.0182956, 4.32675, -0.0627441, 4.32675, -0.9714966, 4.32675, -0.3428345, 4.32675, 4.1755724, 4.32675, 0.8244275, 4.32675, -4
0.5098235, -0.0146029, 4.3335, -0.0654297, 4.3335, -0.9716187, 4.3335, -0.3467407, 4.3335, 4.2519083, 4.3335, 0.6412213, 4.3335, -3.7938931
0.5106176, -0.012253, 4.34025, -0.0656738, 4.34025, -0.9683228, 4.34025, -0.3398438, 4.34025, 3.9923663, 4.34025, 0.7328244, 4.34025, -3.9312978
0.5114118, -0.0132601, 4.347, -0.0664673, 4.347, -0.9682007, 4.347, -0.3466797, 4.347, 3.5038168, 4.347, 1.091603, 4.347, -3.8320611
0.5122059, -0.0166171, 4.35375, -0.0613403, 4.35375, -0.9716797, 4.35375, -0.3477173, 4.35375, 2.7633588, 4.35375, 1.2671756, 4.35375, -3.870229
0.513, -0.0152743, 4.3605, -0.0603638, 4.3605, -0.9729004, 4.3605, -0.3438721, 4.3605, 2.2442749, 4.3605, 1.3435115, 4.3605, -3.8396947
0.5137941, -0.0115816, 4.36725, -0.0587769, 4.36725, -0.9759521, 4.36725, -0.3401489, 4.36725, 2.0458016, 4.36725, 1.3358779, 4.36725, -3.5877862
0.5145882, -0.0065461, 4.374, -0.0550537, 4.374, -0.9733887, 4.374, -0.3394775, 4.374, 2.1068702, 4.374, 1.4198474, 4.374, -3.4198472
0.5153824, -0.0078889, 4.38075, -0.0479126, 4.38075, -0.9732666, 4.38075, -0.3439331, 4.38075, 1.6870229, 4.38075, 1.4351145, 4.38075, -3.4122138
0.5161765, -0.0137636, 4.3875, -0.0475464, 4.3875, -0.9715576, 4.3875, -0.3423462, 4.3875, 1.6030535, 4.3875, 1.5648855, 4.3875, -3.2748091
0.5169706, -0.012253, 4.39425, -0.0442505, 4.39425, -0.9714355, 4.39425, -0.3406982, 4.39425, 1.6412214, 4.39425, 1.7480916, 4.39425, -2.9312978
0.5177647, -0.0109102, 4.401, -0.0502319, 4.401, -0.9732666, 4.401, -0.3398438, 4.401, 1.7175573, 4.401, 1.9465649, 4.401, -2.8549619
0.5185588, -0.0109102, 4.40775, -0.0505371, 4.40775, -0.9714355, 4.40775, -0.3397217, 4.40775, 1.4961832, 4.40775, 2.1832061, 4.40775, -2.4503818
0.5193529, -0.0082246, 4.4145, -0.0502319, 4.4145, -0.972229, 4.4145, -0.3428955, 4.4145, 1.389313, 4.4145, 2.1679389, 4.4145, -2.3435113
0.5201471, -0.005539, 4.42125, -0.0524292, 4.42125, -0.9741211, 4.42125, -0.3457031, 4.42125, 1.4580153, 4.42125, 2.3816793, 4.42125, -2.2748091
0.5209412, -0.0146029, 4.428, -0.0542603, 4.428, -0.9732056, 4.428, -0.3396606, 4.428, 1.5267175, 4.428, 2.4885497, 4.428, -2.1450381
0.5217353, -0.0216526, 4.43475, -0.0587158, 4.43475, -0.9727173, 4.43475, -0.3395386, 4.43475, 1.351145, 4.43475, 2.4503818, 4.43475, -2.1068702
0.5225294, -0.0248417, 4.4415, -0.0610352, 4.4415, -0.973938, 4.4415, -0.3391113, 4.4415, 1.1984733, 4.4415, 2.3206108, 4.4415, -1.9160305
0.5233235, -0.0250095, 4.44825, -0.0606079, 4.44825, -0.9723511, 4.44825, -0.3394775, 4.44825, 1.1068702, 4.44825, 2.4045801, 4.44825, -1.8778626
0.5241176, -0.0196384, 4.455, -0.0639038, 4.455, -0.9710083, 4.455, -0.3381958, 4.455, 1.1068702, 4.455, 2.480916, 4.455, -1.7938931
0.5249118, -0.0159457, 4.46175, -0.0620117, 4.46175, -0.9743042, 4.46175, -0.3376465, 4.46175, 1.0610687, 4.46175, 2.3282442, 4.46175, -1.7099236
0.5257059, -0.0176242, 4.4685, -0.0648193, 4.4685, -0.9726562, 4.4685, -0.3384399, 4.4685, 0.908397, 4.4685, 2.0305343, 4.4685, -1.5877863
0.5265, -0.0135958, 4.47525, -0.0613403, 4.47525, -0.97052, 4.47525, -0.3389282, 4.47525, 0.7633588, 4.47525, 2.0152671, 4.47525, -1.6793894
0.5272941, -0.0093996, 4.482, -0.0628662, 4.482, -0.970459, 4.482, -0.3400879, 4.482, 0.7557252, 4.482, 1.9847329, 4.482, -1.5725191
0.5280882, -0.0125887, 4.48875, -0.06427, 4.48875, -0.9702148, 4.48875, -0.3423462, 4.48875, 0.9465649, 4.48875, 2.1221373, 4.48875, -1.5419847
0.5288824, -0.0203098, 4.4955, -0.0628662, 4.4955, -0.972168, 4.4955, -0.3382568, 4.4955, 0.7709923, 4.4955, 1.9847329, 4.4955, -1.4656489
0.5296765, -0.0313878, 4.50225, -0.0581665, 4.50225, -0.9753418, 4.50225, -0.3382568, 4.50225, 0.7709923, 4.50225, 1.8473282, 4.50225, -1.5877863
0.5304706, -0.0364233, 4.509, -0.0598755, 4.509, -0.972168, 4.509, -0.3446655, 4.509, 0.7099237, 4.509, 1.8625954, 4.509, -1.4427481
0.5312647, -0.0280308, 4.51575, -0.0623169, 4.51575, -0.9738159, 4.51575, -0.3477173, 4.51575, 0.6259542, 4.51575, 1.908397, 4.51575, -1.4427481
0.5320588, -0.0112459, 4.5225, -0.0646362, 4.5225, -0.9759521, 4.5225, -0.3513184, 4.5225, 0.7709923, 4.5225, 1.6641221, 4.5225, -1.6946565
0.5328529, -0.0031891, 4.52925, -0.0662231, 4.52925, -0.9700317, 4.52925, -0.3482666, 4.52925, 0.8931298, 4.52925, 1.6335878, 4.52925, -1.5114504
0.5336471, -0.0008392, 4.536, -0.0674438, 4.536, -0.9710693, 4.536, -0.3496704, 4.536, 1.1526718, 4.536, 1.9389313, 4.536, -1.7938931
0.5344412, 0.0016785, 4.54275, -0.0718384, 4.54275, -0.9711304, 4.54275, -0.3515015, 4.54275, 1.1221374, 4.54275, 2.0534351, 4.54275, -1.7251909
0.5352353, -0.002182, 4.5495, -0.0739136, 4.5495, -0.9737549, 4.5495, -0.3498535, 4.5495, 0.9847328, 4.5495, 1.870229, 4.5495, -1.7557251
0.5360294, -0.0065461, 4.55625, -0.0745239, 4.55625, -0.9742432, 4.55625, -0.3501587, 4.55625, 1.129771, 4.55625, 1.6793894, 4.55625, -1.9694656
0.5368235, -0.0068818, 4.563, -0.0701294, 4.563, -0.9755249, 4.563, -0.3495483, 4.563, 1.1832061, 4.563, 1.4198474, 4.563, -1.961832
0.5376176, -0.0085603, 4.56975, -0.0709229, 4.56975, -0.9755859, 4.56975, -0.3467407, 4.56975, 1.1679389, 4.56975, 1.1374046, 4.56975, -2
0.5384118, -0.0139315, 4.5765, -0.0686646, 4.5765, -0.9755249, 4.5765, -0.3441772, 4.5765, 1.1832061, 4.5765, 0.961832, 4.5765, -2.2977099
0.5392059, -0.0193027, 4.58325, -0.0693359, 4.58325, -0.9732666, 4.58325, -0.3536987, 4.58325, 1.0610687, 4.58325, 0.6335878, 4.58325, -2.2061069
0.54, -0.0199741, 4.59, -0.0685425, 4.59, -0.9714966, 4.59, -0.3512573, 4.59, 0.5954198, 4.59, 0.9465649, 4.59, -2.2900763
0.5407941, -0.0182956, 4.59675, -0.0700684, 4.59675, -0.9685669, 4.59675, -0.3504639, 4.59675, 0.4885496, 4.59675, 0.8854962, 4.59675, -2.2061069
0.5415882, -0.0186313, 4.6035, -0.0678711, 4.6035, -0.9718018, 4.6035, -0.3491821, 4.6035, 0.648855, 4.6035, 0.8778626, 4.6035, -2.389313
0.5423824, -0.0162814, 4.61025, -0.0686035, 4.61025, -0.9696655, 4.61025, -0.3515625, 4.61025, 0.610687, 4.61025, 0.9847328, 4.61025, -2.4656489
0.5431765, -0.0129244, 4.617, -0.067627, 4.617, -0.9714355, 4.617, -0.3482666, 4.617, 0.6717557, 4.617, 1.1145039, 4.617, -2.3053436
0.5439706, -0.0104067, 4.62375, -0.065979, 4.62375, -0.9666138, 4.62375, -0.3473511, 4.62375, 0.5343512, 4.62375, 1.0610687, 4.62375, -2.1832061
0.5447647, -0.0105745, 4.6305, -0.0673828, 4.6305, -0.9695435, 4.6305, -0.34729, 4.6305, 0.5725191, 4.6305, 1.0229008, 4.6305, -2.3206108
0.5455588, -0.0162814, 4.63725, -0.0667114, 4.63725, -0.9707031, 4.63725, -0.3457642, 4.63725, 0.7251908, 4.63725, 0.7099237, 4.63725, -2.4045801
0.5463529, -0.0198062, 4.644, -0.0687866, 4.644, -0.9718628, 4.644, -0.3459473, 4.644, 0.9465649, 4.644, 0.6183206, 4.644, -2.4351146
0.5471471, -0.0196384, 4.65075, -0.0685425, 4.65075, -0.9718018, 4.65075, -0.345459, 4.65075, 1.3053435, 4.65075, 0.6641222, 4.65075, -2.5267177
0.5479412, -0.0166171, 4.6575, -0.0686646, 4.6575, -0.9698486, 4.6575, -0.3481445, 4.6575, 1.1908396, 4.6575, 0.6793893, 4.6575, -2.8015268
0.5487353, -0.0119173, 4.66425, -0.0682983, 4.66425, -0.9708862, 4.66425, -0.3486938, 4.66425, 1.0534351, 4.66425, 0.4045801, 4.66425, -2.8778627
0.5495294, -0.0112459, 4.671, -0.067627, 4.671, -0.975708, 4.671, -0.3471069, 4.671, 1.4198474, 4.671, 0.4274809, 4.671, -2.5648854
0.5503235, -0.0109102, 4.67775, -0.0679321, 4.67775, -0.9755249, 4.67775, -0.3431396, 4.67775, 1.6183206, 4.67775, 0.6412213, 4.67775, -2.8015268
0.5511176, -0.0068818, 4.6845, -0.0628052, 4.6845, -0.9721069, 4.6845, -0.3415527, 4.6845, 1.5572519, 4.6845, 0.5801527, 4.6845, -2.7938931
0.5519118, -0.0129244, 4.69125, -0.0667114, 4.69125, -0.9700928, 4.69125, -0.3452148, 4.69125, 1.5419847, 4.69125, 0.1984733, 4.69125, -2.778626
0.5527059, -0.0162814, 4.698, -0.0670166, 4.698, -0.9718018, 4.698, -0.3495483, 4.698, 1.4274809, 4.698, 0.3358779, 4.698, -2.8931298
0.5535, -0.0196384, 4.70475, -0.0675049, 4.70475, -0.9737549, 4.70475, -0.3502197, 4.70475, 1.4351145, 4.70475, 0.4045801, 4.70475, -2.7633588
0.5542941, -0.0191348, 4.7115, -0.0690918, 4.7115, -0.9749756, 4.7115, -0.3465576, 4.7115, 1.6717557, 4.7115, 0.4885496, 4.7115, -2.6641221
0.5550882, -0.0146029, 4.71825, -0.0671997, 4.71825, -0.972229, 4.71825, -0.3468628, 4.71825, 1.6641221, 4.71825, 0.519084, 4.71825, -2.870229
0.5558824, -0.0157778, 4.725, -0.0678711, 4.725, -0.9719238, 4.725, -0.3455811, 4.725, 1.7862595, 4.725, 0.5114504, 4.725, -2.8625953
0.5566765, -0.0169528, 4.73175, -0.0670776, 4.73175, -0.9684448, 4.73175, -0.3453369, 4.73175, 1.7709924, 4.73175, 0.389313, 4.73175, -2.8778627
0.5574706, -0.0162814, 4.7385, -0.0682983, 4.7385, -0.9708252, 4.7385, -0.3446655, 4.7385, 1.8320611, 4.7385, 0.2137405, 4.7385, -2.9236641
0.5582647, -0.0149386, 4.74525, -0.0697021, 4.74525, -0.9700317, 4.74525, -0.3462524, 4.74525, 1.6946565, 4.74525, 0.0152672, 4.74525, -2.7633588
0.5590588, -0.012253, 4.752, -0.0693359, 4.752, -0.973999, 4.752, -0.3486938, 4.752, 1.6717557, 4.752, -0.0992366, 4.752, -2.7709923
0.5598529, -0.0129244, 4.75875, -0.0687256, 4.75875, -0.9718018, 4.75875, -0.3478394, 4.75875, 1.8320611, 4.75875, -0.1145038, 4.75875, -2.8854961
0.5606471, -0.014435, 4.7655, -0.0678101, 4.7655, -0.9675293, 4.7655, -0.3468628, 4.7655, 2.0763359, 4.7655, -0.0992366, 4.7655, -2.9770992
0.5614412, -0.0130922, 4.77225, -0.0679321, 4.77225, -0.9720459, 4.77225, -0.3456421, 4.77225, 2.0610688, 4.77225, 0.0152672, 4.77225, -2.9694657
0.5622353, -0.0149386, 4.779, -0.0620728, 4.779, -0.9743652, 4.779, -0.3446655, 4.779, 2.038168, 4.779, 0.1603053, 4.779, -2.6335878
0.5630294, -0.0169528, 4.78575, -0.0633545, 4.78575, -0.9711914, 4.78575, -0.3510742, 4.78575, 1.8244275, 4.78575, 0.8091603, 4.78575, -2.7938931
0.5638235, -0.0135958, 4.7925, -0.0653687, 4.7925, -0.9714966, 4.7925, -0.3473511, 4.7925, 1.8244275, 4.7925, 1.480916, 4.7925, -2.7251909
0.5646176, -0.0109102, 4.79925, -0.0648193, 4.79925, -0.9703369, 4.79925, -0.3482056, 4.79925, 1.9236641, 4.79925, 1.6335878, 4.79925, -2.648855
0.5654118, -0.012253, 4.806, -0.0674438, 4.806, -0.9724121, 4.806, -0.3438721, 4.806, 1.7251909, 4.806, 1.7862595, 4.806, -2.5572519
0.5662059, -0.010071, 4.81275, -0.0679321, 4.81275, -0.9743042, 4.81275, -0.3428345, 4.81275, 1.7633588, 4.81275, 1.8244275, 4.81275, -2.5648854
0.567, -0.0045319, 4.8195, -0.0679321, 4.8195, -0.9729614, 4.8195, -0.3452759, 4.8195, 1.5725191, 4.8195, 1.7709924, 4.8195, -2.5801528
0.5677941, -0.0045319, 4.82625, -0.0701294, 4.82625, -0.9716187, 4.82625, -0.3455811, 4.82625, 1.5114504, 4.82625, 1.5496184, 4.82625, -2.5038168
0.5685882, -0.0109102, 4.833, -0.0716553, 4.833, -0.9775391, 4.833, -0.343689, 4.833, 1.5496184, 4.833, 1.7862595, 4.833, -2.5343511
0.5693824, -0.0182956, 4.83975, -0.069397, 4.83975, -0.9744263, 4.83975, -0.3410034, 4.83975, 1.8931298, 4.83975, 1.648855, 4.83975, -2.4732823
0.5701765, -0.0184634, 4.8465, -0.0686035, 4.8465, -0.9724121, 4.8465, -0.34021, 4.8465, 1.8549619, 4.8465, 1.6335878, 4.8465, -2.7099237
0.5709706, -0.0196384, 4.85325, -0.0669556, 4.85325, -0.973999, 4.85325, -0.3429565, 4.85325, 1.6183206, 4.85325, 1.4427481, 4.85325, -2.778626
0.5717647, -0.0209812, 4.86, -0.0673218, 4.86, -0.9733887, 4.86, -0.3394165, 4.86, 1.6564885, 4.86, 1.6641221, 4.86, -2.8778627
0.5725588, -0.018967, 4.86675, -0.0687256, 4.86675, -0.9724731, 4.86675, -0.3450317, 4.86675, 1.6335878, 4.86675, 2.1221373, 4.86675, -2.5496182
0.5733529, -0.0206455, 4.8735, -0.0708008, 4.8735, -0.97229, 4.8735, -0.3447876, 4.8735, 1.3435115, 4.8735, 2.4198472, 4.8735, -2.5038168
0.5741471, -0.021149, 4.88025, -0.0731812, 4.88025, -0.9700928, 4.88025, -0.343811, 4.88025, 1.3664122, 4.88025, 2.1755726, 4.88025, -2.7175572
0.5749412, -0.0179599, 4.887, -0.0740356, 4.887, -0.9724121, 4.887, -0.3433228, 4.887, 1.5343511, 4.887, 1.8091604, 4.887, -2.6412213
0.5757353, -0.0176242, 4.89375, -0.0766602, 4.89375, -0.9741211, 4.89375, -0.3417969, 4.89375, 1.4961832, 4.89375, 1.9312977, 4.89375, -2.740458
0.5765294, -0.0186313, 4.9005, -0.0743408, 4.9005, -0.9752197, 4.9005, -0.3394165, 4.9005, 1.5572519, 4.9005, 1.6259542, 4.9005, -3.0152671
0.5773235, -0.0193027, 4.90725, -0.0720825, 4.90725, -0.9754639, 4.90725, -0.3411255, 4.90725, 1.5038168, 4.90725, 1.129771, 4.90725, -3.0076337
0.5781176, -0.0164492, 4.914, -0.0668335, 4.914, -0.9750366, 4.914, -0.3448486, 4.914, 1.3740458, 4.914, 0.6717557, 4.914, -3.0992367
0.5789118, -0.0139315, 4.92075, -0.0686035, 4.92075, -0.9723511, 4.92075, -0.3397827, 4.92075, 1.6564885, 4.92075, 0.610687, 4.92075, -3.091603
0.5797059, -0.012253, 4.9275, -0.0681763, 4.9275, -0.9718018, 4.9275, -0.3394775, 4.9275, 1.5877863, 4.9275, 0.6412213, 4.9275, -3.259542
0.5805, -0.0105745, 4.93425, -0.0657959, 4.93425, -0.9730225, 4.93425, -0.3406372, 4.93425, 1.8473282, 4.93425, 0.8091603, 4.93425, -2.7251909
0.5812941, -0.0075532, 4.941, -0.0585327, 4.941, -0.9716797, 4.941, -0.3357544, 4.941, 1.7633588, 4.941, 1.2748091, 4.941, -2.8091602
0.5820882, -0.008896, 4.94775, -0.055481, 4.94775, -0.9708862, 4.94775, -0.3401489, 4.94775, 1.7480916, 4.94775, 1.3358779, 4.94775, -2.8320611
0.5828824, -0.0082246, 4.9545, -0.0604858, 4.9545, -0.973938, 4.9545, -0.3374634, 4.9545, 1.5496184, 4.9545, 1.610687, 4.9545, -2.8015268
0.5836765, -0.0031891, 4.96125, -0.0604248, 4.96125, -0.9736938, 4.96125, -0.336731, 4.96125, 1.5801526, 4.96125, 1.778626, 4.96125, -2.5038168
0.5844706, -0.0008392, 4.968, -0.0626221, 4.968, -0.9758911, 4.968, -0.3378296, 4.968, 1.5496184, 4.968, 1.9770992, 4.968, -2.480916
0.5852647, -0.0075532, 4.97475, -0.0609131, 4.97475, -0.9730835, 4.97475, -0.3387451, 4.97475, 1.519084, 4.97475, 2.2442749, 4.97475, -2.4427481
0.5860588, -0.0132601, 4.9815, -0.0629272, 4.9815, -0.9752197, 4.9815, -0.3374023, 4.9815, 1.4656489, 4.9815, 2.0534351, 4.9815, -2.6259542
0.5868529, -0.0142672, 4.98825, -0.0679321, 4.98825, -0.975647, 4.98825, -0.3375854, 4.98825, 1.4045801, 4.98825, 1.8549619, 4.98825, -2.4580152
0.5876471, -0.0104067, 4.995, -0.0691528, 4.995, -0.9718018, 4.995, -0.3393555, 4.995, 1.4351145, 4.995, 1.8015267, 4.995, -2.4122138
0.5884412, -0.0102388, 5.00175, -0.0715942, 5.00175, -0.9707642, 5.00175, -0.3447876, 5.00175, 1.4961832, 5.00175, 1.9541985, 5.00175, -2.5267177
0.5892353, -0.0182956, 5.0085, -0.0734253, 5.0085, -0.9696045, 5.0085, -0.345459, 5.0085, 1.2442749, 5.0085, 1.8396946, 5.0085, -2.5725191
0.5900294, -0.0240024, 5.01525, -0.0755005, 5.01525, -0.9720459, 5.01525, -0.3421631, 5.01525, 1.1145039, 5.01525, 1.8778626, 5.01525, -2.7099237
0.5908235, -0.021149, 5.022, -0.0738525, 5.022, -0.9732056, 5.022, -0.3433838, 5.022, 1.2977099, 5.022, 1.8473282, 5.022, -2.8167939
0.5916176, -0.0135958, 5.02875, -0.0695801, 5.02875, -0.9744873, 5.02875, -0.3403931, 5.02875, 1.4885496, 5.02875, 1.6717557, 5.02875, -2.9007633
0.5924118, -0.0152743, 5.0355, -0.0681763, 5.0355, -0.9731445, 5.0355, -0.3400879, 5.0355, 1.4656489, 5.0355, 1.6641221, 5.0355, -2.7022901
0.5932059, -0.0231632, 5.04225, -0.0632935, 5.04225, -0.9736328, 5.04225, -0.3393555, 5.04225, 1.4656489, 5.04225, 1.7557251, 5.04225, -2.7175572
0.594, -0.0270237, 5.049, -0.0598755, 5.049, -0.979187, 5.049, -0.3381348, 5.049, 1.5038168, 5.049, 1.8091604, 5.049, -2.6717558
0.5947941, -0.0218204, 5.05575, -0.05896, 5.05575, -0.9815063, 5.05575, -0.3366699, 5.05575, 1.5114504, 5.05575, 1.8549619, 5.05575, -2.5954199
0.5955882, -0.0176242, 5.0625, -0.064209, 5.0625, -0.9747314, 5.0625, -0.3379517, 5.0625, 1.740458, 5.0625, 1.9847329, 5.0625, -2.6030533
0.5963824, -0.01561, 5.06925, -0.0639038, 5.06925, -0.9726562, 5.06925, -0.3380127, 5.06925, 1.5954199, 5.06925, 1.8549619, 5.06925, -2.351145
0.5971765, -0.012253, 5.076, -0.0648193, 5.076, -0.9677124, 5.076, -0.3383179, 5.076, 1.4885496, 5.076, 1.870229, 5.076, -2.2061069
0.5979706, -0.0072175, 5.08275, -0.0629883, 5.08275, -0.9676514, 5.08275, -0.3384399, 5.08275, 1.5877863, 5.08275, 2.1526718, 5.08275, -2.2824428
0.5987647, -0.0075532, 5.0895, -0.0627441, 5.0895, -0.9707642, 5.0895, -0.3381348, 5.0895, 1.6412214, 5.0895, 2.0839694, 5.0895, -2.2824428
0.5995588, -0.0152743, 5.09625, -0.0635986, 5.09625, -0.9703369, 5.09625, -0.34021, 5.09625, 1.648855, 5.09625, 1.870229, 5.09625, -2.2290077
0.6003529, -0.0109102, 5.103, -0.0661011, 5.103, -0.9649048, 5.103, -0.3423462, 5.103, 1.7099236, 5.103, 1.8473282, 5.103, -2.221374
0.6011471, -0.005539, 5.10975, -0.0656128, 5.10975, -0.9672852, 5.10975, -0.3405151, 5.10975, 1.5343511, 5.10975, 1.8931298, 5.10975, -2.2137403
0.6019412, -0.008896, 5.1165, -0.0682373, 5.1165, -0.9677124, 5.1165, -0.336853, 5.1165, 1.610687, 5.1165, 2, 5.1165, -1.9465649
0.6027353, -0.0075532, 5.12325, -0.0650635, 5.12325, -0.9713745, 5.12325, -0.3359375, 5.12325, 1.7022901, 5.12325, 2.4961832, 5.12325, -1.9007634
0.6035294, -0.0048676, 5.13, -0.067627, 5.13, -0.9794922, 5.13, -0.336853, 5.13, 1.519084, 5.13, 2.8244274, 5.13, -1.7709924
0.6043235, -0.0001678, 5.13675, -0.0672607, 5.13675, -0.9741211, 5.13675, -0.3360596, 5.13675, 1.6946565, 5.13675, 2.7633588, 5.13675, -1.8015267
0.6051176, 0.0043641, 5.1435, -0.0730591, 5.1435, -0.9749146, 5.1435, -0.3394165, 5.1435, 1.5496184, 5.1435, 2.5572519, 5.1435, -1.8931298
0.6059118, 0.0001678, 5.15025, -0.0688477, 5.15025, -0.9747925, 5.15025, -0.3374023, 5.15025, 1.480916, 5.15025, 2.3740458, 5.15025, -1.908397
0.6067059, -0.0082246, 5.157, -0.0667725, 5.157, -0.9751587, 5.157, -0.3361816, 5.157, 1.6030535, 5.157, 2.4580152, 5.157, -1.9694656
0.6075, -0.0223239, 5.16375, -0.0638428, 5.16375, -0.9717407, 5.16375, -0.3369141, 5.16375, 1.5877863, 5.16375, 2.6564887, 5.16375, -1.9312977
0.6082941, -0.0417945, 5.1705, -0.0662842, 5.1705, -0.9728394, 5.1705, -0.3400269, 5.1705, 1.5572519, 5.1705, 2.6641221, 5.1705, -1.8854961
0.6090882, -0.0473335, 5.17725, -0.0641479, 5.17725, -0.9749146, 5.17725, -0.3432617, 5.17725, 1.7022901, 5.17725, 2.778626, 5.17725, -1.8396946
0.6098824, -0.0475013, 5.184, -0.0669556, 5.184, -0.9717407, 5.184, -0.3403931, 5.184, 1.5877863, 5.184, 2.8015268, 5.184, -2.038168
0.6106765, -0.0438087, 5.19075, -0.0644531, 5.19075, -0.9726562, 5.19075, -0.3398438, 5.19075, 1.7099236, 5.19075, 3.3969467, 5.19075, -1.6717557
0.6114706, -0.0323949, 5.1975, -0.0648193, 5.1975, -0.9737549, 5.1975, -0.34021, 5.1975, 1.7709924, 5.1975, 3.8015268, 5.1975, -1.6412214
0.6122647, -0.0223239, 5.20425, -0.0671387, 5.20425, -0.9723511, 5.20425, -0.3425293, 5.20425, 1.8015267, 5.20425, 4.1908398, 5.20425, -1.5954199
0.6130588, -0.0229953, 5.211, -0.0700073, 5.211, -0.9727173, 5.211, -0.3417969, 5.211, 2.1832061, 5.211, 4.3206105, 5.211, -1.4045801
0.6138529, -0.0193027, 5.21775, -0.0732422, 5.21775, -0.9720459, 5.21775, -0.3465576, 5.21775, 2.0839694, 5.21775, 4, 5.21775, -1.7175573
0.6146471, -0.0162814, 5.2245, -0.0794067, 5.2245, -0.9716797, 5.2245, -0.3488159, 5.2245, 2.0152671, 5.2245, 3.4122138, 5.2245, -1.7251909
0.6154412, -0.0216526, 5.23125, -0.0806885, 5.23125, -0.9705811, 5.23125, -0.3469849, 5.23125, 2.038168, 5.23125, 2.8473282, 5.23125, -1.9465649
0.6162353, -0.0203098, 5.238, -0.0807495, 5.238, -0.9675293, 5.238, -0.3444824, 5.238, 2.221374, 5.238, 2.6335878, 5.238, -2.0305343
0.6170294, -0.0159457, 5.24475, -0.0813599, 5.24475, -0.9714966, 5.24475, -0.3493652, 5.24475, 2.2366412, 5.24475, 2.0839694, 5.24475, -2.2900763
0.6178235, -0.0203098, 5.2515, -0.083252, 5.2515, -0.9706421, 5.2515, -0.347168, 5.2515, 2.4656489, 5.2515, 1.9465649, 5.2515, -2.5038168
0.6186176, -0.0182956, 5.25825, -0.0847168, 5.25825, -0.9742432, 5.25825, -0.3502808, 5.25825, 2.5343511, 5.25825, 1.7633588, 5.25825, -2.5572519
0.6194118, -0.0112459, 5.265, -0.0811768, 5.265, -0.9711304, 5.265, -0.3503418, 5.265, 2.8015268, 5.265, 1.4656489, 5.265, -2.6793892
0.6202059, -0.0085603, 5.27175, -0.0813599, 5.27175, -0.9684448, 5.27175, -0.3463135, 5.27175, 2.7175572, 5.27175, 1.3129771, 5.27175, -2.7862597
0.621, -0.0092317, 5.2785, -0.0803833, 5.2785, -0.9721069, 5.2785, -0.3521118, 5.2785, 2.648855, 5.2785, 1.1603054, 5.2785, -3.038168
0.6217941, -0.0135958, 5.28525, -0.0818481, 5.28525, -0.9738159, 5.28525, -0.3497925, 5.28525, 2.2290077, 5.28525, 1.480916, 5.28525, -2.9694657
0.6225882, -0.0166171, 5.292, -0.0803223, 5.292, -0.9710083, 5.292, -0.3475952, 5.292, 2.3282442, 5.292, 1.3358779, 5.292, -3.3358779
0.6233824, -0.0146029, 5.29875, -0.0773315, 5.29875, -0.972229, 5.29875, -0.3475952, 5.29875, 2.2366412, 5.29875, 0.870229, 5.29875, -3.5725191
0.6241765, -0.0125887, 5.3055, -0.0764771, 5.3055, -0.9711304, 5.3055, -0.350769, 5.3055, 2.5419848, 5.3055, 0.8778626, 5.3055, -3.778626
0.6249706, -0.012253, 5.31225, -0.0749512, 5.31225, -0.9743652, 5.31225, -0.3444214, 5.31225, 2.7099237, 5.31225, 1.1832061, 5.31225, -3.610687
0.6257647, -0.0095674, 5.319, -0.072876, 5.319, -0.970459, 5.319, -0.3416748, 5.319, 2.6564887, 5.319, 1.5877863, 5.319, -3.6564887
0.6265588, -0.0062104, 5.32575, -0.0679321, 5.32575, -0.9711914, 5.32575, -0.3392944, 5.32575, 2.7175572, 5.32575, 1.5572519, 5.32575, -3.5954199
0.6273529, -0.0050355, 5.3325, -0.0691528, 5.3325, -0.9711304, 5.3325, -0.3399048, 5.3325, 2.8091602, 5.3325, 1.8320611, 5.3325, -3.519084
0.6281471, -0.0041962, 5.33925, -0.0740356, 5.33925, -0.9754639, 5.33925, -0.3369141, 5.33925, 2.6335878, 5.33925, 2.2977099, 5.33925, -3.5419848
0.6289412, -0.0058747, 5.346, -0.0739746, 5.346, -0.9777832, 5.346, -0.3339844, 5.346, 2.6335878, 5.346, 2.1832061, 5.346, -3.4274809
0.6297353, -0.005539, 5.35275, -0.0731201, 5.35275, -0.9755859, 5.35275, -0.3355103, 5.35275, 2.6564887, 5.35275, 1.8473282, 5.35275, -3.4351146
0.6305294, -0.0038605, 5.3595, -0.0747681, 5.3595, -0.97052, 5.3595, -0.3381958, 5.3595, 2.5572519, 5.3595, 1.6793894, 5.3595, -3.6412213
0.6313235, -0.0031891, 5.36625, -0.0784302, 5.36625, -0.9701538, 5.36625, -0.338501, 5.36625, 2.2519083, 5.36625, 1.3969465, 5.36625, -3.6793892
0.6321176, -0.005539, 5.373, -0.0784912, 5.373, -0.9758911, 5.373, -0.338501, 5.373, 2.2137403, 5.373, 1.221374, 5.373, -3.8854961
0.6329118, -0.0075532, 5.37975, -0.0752563, 5.37975, -0.9740601, 5.37975, -0.3372803, 5.37975, 2.1374047, 5.37975, 0.8549618, 5.37975, -4.1297708
0.6337059, -0.0102388, 5.3865, -0.0738525, 5.3865, -0.9754639, 5.3865, -0.3358765, 5.3865, 2.1374047, 5.3865, 0.7938932, 5.3865, -4.2824426
0.6345, -0.0119173, 5.39325, -0.0760498, 5.39325, -0.9745483, 5.39325, -0.3343506, 5.39325, 2.4427481, 5.39325, 0.6030535, 5.39325, -4.1984735
0.6352941, -0.0135958, 5.4, -0.0755005, 5.4, -0.9733887, 5.4, -0.3349609, 5.4, 2.2900763, 5.4, 0.6030535, 5.4, -4.2671757
0.6360882, -0.0125887, 5.40675, -0.0775757, 5.40675, -0.9725952, 5.40675, -0.3344727, 5.40675, 2.1603053, 5.40675, 0.519084, 5.40675, -4.3587785
0.6368824, -0.0137636, 5.4135, -0.0814209, 5.4135, -0.9735718, 5.4135, -0.3370361, 5.4135, 2.2290077, 5.4135, 0.351145, 5.4135, -4.4656487
0.6376765, -0.0159457, 5.42025, -0.0789185, 5.42025, -0.9677734, 5.42025, -0.3344116, 5.42025, 2.3740458, 5.42025, 0.2519084, 5.42025, -4.5419846
0.6384706, -0.0135958, 5.427, -0.0801392, 5.427, -0.9671631, 5.427, -0.3329468, 5.427, 2.4122138, 5.427, 0.0076336, 5.427, -4.6641221
0.6392647, -0.0166171, 5.43375, -0.0767822, 5.43375, -0.9749146, 5.43375, -0.3345947, 5.43375, 2.1526718, 5.43375, -0.5114504, 5.43375, -4.961832
0.6400588, -0.0216526, 5.4405, -0.0680542, 5.4405, -0.9755859, 5.4405, -0.3359375, 5.4405, 2.1221373, 5.4405, -0.5343512, 5.4405, -4.778626
0.6408529, -0.0176242, 5.44725, -0.0640869, 5.44725, -0.9763184, 5.44725, -0.3321533, 5.44725, 2.038168, 5.44725, -0.1832061, 5.44725, -5.0305343
0.6416471, -0.0146029, 5.454, -0.065918, 5.454, -0.9745483, 5.454, -0.3303833, 5.454, 2.1603053, 5.454, -0.4503817, 5.454, -5.0229006
0.6424412, -0.0149386, 5.46075, -0.0610962, 5.46075, -0.9705811, 5.46075, -0.3356934, 5.46075, 1.9312977, 5.46075, -0.2977099, 5.46075, -4.7480917
0.6432353, -0.0115816, 5.4675, -0.0598755, 5.4675, -0.9786987, 5.4675, -0.3361206, 5.4675, 1.648855, 5.4675, 0.0076336, 5.4675, -4.7709923
0.6440294, -0.0115816, 5.47425, -0.0623169, 5.47425, -0.9776611, 5.47425, -0.3357544, 5.47425, 1.8854961, 5.47425, 0.3129771, 5.47425, -4.5725193
0.6448235, -0.0115816, 5.481, -0.0621948, 5.481, -0.9735107, 5.481, -0.3320923, 5.481, 1.6793894, 5.481, 0.3587786, 5.481, -4.6412215
0.6456176, -0.0082246, 5.48775, -0.0648193, 5.48775, -0.9752197, 5.48775, -0.3275757, 5.48775, 1.5038168, 5.48775, 0.5267175, 5.48775, -4.480916
0.6464118, -0.0068818, 5.4945, -0.0673218, 5.4945, -0.9793091, 5.4945, -0.3291016, 5.4945, 1.3816794, 5.4945, 0.5496183, 5.4945, -4.2900763
0.6472059, -0.0104067, 5.50125, -0.0690308, 5.50125, -0.9786377, 5.50125, -0.3309326, 5.50125, 1.5038168, 5.50125, 1.1450381, 5.50125, -4.1984735
0.648, -0.0169528, 5.508, -0.0634766, 5.508, -0.9763794, 5.508, -0.3261719, 5.508, 1.4351145, 5.508, 1.3206106, 5.508, -4.3587785
0.6487941, -0.0095674, 5.51475, -0.059082, 5.51475, -0.9729004, 5.51475, -0.3256226, 5.51475, 1.4274809, 5.51475, 1.0534351, 5.51475, -4.1450381
0.6495882, -0.0035248, 5.5215, -0.0612183, 5.5215, -0.9721069, 5.5215, -0.3328857, 5.5215, 1.3587786, 5.5215, 1.3664122, 5.5215, -4.0992365
0.6503824, -0.0109102, 5.52825, -0.0592651, 5.52825, -0.9711914, 5.52825, -0.3334351, 5.52825, 1.1068702, 5.52825, 1.4351145, 5.52825, -4.0763359
0.6511765, -0.0209812, 5.535, -0.0631714, 5.535, -0.9733276, 5.535, -0.3307495, 5.535, 0.6183206, 5.535, 1.648855, 5.535, -3.870229
0.6519706, -0.0169528, 5.54175, -0.0653687, 5.54175, -0.9747314, 5.54175, -0.3318481, 5.54175, 0.4885496, 5.54175, 1.7099236, 5.54175, -3.9007633
0.6527647, -0.01561, 5.5485, -0.0665894, 5.5485, -0.973938, 5.5485, -0.3306274, 5.5485, 0.6335878, 5.5485, 1.9160305, 5.5485, -3.740458
0.6535588, -0.0149386, 5.55525, -0.0671387, 5.55525, -0.9746704, 5.55525, -0.3314819, 5.55525, 0.6259542, 5.55525, 1.8473282, 5.55525, -3.7938931
0.6543529, -0.0135958, 5.562, -0.0673828, 5.562, -0.9682007, 5.562, -0.3354492, 5.562, 0.610687, 5.562, 1.3435115, 5.562, -3.9770992
0.6551471, -0.0176242, 5.56875, -0.0689087, 5.56875, -0.9690552, 5.56875, -0.3383179, 5.56875, 0.6030535, 5.56875, 1.1984733, 5.56875, -3.9694657
0.6559412, -0.0276951, 5.5755, -0.0717773, 5.5755, -0.972168, 5.5755, -0.3383789, 5.5755, 0.4503817, 5.5755, 0.9770992, 5.5755, -3.9236641
0.6567353, -0.0332341, 5.58225, -0.0679321, 5.58225, -0.9721069, 5.58225, -0.338562, 5.58225, 0.4580153, 5.58225, 0.9541985, 5.58225, -3.870229
0.6575294, -0.0270237, 5.589, -0.0648804, 5.589, -0.9711914, 5.589, -0.3406372, 5.589, 0.648855, 5.589, 0.7175573, 5.589, -3.9770992
0.6583235, -0.0166171, 5.59575, -0.0631714, 5.59575, -0.9699097, 5.59575, -0.3403931, 5.59575, 0.6717557, 5.59575, 0.961832, 5.59575, -4.1068702
0.6591176, -0.0075532, 5.6025, -0.0632935, 5.6025, -0.9727173, 5.6025, -0.3416748, 5.6025, 0.8625954, 5.6025, 1.1526718, 5.6025, -3.8778627
0.6599118, -0.0030213, 5.60925, -0.0637817, 5.60925, -0.9735107, 5.60925, -0.3405762, 5.60925, 0.8473282, 5.60925, 1.3740458, 5.60925, -3.908397
0.6607059, -0.0082246, 5.616, -0.0614624, 5.616, -0.9746704, 5.616, -0.3418579, 5.616, 0.8931298, 5.616, 1.4580153, 5.616, -3.7022901
0.6615, -0.0139315, 5.62275, -0.0622559, 5.62275, -0.9753418, 5.62275, -0.3449707, 5.62275, 0.908397, 5.62275, 1.6183206, 5.62275, -3.7251909
0.6622941, -0.0206455, 5.6295, -0.0616455, 5.6295, -0.9747314, 5.6295, -0.34552, 5.6295, 1.0610687, 5.6295, 1.8473282, 5.6295, -3.7938931
0.6630882, -0.0228275, 5.63625, -0.0687866, 5.63625, -0.975647, 5.63625, -0.3416138, 5.63625, 1.1603054, 5.63625, 2.1603053, 5.63625, -3.8473282
0.6638824, -0.0240024, 5.643, -0.0681763, 5.643, -0.9736938, 5.643, -0.3401489, 5.643, 1.2442749, 5.643, 1.9160305, 5.643, -3.610687
0.6646765, -0.0171206, 5.64975, -0.0690918, 5.64975, -0.9766235, 5.64975, -0.3380127, 5.64975, 1.2290076, 5.64975, 1.7862595, 5.64975, -3.7633588
0.6654706, -0.012253, 5.6565, -0.0715942, 5.6565, -0.9746094, 5.6565, -0.3401489, 5.6565, 1.5801526, 5.6565, 1.6335878, 5.6565, -3.8167939
0.6662647, -0.0176242, 5.66325, -0.0726318, 5.66325, -0.9754028, 5.66325, -0.3404541, 5.66325, 1.5114504, 5.66325, 1.4351145, 5.66325, -4.0076337
0.6670588, -0.01561, 5.67, -0.0726318, 5.67, -0.9733276, 5.67, -0.3406982, 5.67, 1.7251909, 5.67, 1.0992366, 5.67, -4.1450381
0.6678529, -0.0117494, 5.67675, -0.0717163, 5.67675, -0.9725952, 5.67675, -0.3398438, 5.67675, 1.8778626, 5.67675, 0.7175573, 5.67675, -4.3129773
0.6686471, -0.0137636, 5.6835, -0.0691528, 5.6835, -0.9751587, 5.6835, -0.3411865, 5.6835, 1.9923664, 5.6835, 0.6717557, 5.6835, -4.1679387
0.6694412, -0.0095674, 5.69025, -0.0684204, 5.69025, -0.9740601, 5.69025, -0.3388062, 5.69025, 2.0305343, 5.69025, 0.480916, 5.69025, -4.2442746
0.6702353, -0.0085603, 5.697, -0.0644531, 5.697, -0.9760132, 5.697, -0.336731, 5.697, 2.038168, 5.697, 0.5725191, 5.697, -4.0916033
0.6710294, -0.0028534, 5.70375, -0.0640869, 5.70375, -0.9772339, 5.70375, -0.3370361, 5.70375, 2.1068702, 5.70375, 0.1908397, 5.70375, -4.3435116
0.6718235, -0.0172885, 5.7105, -0.0639648, 5.7105, -0.9777832, 5.7105, -0.3380737, 5.7105, 1.961832, 5.7105, -0.0076336, 5.7105, -4.1984735
0.6726176, -0.0209812, 5.71725, -0.0620117, 5.71725, -0.9760742, 5.71725, -0.3400879, 5.71725, 2.2290077, 5.71725, 0.0458015, 5.71725, -4.1221375
0.6734118, -0.0099031, 5.724, -0.062561, 5.724, -0.9763794, 5.724, -0.3401489, 5.724, 2.0229008, 5.724, 0.1755725, 5.724, -4.221374
