Application:, Trigno Discover (1.7.0)
Date/Time:, 2026/9/9 下午 12:58:26
Collection Length (seconds):, 110.9565
Avanti Sensor 11 (69574)
sensor mode: 50
EMG 1 Time Series (s), EMG 1 (mV), ACC X Time Series (s), ACC X (G), ACC Y Time Series (s), ACC Y (G), ACC Z Time Series (s), ACC Z (G), GYRO X Time Series (s), GYRO X (deg/s), GYRO Y Time Series (s), GYRO Y (deg/s), GYRO Z Time Series (s), GYRO Z (deg/s)
, 1259.2593 Hz, , 148.1481 Hz, , 148.1481 Hz, , 148.1481 Hz, , 148.1481 Hz, , 148.1481 Hz, , 148.1481 Hz
0, 0.0652934, 0, -0.2523193, 0, -0.9822998, 0, -0.0514526, 0, -23.2671757, 0, 6.9847326, 0, 11.0458012
0.0007941, 0.1096056, 0.00675, -0.244873, 0.00675, -0.9970093, 0.00675, -0.041626, 0.00675, -22.0687027, 0.00675, 4.1984735, 0.00675, 10.0763359
0.0015882, 0.0762036, 0.0135, -0.2391968, 0.0135, -1.0003052, 0.0135, -0.0491943, 0.0135, -20.7557259, 0.0135, 2.7938931, 0.0135, 9.4656487
0.0023824, 0.0365911, 0.02025, -0.2369385, 0.02025, -0.9842529, 0.02025, -0.0565796, 0.02025, -19.9312973, 0.02025, 0.1526718, 0.02025, 8.6335878
0.0031765, 0.0125887, 0.027, -0.2293091, 0.027, -0.9655151, 0.027, -0.0567017, 0.027, -19.0687027, 0.027, -1.7251909, 0.027, 7.7633586
0.0039706, -0.0023499, 0.03375, -0.2214966, 0.03375, -0.9499512, 0.03375, -0.0693359, 0.03375, -17.9236641, 0.03375, -2.7251909, 0.03375, 6.3969464
0.0047647, -0.0139315, 0.0405, -0.2127686, 0.0405, -0.9423218, 0.0405, -0.0777588, 0.0405, -17.3282452, 0.0405, -2.870229, 0.0405, 5.5038166
0.0055588, -0.01561, 0.04725, -0.2058105, 0.04725, -0.9465332, 0.04725, -0.0834351, 0.04725, -16.67939, 0.04725, -2.3664122, 0.04725, 4.5114503
0.0063529, -0.0216526, 0.054, -0.1989136, 0.054, -0.9523926, 0.054, -0.0791626, 0.054, -15.9389315, 0.054, -0.8931298, 0.054, 3.7251909
0.0071471, -0.0166171, 0.06075, -0.2001343, 0.06075, -0.9523315, 0.06075, -0.0778809, 0.06075, -15.282443, 0.06075, 0.4274809, 0.06075, 3.2061069
0.0079412, -0.01561, 0.0675, -0.2077637, 0.0675, -0.956665, 0.0675, -0.0769043, 0.0675, -14.7862597, 0.0675, 1.351145, 0.0675, 2.6870229
0.0087353, -0.0209812, 0.07425, -0.2155762, 0.07425, -0.9584961, 0.07425, -0.0668945, 0.07425, -14.2290077, 0.07425, 2.091603, 0.07425, 2.1068702
0.0095294, -0.0182956, 0.081, -0.2258301, 0.081, -0.9636841, 0.081, -0.0533447, 0.081, -13.6717558, 0.081, 2.8854961, 0.081, 1.1984733
0.0103235, -0.0142672, 0.08775, -0.2322388, 0.08775, -0.9644775, 0.08775, -0.0510864, 0.08775, -13.0305347, 0.08775, 3.3587787, 0.08775, 0.6183206
0.0111176, -0.0135958, 0.0945, -0.2398071, 0.0945, -0.9655151, 0.0945, -0.0390625, 0.0945, -12.3282442, 0.0945, 3.1832061, 0.0945, 0.0381679
0.0119118, -0.0112459, 0.10125, -0.2474365, 0.10125, -0.970459, 0.10125, -0.0296021, 0.10125, -11.4885492, 0.10125, 3.1832061, 0.10125, -0.4885496
0.0127059, -0.0095674, 0.108, -0.2589111, 0.108, -0.9702759, 0.108, -0.0210571, 0.108, -10.6106873, 0.108, 2.8244274, 0.108, -1.1908396
0.0135, -0.0031891, 0.11475, -0.2701416, 0.11475, -0.9710693, 0.11475, -0.0153198, 0.11475, -9.5343513, 0.11475, 1.5648855, 0.11475, -1.6564885
0.0142941, -0.0115816, 0.1215, -0.2810059, 0.1215, -0.9735107, 0.1215, -0.0117798, 0.1215, -8.6335878, 0.1215, -0.610687, 0.1215, -2.259542
0.0150882, -0.0313878, 0.12825, -0.2855835, 0.12825, -0.982605, 0.12825, 0.0098267, 0.12825, -6.8854961, 0.12825, -3.0305343, 0.12825, -3.0610688
0.0158824, -0.0374304, 0.135, -0.291687, 0.135, -0.9915771, 0.135, 0.0162354, 0.135, -4.5496182, 0.135, -5.4198475, 0.135, -4.038168
0.0166765, -0.0386053, 0.14175, -0.2973633, 0.14175, -0.9935913, 0.14175, 0.0164185, 0.14175, -3.3969467, 0.14175, -6.9389315, 0.14175, -4.7557254
0.0174706, -0.0330663, 0.1485, -0.2950439, 0.1485, -0.998291, 0.1485, 0.0302124, 0.1485, -0.4351145, 0.1485, -10.679389, 0.1485, -6.3206105
0.0182647, -0.026688, 0.15525, -0.2833252, 0.15525, -1.0079346, 0.15525, 0.0591431, 0.15525, 2.8473282, 0.15525, -14.5343513, 0.15525, -8.160305
0.0190588, -0.0276951, 0.162, -0.2689819, 0.162, -1.0043945, 0.162, 0.0474243, 0.162, 5.8320613, 0.162, -16.9770985, 0.162, -9.7480917
0.0198529, -0.0313878, 0.16875, -0.2595215, 0.16875, -0.9788208, 0.16875, 0.0224609, 0.16875, 6.7862597, 0.16875, -16.2137413, 0.16875, -10.0763359
0.0206471, -0.0229953, 0.1755, -0.237854, 0.1755, -0.9473267, 0.1755, -0.0032349, 0.1755, 5.7633586, 0.1755, -13.2061071, 0.1755, -8.717557
0.0214412, -0.0092317, 0.18225, -0.2114258, 0.18225, -0.9291992, 0.18225, -0.0355835, 0.18225, 4.1145039, 0.18225, -8.6564884, 0.18225, -7.0152674
0.0222353, -0.0011749, 0.189, -0.210022, 0.189, -0.9328003, 0.189, -0.0507812, 0.189, 2.1068702, 0.189, -5.0839696, 0.189, -6.1526718
0.0230294, -0.0112459, 0.19575, -0.2150879, 0.19575, -0.9501953, 0.19575, -0.0540161, 0.19575, 0.7175573, 0.19575, -2.480916, 0.19575, -6.1450381
0.0238235, -0.0132601, 0.2025, -0.2028198, 0.2025, -0.9750366, 0.2025, -0.0494995, 0.2025, 0.1755725, 0.2025, -1.4198474, 0.2025, -6.3740458
0.0246176, -0.0028534, 0.20925, -0.180542, 0.20925, -0.9890137, 0.20925, -0.0410156, 0.20925, 0.1068702, 0.20925, 1.0305344, 0.20925, -6.6183205
0.0254118, -0.0015106, 0.216, -0.1755981, 0.216, -0.9926147, 0.216, -0.0413818, 0.216, 0.4122137, 0.216, 5.0687022, 0.216, -6.7175574
0.0262059, -0.0082246, 0.22275, -0.1651611, 0.22275, -0.9981689, 0.22275, -0.043396, 0.22275, 0.7099237, 0.22275, 7.221374, 0.22275, -6.8015265
0.027, -0.012253, 0.2295, -0.1778564, 0.2295, -0.9951782, 0.2295, -0.0415039, 0.2295, 1.2977099, 0.2295, 12.1526718, 0.2295, -6.6641221
0.0277941, -0.0135958, 0.23625, -0.2098999, 0.23625, -0.9854126, 0.23625, -0.0539551, 0.23625, 1.5572519, 0.23625, 14.8854961, 0.23625, -6.8702292
0.0285882, -0.0135958, 0.243, -0.2355347, 0.243, -0.9741211, 0.243, -0.0662231, 0.243, 1.3969465, 0.243, 15.0916033, 0.243, -7.0534353
0.0293824, -0.0135958, 0.24975, -0.2549438, 0.24975, -0.9712524, 0.24975, -0.0843506, 0.24975, 0.9236641, 0.24975, 13.9083967, 0.24975, -7.4427481
0.0301765, -0.0172885, 0.2565, -0.2543945, 0.2565, -0.9780273, 0.2565, -0.0985107, 0.2565, 0.1145038, 0.2565, 11.3816795, 0.2565, -8.2519083
0.0309706, -0.017792, 0.26325, -0.2388916, 0.26325, -0.9890747, 0.26325, -0.0995483, 0.26325, -0.3740458, 0.26325, 8.8167934, 0.26325, -8.8091602
0.0317647, -0.0132601, 0.27, -0.2086182, 0.27, -1.0027466, 0.27, -0.0942993, 0.27, -0.3435115, 0.27, 7.0916033, 0.27, -9.8778629
0.0325588, -0.0146029, 0.27675, -0.1919556, 0.27675, -1.0123291, 0.27675, -0.0950317, 0.27675, -0.0076336, 0.27675, 6.5267177, 0.27675, -10.8320608
0.0333529, -0.0186313, 0.2835, -0.1780396, 0.2835, -1.0187988, 0.2835, -0.1016235, 0.2835, 0.5572519, 0.2835, 7.0458016, 0.2835, -11.5572519
0.0341471, -0.0164492, 0.29025, -0.1859131, 0.29025, -1.0130005, 0.29025, -0.1085815, 0.29025, 1.1526718, 0.29025, 8.3740454, 0.29025, -12.2366409
0.0349412, -0.0152743, 0.297, -0.1949463, 0.297, -1.0084229, 0.297, -0.1075439, 0.297, 1.3282443, 0.297, 9.1755724, 0.297, -12.4503813
0.0357353, -0.0139315, 0.30375, -0.2263184, 0.30375, -1.0010376, 0.30375, -0.1166992, 0.30375, 1.1832061, 0.30375, 10.2061071, 0.30375, -12.6259546
0.0365294, -0.01561, 0.3105, -0.2557373, 0.3105, -0.9985352, 0.3105, -0.1106567, 0.3105, 0.9312977, 0.3105, 8.8167934, 0.3105, -13
0.0373235, -0.0159457, 0.31725, -0.2716064, 0.31725, -0.9961548, 0.31725, -0.1149902, 0.31725, 1.351145, 0.31725, 6.8549619, 0.31725, -13.5343513
0.0381176, -0.0169528, 0.324, -0.276062, 0.324, -0.992981, 0.324, -0.1105957, 0.324, 1.6641221, 0.324, 4.740458, 0.324, -13.717557
0.0389118, -0.0199741, 0.33075, -0.2619019, 0.33075, -0.9967651, 0.33075, -0.1047974, 0.33075, 1.8320611, 0.33075, 2.3435113, 0.33075, -14.1068707
0.0397059, -0.0176242, 0.3375, -0.2427979, 0.3375, -0.9941406, 0.3375, -0.102356, 0.3375, 1.9389313, 0.3375, 1.3053435, 0.3375, -14.3816795
0.0405, -0.0159457, 0.34425, -0.2255249, 0.34425, -0.9995117, 0.34425, -0.0980835, 0.34425, 2.221374, 0.34425, 1.0305344, 0.34425, -14.6488552
0.0412941, -0.0142672, 0.351, -0.2006226, 0.351, -1.0018921, 0.351, -0.09375, 0.351, 2.1984732, 0.351, 1.5877863, 0.351, -14.4885492
0.0420882, -0.0142672, 0.35775, -0.1908569, 0.35775, -1.0015259, 0.35775, -0.0910034, 0.35775, 2.0534351, 0.35775, 2.8931298, 0.35775, -14.5648851
0.0428824, -0.0149386, 0.3645, -0.1884155, 0.3645, -0.9979248, 0.3645, -0.0857544, 0.3645, 1.9694656, 0.3645, 4.1984735, 0.3645, -14.6717558
0.0436765, -0.0129244, 0.37125, -0.1886597, 0.37125, -0.992981, 0.37125, -0.0829468, 0.37125, 1.8625954, 0.37125, 5.4580154, 0.37125, -14.4122133
0.0444706, -0.0082246, 0.378, -0.1790161, 0.378, -0.9893799, 0.378, -0.0870972, 0.378, 1.7328244, 0.378, 5.6335878, 0.378, -14.320611
0.0452647, -0.008896, 0.38475, -0.1755371, 0.38475, -0.9851685, 0.38475, -0.0864258, 0.38475, 1.4274809, 0.38475, 5.6335878, 0.38475, -14.2290077
0.0460588, -0.0097353, 0.3915, -0.1707764, 0.3915, -0.9777222, 0.3915, -0.0831299, 0.3915, 1.1908396, 0.3915, 6.1145039, 0.3915, -14.0992365
0.0468529, -0.012253, 0.39825, -0.1726685, 0.39825, -0.9746704, 0.39825, -0.0828857, 0.39825, 0.7099237, 0.39825, 5.8625956, 0.39825, -13.9389315
0.0476471, -0.0115816, 0.405, -0.1745605, 0.405, -0.9747314, 0.405, -0.0819092, 0.405, 0.2748092, 0.405, 5.5114503, 0.405, -13.9847326
0.0484412, -0.0102388, 0.41175, -0.1756592, 0.41175, -0.9786987, 0.41175, -0.0872803, 0.41175, -0.2137405, 0.41175, 4.4732823, 0.41175, -13.9083967
0.0492353, -0.014435, 0.4185, -0.1727905, 0.4185, -0.9813232, 0.4185, -0.088501, 0.4185, -0.9465649, 0.4185, 3.2671757, 0.4185, -13.9236641
0.0500294, -0.0181277, 0.42525, -0.1594238, 0.42525, -0.9819336, 0.42525, -0.0822144, 0.42525, -1.3664122, 0.42525, 2.3358779, 0.42525, -13.519084
0.0508235, -0.01561, 0.432, -0.1469727, 0.432, -0.9838867, 0.432, -0.0817261, 0.432, -1.8549619, 0.432, 2.0305343, 0.432, -13.4885492
0.0516176, -0.0159457, 0.43875, -0.1365356, 0.43875, -0.9935303, 0.43875, -0.0823364, 0.43875, -2.4580152, 0.43875, 2.5419848, 0.43875, -13.2290077
0.0524118, -0.018967, 0.4455, -0.1278687, 0.4455, -0.9985352, 0.4455, -0.0822144, 0.4455, -2.8778627, 0.4455, 3.4885497, 0.4455, -12.8854961
0.0532059, -0.017792, 0.45225, -0.1297607, 0.45225, -1.0009155, 0.45225, -0.0795288, 0.45225, -2.9236641, 0.45225, 3.9770992, 0.45225, -12.5648851
0.054, -0.0193027, 0.459, -0.1307373, 0.459, -1.0007935, 0.459, -0.0794678, 0.459, -3.3206108, 0.459, 5.0229006, 0.459, -12.1908398
0.0547941, -0.018967, 0.46575, -0.1358032, 0.46575, -1.0009155, 0.46575, -0.0771484, 0.46575, -3.5267177, 0.46575, 6.3740458, 0.46575, -11.9770994
0.0555882, -0.0184634, 0.4725, -0.1450806, 0.4725, -1.0108032, 0.4725, -0.0834351, 0.4725, -3.4580152, 0.4725, 7.3053436, 0.4725, -11.5725193
0.0563824, -0.0179599, 0.47925, -0.1585083, 0.47925, -1.0109253, 0.47925, -0.092041, 0.47925, -3.1832061, 0.47925, 7.8396945, 0.47925, -11.2061071
0.0571765, -0.018967, 0.486, -0.1622925, 0.486, -1.0090942, 0.486, -0.09729, 0.486, -3.2977099, 0.486, 7.740458, 0.486, -10.9312973
0.0579706, -0.0149386, 0.49275, -0.1664429, 0.49275, -1.0047607, 0.49275, -0.1019897, 0.49275, -3.3664122, 0.49275, 7.5114503, 0.49275, -10.8091602
0.0587647, -0.0115816, 0.4995, -0.1691895, 0.4995, -1.0041504, 0.4995, -0.1022339, 0.4995, -3.5038168, 0.4995, 6.9847326, 0.4995, -10.679389
0.0595588, -0.0152743, 0.50625, -0.159729, 0.50625, -1.0055542, 0.50625, -0.1070557, 0.50625, -3.6717558, 0.50625, 6.6412215, 0.50625, -10.5725193
0.0603529, -0.0132601, 0.513, -0.1600342, 0.513, -0.9995728, 0.513, -0.1050415, 0.513, -3.5419848, 0.513, 6.3740458, 0.513, -10.2595415
0.0611471, -0.0082246, 0.51975, -0.1512451, 0.51975, -1.0032959, 0.51975, -0.0944824, 0.51975, -3.6793892, 0.51975, 6.259542, 0.51975, -10.1832066
0.0619412, -0.0075532, 0.5265, -0.1514893, 0.5265, -0.9962769, 0.5265, -0.1026001, 0.5265, -3.6793892, 0.5265, 6.8396945, 0.5265, -10.0229006
0.0627353, -0.0070497, 0.53325, -0.1558838, 0.53325, -0.9951782, 0.53325, -0.104187, 0.53325, -3.6870229, 0.53325, 7.1984735, 0.53325, -9.8702288
0.0635294, -0.0105745, 0.54, -0.1619873, 0.54, -1.0007324, 0.54, -0.1121826, 0.54, -3.5954199, 0.54, 7.8091602, 0.54, -9.6030531
0.0643235, -0.0099031, 0.54675, -0.1723633, 0.54675, -0.9968872, 0.54675, -0.1231079, 0.54675, -3.3129771, 0.54675, 7.1374044, 0.54675, -9.1832066
0.0651176, -0.012253, 0.5535, -0.1726074, 0.5535, -0.9932251, 0.5535, -0.1168213, 0.5535, -3.4198472, 0.5535, 6.0610685, 0.5535, -9.0916033
0.0659118, -0.0142672, 0.56025, -0.1669312, 0.56025, -0.9945679, 0.56025, -0.1243896, 0.56025, -3.2824428, 0.56025, 5.2900763, 0.56025, -8.9847326
0.0667059, -0.01561, 0.567, -0.1578979, 0.567, -0.9938354, 0.567, -0.1170044, 0.567, -3.0992367, 0.567, 4.4351144, 0.567, -9.0305347
0.0675, -0.0162814, 0.57375, -0.1640015, 0.57375, -0.9922485, 0.57375, -0.1278687, 0.57375, -2.6259542, 0.57375, 4.7099237, 0.57375, -9.1526718
0.0682941, -0.01561, 0.5805, -0.1594238, 0.5805, -0.989624, 0.5805, -0.133606, 0.5805, -2.8320611, 0.5805, 3.7251909, 0.5805, -9.1450386
0.0690882, -0.0169528, 0.58725, -0.15271, 0.58725, -0.9956665, 0.58725, -0.1279907, 0.58725, -2.5343511, 0.58725, 3.9389312, 0.58725, -8.8167934
0.0698824, -0.0149386, 0.594, -0.1525879, 0.594, -0.9924316, 0.594, -0.1275635, 0.594, -2.221374, 0.594, 3.961832, 0.594, -8.8167934
0.0706765, -0.0171206, 0.60075, -0.1503906, 0.60075, -0.9940796, 0.60075, -0.1260376, 0.60075, -2.3587787, 0.60075, 3.9694657, 0.60075, -8.8091602
0.0714706, -0.0184634, 0.6075, -0.1483765, 0.6075, -0.9987183, 0.6075, -0.1184082, 0.6075, -2.1603053, 0.6075, 4.2061067, 0.6075, -8.839695
0.0722647, -0.0157778, 0.61425, -0.1469116, 0.61425, -1.00354, 0.61425, -0.1182861, 0.61425, -1.7328244, 0.61425, 4.6183205, 0.61425, -8.5801525
0.0730588, -0.0129244, 0.621, -0.1502686, 0.621, -0.9951172, 0.621, -0.1212769, 0.621, -1.7099236, 0.621, 4.6106873, 0.621, -8.4732828
0.0738529, -0.0176242, 0.62775, -0.1528931, 0.62775, -0.9943237, 0.62775, -0.109436, 0.62775, -1.9694656, 0.62775, 3.9847329, 0.62775, -8.2442751
0.0746471, -0.0162814, 0.6345, -0.1438599, 0.6345, -0.9976196, 0.6345, -0.1053467, 0.6345, -1.7251909, 0.6345, 3.8854961, 0.6345, -8.0763359
0.0754412, -0.0114137, 0.64125, -0.1416016, 0.64125, -0.9968872, 0.64125, -0.1038208, 0.64125, -1.870229, 0.64125, 3.4503818, 0.64125, -8.1755724
0.0762353, -0.0115816, 0.648, -0.1387939, 0.648, -1.0043335, 0.648, -0.0979614, 0.648, -2.0229008, 0.648, 3.870229, 0.648, -7.961832
0.0770294, -0.0099031, 0.65475, -0.1361694, 0.65475, -1.0075073, 0.65475, -0.1027222, 0.65475, -1.8015267, 0.65475, 4.2061067, 0.65475, -7.8854961
0.0778235, -0.0082246, 0.6615, -0.1390991, 0.6615, -1.0037842, 0.6615, -0.0996094, 0.6615, -1.8778626, 0.6615, 4.6030536, 0.6615, -7.6717558
0.0786176, -0.0102388, 0.66825, -0.1387939, 0.66825, -1.0065918, 0.66825, -0.0997925, 0.66825, -2.1603053, 0.66825, 4.9770994, 0.66825, -7.2442746
0.0794118, -0.012253, 0.675, -0.1456299, 0.675, -1.0067139, 0.675, -0.1054688, 0.675, -2.1068702, 0.675, 5.3053436, 0.675, -7.1145039
0.0802059, -0.0135958, 0.68175, -0.1530762, 0.68175, -1.0057983, 0.68175, -0.1170044, 0.68175, -1.9465649, 0.68175, 5.7099237, 0.68175, -7.0992365
0.081, -0.0135958, 0.6885, -0.1567383, 0.6885, -1.0037842, 0.6885, -0.117981, 0.6885, -2.1221373, 0.6885, 5.3511453, 0.6885, -7.0229006
0.0817941, -0.0142672, 0.69525, -0.1572266, 0.69525, -1.0056152, 0.69525, -0.1199341, 0.69525, -2.1908398, 0.69525, 4.3587785, 0.69525, -6.740458
0.0825882, -0.0157778, 0.702, -0.1530762, 0.702, -1.0059814, 0.702, -0.1195068, 0.702, -2.1145039, 0.702, 3.1145039, 0.702, -6.5267177
0.0833824, -0.0142672, 0.70875, -0.1448364, 0.70875, -1.0018311, 0.70875, -0.1207275, 0.70875, -1.961832, 0.70875, 2.1603053, 0.70875, -6.6870227
0.0841765, -0.0164492, 0.7155, -0.1420898, 0.7155, -1.0014038, 0.7155, -0.1201172, 0.7155, -1.7862595, 0.7155, 1.9312977, 0.7155, -6.8473282
0.0849706, -0.0146029, 0.72225, -0.140686, 0.72225, -0.9971924, 0.72225, -0.1196899, 0.72225, -1.8320611, 0.72225, 1.4961832, 0.72225, -6.8244276
0.0857647, -0.0135958, 0.729, -0.1409302, 0.729, -0.996521, 0.729, -0.1257935, 0.729, -1.7175573, 0.729, 1.6793894, 0.729, -6.5114503
0.0865588, -0.0179599, 0.73575, -0.1418457, 0.73575, -0.9968872, 0.73575, -0.1255493, 0.73575, -1.5801526, 0.73575, 1.1832061, 0.73575, -6.2366414
0.0873529, -0.0186313, 0.7425, -0.137085, 0.7425, -0.9966431, 0.7425, -0.1275024, 0.7425, -1.351145, 0.7425, 1.4122137, 0.7425, -6.1450381
0.0881471, -0.0152743, 0.74925, -0.131897, 0.74925, -0.994751, 0.74925, -0.1298828, 0.74925, -1.3664122, 0.74925, 1.4656489, 0.74925, -6.0458016
0.0889412, -0.0169528, 0.756, -0.1345825, 0.756, -0.9907227, 0.756, -0.1287842, 0.756, -1.3053435, 0.756, 1.7099236, 0.756, -5.778626
0.0897353, -0.0182956, 0.76275, -0.1350708, 0.76275, -0.994873, 0.76275, -0.1294556, 0.76275, -1.1679389, 0.76275, 1.8244275, 0.76275, -5.8625956
0.0905294, -0.0196384, 0.7695, -0.1364136, 0.7695, -1.0026245, 0.7695, -0.135376, 0.7695, -0.870229, 0.7695, 2.1450381, 0.7695, -5.5954199
0.0913235, -0.0166171, 0.77625, -0.1391602, 0.77625, -1.0033569, 0.77625, -0.1333008, 0.77625, -0.8549618, 0.77625, 1.8931298, 0.77625, -5.4122138
0.0921176, -0.01561, 0.783, -0.1411133, 0.783, -0.9971313, 0.783, -0.1345215, 0.783, -0.5496183, 0.783, 1.5496184, 0.783, -5.3816795
0.0929118, -0.0176242, 0.78975, -0.1410522, 0.78975, -0.9991455, 0.78975, -0.1358032, 0.78975, -0.6412213, 0.78975, 1.0152671, 0.78975, -5.221374
0.0937059, -0.0169528, 0.7965, -0.1417236, 0.7965, -1.0050659, 0.7965, -0.1362305, 0.7965, -0.5114504, 0.7965, 0.7251908, 0.7965, -5.1221375
0.0945, -0.0119173, 0.80325, -0.149292, 0.80325, -1.0100098, 0.80325, -0.1428833, 0.80325, -0.1526718, 0.80325, 0.4503817, 0.80325, -5.0610685
0.0952941, -0.0115816, 0.81, -0.1538696, 0.81, -1.0037842, 0.81, -0.1384277, 0.81, -0.0992366, 0.81, -0.1526718, 0.81, -4.7633586
0.0960882, -0.0075532, 0.81675, -0.1472168, 0.81675, -1.0009766, 0.81675, -0.1364746, 0.81675, 0.2290076, 0.81675, -0.9465649, 0.81675, -4.6106873
0.0968824, -0.0095674, 0.8235, -0.1394653, 0.8235, -0.9990234, 0.8235, -0.1335449, 0.8235, 0.389313, 0.8235, -1.1450381, 0.8235, -4.6717558
0.0976765, -0.0115816, 0.83025, -0.1335449, 0.83025, -0.9973755, 0.83025, -0.1275024, 0.83025, 0.3969466, 0.83025, -1.0610687, 0.83025, -4.6641221
0.0984706, -0.0135958, 0.837, -0.1327515, 0.837, -0.9974976, 0.837, -0.1297607, 0.837, 0.6717557, 0.837, -0.0381679, 0.837, -4.4274807
0.0992647, -0.0119173, 0.84375, -0.1339111, 0.84375, -0.9979858, 0.84375, -0.1309204, 0.84375, 0.6412213, 0.84375, 0.0916031, 0.84375, -4.2977099
0.1000588, -0.0142672, 0.8505, -0.1296387, 0.8505, -0.9986572, 0.8505, -0.1261597, 0.8505, 0.7709923, 0.8505, 0.1450382, 0.8505, -4.0229006
0.1008529, -0.0154421, 0.85725, -0.132019, 0.85725, -0.9988403, 0.85725, -0.1228638, 0.85725, 0.7557252, 0.85725, 0.2290076, 0.85725, -3.7175572
0.1016471, -0.0152743, 0.864, -0.1282959, 0.864, -1.0012817, 0.864, -0.1222534, 0.864, 0.778626, 0.864, 0.3435115, 0.864, -3.778626
0.1024412, -0.0209812, 0.87075, -0.1339722, 0.87075, -1.0033569, 0.87075, -0.1192017, 0.87075, 0.9312977, 0.87075, 0.5114504, 0.87075, -3.648855
0.1032353, -0.021149, 0.8775, -0.1390991, 0.8775, -1.0020752, 0.8775, -0.1218872, 0.8775, 1.0687023, 0.8775, 0.5877863, 0.8775, -3.778626
0.1040294, -0.0198062, 0.88425, -0.1436768, 0.88425, -1.0006714, 0.88425, -0.1265259, 0.88425, 1.0534351, 0.88425, 0.0687023, 0.88425, -3.4122138
0.1048235, -0.0149386, 0.891, -0.1453857, 0.891, -1.005188, 0.891, -0.1271362, 0.891, 0.9847328, 0.891, -0.4122137, 0.891, -3.3282442
0.1056176, -0.01561, 0.89775, -0.1439209, 0.89775, -1.0025635, 0.89775, -0.1293335, 0.89775, 1.0305344, 0.89775, -0.8778626, 0.89775, -3.2519083
0.1064118, -0.0176242, 0.9045, -0.1402588, 0.9045, -1.0015869, 0.9045, -0.1312256, 0.9045, 1.0992366, 0.9045, -1.259542, 0.9045, -3.1374047
0.1072059, -0.0169528, 0.91125, -0.1356812, 0.91125, -1.0009155, 0.91125, -0.1286621, 0.91125, 1.129771, 0.91125, -0.8549618, 0.91125, -3.1374047
0.108, -0.0169528, 0.918, -0.1345215, 0.918, -0.9981079, 0.918, -0.1293335, 0.918, 1.2824427, 0.918, -0.5496183, 0.918, -2.8854961
0.1087941, -0.0166171, 0.92475, -0.1362305, 0.92475, -0.9973145, 0.92475, -0.1293335, 0.92475, 1.1603054, 0.92475, -0.3816794, 0.92475, -2.6335878
0.1095882, -0.0146029, 0.9315, -0.1374512, 0.9315, -0.9981079, 0.9315, -0.1270142, 0.9315, 1.1755725, 0.9315, -0.2442748, 0.9315, -2.5267177
0.1103824, -0.0130922, 0.93825, -0.1413574, 0.93825, -0.9985352, 0.93825, -0.1260986, 0.93825, 1.2061069, 0.93825, -0.0610687, 0.93825, -2.5877862
0.1111765, -0.0125887, 0.945, -0.1365967, 0.945, -0.9946899, 0.945, -0.1265869, 0.945, 1.6412214, 0.945, 0.0610687, 0.945, -2.5801528
0.1119706, -0.0085603, 0.95175, -0.1376953, 0.95175, -0.9971924, 0.95175, -0.1278687, 0.95175, 1.6030535, 0.95175, 0.0076336, 0.95175, -2.5801528
0.1127647, -0.0095674, 0.9585, -0.1401367, 0.9585, -0.9967041, 0.9585, -0.1264038, 0.9585, 1.7022901, 0.9585, 0.2671756, 0.9585, -2.4198472
0.1135588, -0.0139315, 0.96525, -0.1447754, 0.96525, -0.9949341, 0.96525, -0.1279297, 0.96525, 1.648855, 0.96525, 0.3969466, 0.96525, -2.1374047
0.1143529, -0.0129244, 0.972, -0.1444092, 0.972, -0.9973755, 0.972, -0.1290894, 0.972, 1.6564885, 0.972, 0.3587786, 0.972, -2.1679389
0.1151471, -0.011078, 0.97875, -0.1433716, 0.97875, -0.9925537, 0.97875, -0.1283569, 0.97875, 1.648855, 0.97875, 0.4427481, 0.97875, -2
0.1159412, -0.0119173, 0.9855, -0.1412354, 0.9855, -0.9953613, 0.9855, -0.1292725, 0.9855, 1.778626, 0.9855, 0.1679389, 0.9855, -1.9007634
0.1167353, -0.0130922, 0.99225, -0.1394653, 0.99225, -0.9976807, 0.99225, -0.1272583, 0.99225, 1.7557251, 0.99225, 0.3435115, 0.99225, -1.6946565
0.1175294, -0.0169528, 0.999, -0.1357422, 0.999, -0.996521, 0.999, -0.1256714, 0.999, 1.7251909, 0.999, 0.4580153, 0.999, -1.6946565
0.1183235, -0.0176242, 1.00575, -0.1376343, 1.00575, -0.9989014, 1.00575, -0.1239624, 1.00575, 1.8396946, 1.00575, 0.6793893, 1.00575, -1.7633588
0.1191176, -0.0166171, 1.0125, -0.1417847, 1.0125, -0.9962158, 1.0125, -0.1253052, 1.0125, 1.961832, 1.0125, 0.870229, 1.0125, -1.610687
0.1199118, -0.0149386, 1.01925, -0.1417236, 1.01925, -1.000061, 1.01925, -0.1194458, 1.01925, 2.0305343, 1.01925, 0.7022901, 1.01925, -1.5572519
0.1207059, -0.0142672, 1.026, -0.1446533, 1.026, -1.0043335, 1.026, -0.123291, 1.026, 2, 1.026, 0.5648855, 1.026, -1.519084
0.1215, -0.0152743, 1.03275, -0.1499634, 1.03275, -1.0014038, 1.03275, -0.1259155, 1.03275, 2.1450381, 1.03275, 0.3816794, 1.03275, -1.3816794
0.1222941, -0.0159457, 1.0395, -0.1514282, 1.0395, -0.9985962, 1.0395, -0.1225586, 1.0395, 1.9389313, 1.0395, 0.0992366, 1.0395, -1.4198474
0.1230882, -0.0117494, 1.04625, -0.1509399, 1.04625, -0.996582, 1.04625, -0.1228027, 1.04625, 1.9923664, 1.04625, -0.3435115, 1.04625, -1.3587786
0.1238824, -0.012253, 1.053, -0.1468506, 1.053, -0.9910278, 1.053, -0.1208496, 1.053, 2.0534351, 1.053, -0.2442748, 1.053, -1.3435115
0.1246765, -0.0135958, 1.05975, -0.1412354, 1.05975, -0.9917603, 1.05975, -0.1190186, 1.05975, 2.0687022, 1.05975, -0.2748092, 1.05975, -1.2519084
0.1254706, -0.0139315, 1.0665, -0.1390991, 1.0665, -0.992981, 1.0665, -0.1200562, 1.0665, 2.0992367, 1.0665, -0.1984733, 1.0665, -1.3053435
0.1262647, -0.0159457, 1.07325, -0.138855, 1.07325, -0.9935913, 1.07325, -0.1209106, 1.07325, 2.1755726, 1.07325, 0.0458015, 1.07325, -1.129771
0.1270588, -0.0149386, 1.08, -0.1414795, 1.08, -0.9918213, 1.08, -0.1206055, 1.08, 2.1908398, 1.08, 0.1908397, 1.08, -1.0763359
0.1278529, -0.0114137, 1.08675, -0.1439819, 1.08675, -0.9907837, 1.08675, -0.1190796, 1.08675, 2.0763359, 1.08675, 0.6030535, 1.08675, -0.9694657
0.1286471, -0.008896, 1.0935, -0.144165, 1.0935, -0.989502, 1.0935, -0.121521, 1.0935, 2.0229008, 1.0935, 0.6717557, 1.0935, -0.961832
0.1294412, -0.0078889, 1.10025, -0.149292, 1.10025, -0.9916992, 1.10025, -0.1202393, 1.10025, 1.9770992, 1.10025, 0.6870229, 1.10025, -1.0305344
0.1302353, -0.0095674, 1.107, -0.1502075, 1.107, -0.9950562, 1.107, -0.118103, 1.107, 1.8931298, 1.107, 0.5801527, 1.107, -0.9465649
0.1310294, -0.012253, 1.11375, -0.1502075, 1.11375, -0.9955444, 1.11375, -0.1188965, 1.11375, 1.9312977, 1.11375, 0.6183206, 1.11375, -1
0.1318235, -0.0117494, 1.1205, -0.1533813, 1.1205, -0.9953003, 1.1205, -0.1228638, 1.1205, 1.9923664, 1.1205, 0.8167939, 1.1205, -0.9465649
0.1326176, -0.0140993, 1.12725, -0.1549683, 1.12725, -0.9971313, 1.12725, -0.1206055, 1.12725, 2.0534351, 1.12725, 0.6870229, 1.12725, -1.0839695
0.1334118, -0.0152743, 1.134, -0.1546021, 1.134, -0.9960327, 1.134, -0.1234131, 1.134, 2.0534351, 1.134, 0.3740458, 1.134, -1.0839695
0.1342059, -0.0157778, 1.14075, -0.1525269, 1.14075, -0.9943237, 1.14075, -0.1239624, 1.14075, 2.091603, 1.14075, 0.0076336, 1.14075, -1.0229008
0.135, -0.0182956, 1.1475, -0.1518555, 1.1475, -0.9943237, 1.1475, -0.1237793, 1.1475, 2.0839694, 1.1475, 0.0381679, 1.1475, -1.1145039
0.1357941, -0.0193027, 1.15425, -0.1516113, 1.15425, -0.9927368, 1.15425, -0.1254272, 1.15425, 1.9312977, 1.15425, 0.0381679, 1.15425, -1.038168
0.1365882, -0.0186313, 1.161, -0.1520996, 1.161, -0.9960327, 1.161, -0.1199951, 1.161, 1.9236641, 1.161, 0.1221374, 1.161, -1.1221374
0.1373824, -0.01561, 1.16775, -0.1535645, 1.16775, -0.9937744, 1.16775, -0.1226807, 1.16775, 1.9923664, 1.16775, 0.2442748, 1.16775, -1.2442749
0.1381765, -0.0149386, 1.1745, -0.1549683, 1.1745, -0.9962769, 1.1745, -0.1209106, 1.1745, 1.9541985, 1.1745, 0.3969466, 1.1745, -1.1755725
0.1389706, -0.0130922, 1.18125, -0.1659546, 1.18125, -0.9935303, 1.18125, -0.1192627, 1.18125, 2.0839694, 1.18125, 0.519084, 1.18125, -1.4122137
0.1397647, -0.012253, 1.188, -0.1702881, 1.188, -0.989502, 1.188, -0.1236572, 1.188, 2.0458016, 1.188, 0.1984733, 1.188, -1.1374046
0.1405588, -0.012253, 1.19475, -0.1664429, 1.19475, -0.989502, 1.19475, -0.1192627, 1.19475, 2, 1.19475, -0.2748092, 1.19475, -1.4885496
0.1413529, -0.0149386, 1.2015, -0.1586304, 1.2015, -0.9951782, 1.2015, -0.118042, 1.2015, 2.0458016, 1.2015, -0.4885496, 1.2015, -1.4885496
0.1421471, -0.0149386, 1.20825, -0.1532593, 1.20825, -0.9934692, 1.20825, -0.1161499, 1.20825, 2.0076337, 1.20825, -0.221374, 1.20825, -1.7022901
0.1429412, -0.01561, 1.215, -0.1477661, 1.215, -0.9951782, 1.215, -0.1151733, 1.215, 2.1145039, 1.215, 0.2061069, 1.215, -1.6183206
0.1437353, -0.0162814, 1.22175, -0.1466064, 1.22175, -0.9960327, 1.22175, -0.1117554, 1.22175, 2.1755726, 1.22175, 0.9236641, 1.22175, -1.6412214
0.1445294, -0.0149386, 1.2285, -0.1464844, 1.2285, -0.9998779, 1.2285, -0.1081543, 1.2285, 2.2442749, 1.2285, 1.1450381, 1.2285, -1.7099236
0.1453235, -0.0115816, 1.23525, -0.1499634, 1.23525, -0.9910889, 1.23525, -0.1096191, 1.23525, 2.1068702, 1.23525, 1.4732825, 1.23525, -1.7022901
0.1461176, -0.010071, 1.242, -0.1546021, 1.242, -0.9918213, 1.242, -0.1126099, 1.242, 1.8931298, 1.242, 1.3664122, 1.242, -1.6870229
0.1469118, -0.0095674, 1.24875, -0.1577148, 1.24875, -0.9923096, 1.24875, -0.112793, 1.24875, 1.8931298, 1.24875, 1.2671756, 1.24875, -1.7251909
0.1477059, -0.0135958, 1.2555, -0.1577759, 1.2555, -0.9901733, 1.2555, -0.114624, 1.2555, 1.8473282, 1.2555, 1.2290076, 1.2555, -1.8091604
0.1485, -0.0119173, 1.26225, -0.1594238, 1.26225, -0.9949951, 1.26225, -0.1166382, 1.26225, 1.6870229, 1.26225, 0.8473282, 1.26225, -1.9694656
0.1492941, -0.0119173, 1.269, -0.1577148, 1.269, -0.9940796, 1.269, -0.1196289, 1.269, 1.6335878, 1.269, 0.6564885, 1.269, -1.9847329
0.1500882, -0.0130922, 1.27575, -0.1582642, 1.27575, -0.9936523, 1.27575, -0.1184692, 1.27575, 1.6335878, 1.27575, 0.4198473, 1.27575, -2.0534351
0.1508824, -0.0162814, 1.2825, -0.15625, 1.2825, -0.9926147, 1.2825, -0.1204224, 1.2825, 1.5343511, 1.2825, 0.4885496, 1.2825, -2.1526718
0.1516765, -0.0169528, 1.28925, -0.154541, 1.28925, -0.9932251, 1.28925, -0.1196899, 1.28925, 1.4656489, 1.28925, 0.6030535, 1.28925, -2.0992367
0.1524706, -0.0142672, 1.296, -0.1555786, 1.296, -0.9945068, 1.296, -0.1113281, 1.296, 1.5572519, 1.296, 0.6183206, 1.296, -2.038168
0.1532647, -0.0152743, 1.30275, -0.1566772, 1.30275, -0.9962769, 1.30275, -0.1151123, 1.30275, 1.6564885, 1.30275, 0.9770992, 1.30275, -2.2900763
0.1540588, -0.01561, 1.3095, -0.1580811, 1.3095, -0.9950562, 1.3095, -0.1170044, 1.3095, 1.7099236, 1.3095, 1.3969465, 1.3095, -2.2748091
0.1548529, -0.0186313, 1.31625, -0.163269, 1.31625, -0.9971924, 1.31625, -0.1187134, 1.31625, 1.7633588, 1.31625, 1.5648855, 1.31625, -2.2290077
0.1556471, -0.0149386, 1.323, -0.1619873, 1.323, -0.9966431, 1.323, -0.1148071, 1.323, 1.7175573, 1.323, 1.5267175, 1.323, -2.2671757
0.1564412, -0.014435, 1.32975, -0.1640625, 1.32975, -0.9922485, 1.32975, -0.1183472, 1.32975, 1.8091604, 1.32975, 1.6030535, 1.32975, -2.259542
0.1572353, -0.0135958, 1.3365, -0.1620483, 1.3365, -0.9918823, 1.3365, -0.1170044, 1.3365, 1.6793894, 1.3365, 1.4198474, 1.3365, -2.4580152
0.1580294, -0.0166171, 1.34325, -0.1549683, 1.34325, -0.9959106, 1.34325, -0.111145, 1.34325, 1.5572519, 1.34325, 1.1145039, 1.34325, -2.6412213
0.1588235, -0.0127565, 1.35, -0.1538696, 1.35, -0.9967651, 1.35, -0.1176147, 1.35, 1.7557251, 1.35, 1.5496184, 1.35, -2.610687
0.1596176, -0.0125887, 1.35675, -0.1577148, 1.35675, -0.99646, 1.35675, -0.1160889, 1.35675, 1.7709924, 1.35675, 1.5496184, 1.35675, -2.4732823
0.1604118, -0.0169528, 1.3635, -0.1617432, 1.3635, -0.9976196, 1.3635, -0.1116943, 1.3635, 1.6030535, 1.3635, 1.4732825, 1.3635, -2.7251909
0.1612059, -0.0140993, 1.37025, -0.1643677, 1.37025, -0.9935303, 1.37025, -0.1207275, 1.37025, 1.7328244, 1.37025, 1.2137405, 1.37025, -2.7709923
0.162, -0.0125887, 1.377, -0.1665649, 1.377, -0.991272, 1.377, -0.1161499, 1.377, 1.7175573, 1.377, 0.7328244, 1.377, -2.8167939
0.1627941, -0.012253, 1.38375, -0.1700439, 1.38375, -0.9888306, 1.38375, -0.1201172, 1.38375, 1.4274809, 1.38375, 0.4885496, 1.38375, -2.8778627
0.1635882, -0.0112459, 1.3905, -0.1691284, 1.3905, -0.9888306, 1.3905, -0.1193237, 1.3905, 1.480916, 1.3905, 0.3664122, 1.3905, -2.9694657
0.1643824, -0.012253, 1.39725, -0.166748, 1.39725, -0.9893188, 1.39725, -0.1209106, 1.39725, 1.3053435, 1.39725, 0.0916031, 1.39725, -2.9389312
0.1651765, -0.0125887, 1.404, -0.1583862, 1.404, -0.9918823, 1.404, -0.118103, 1.404, 1.3435115, 1.404, 0.0916031, 1.404, -2.908397
0.1659706, -0.0132601, 1.41075, -0.1542969, 1.41075, -0.9954224, 1.41075, -0.111084, 1.41075, 1.2977099, 1.41075, -0.1374046, 1.41075, -3.1832061
0.1667647, -0.0135958, 1.4175, -0.1518555, 1.4175, -0.9938354, 1.4175, -0.1157837, 1.4175, 1.6412214, 1.4175, 1, 1.4175, -3.0839694
0.1675588, -0.0139315, 1.42425, -0.1496582, 1.42425, -0.991394, 1.42425, -0.1138306, 1.42425, 1.3816794, 1.42425, 1.3587786, 1.42425, -3.1526718
0.1683529, -0.0186313, 1.431, -0.1516113, 1.431, -0.9874878, 1.431, -0.1112671, 1.431, 1.389313, 1.431, 1.8015267, 1.431, -2.9847329
0.1691471, -0.0193027, 1.43775, -0.1542969, 1.43775, -0.9927979, 1.43775, -0.1096191, 1.43775, 1.2977099, 1.43775, 2.0458016, 1.43775, -2.9465649
0.1699412, -0.0219883, 1.4445, -0.1549683, 1.4445, -0.9971313, 1.4445, -0.1123657, 1.4445, 1.1068702, 1.4445, 1.9007634, 1.4445, -2.961832
0.1707353, -0.0209812, 1.45125, -0.159668, 1.45125, -1.0005493, 1.45125, -0.1075439, 1.45125, 1.3435115, 1.45125, 1.9694656, 1.45125, -3.3206108
0.1715294, -0.0182956, 1.458, -0.164978, 1.458, -0.9978638, 1.458, -0.1068115, 1.458, 1.3206106, 1.458, 1.4427481, 1.458, -3.4732823
0.1723235, -0.0176242, 1.46475, -0.1668701, 1.46475, -0.9954224, 1.46475, -0.1077271, 1.46475, 1.4503816, 1.46475, 1.2061069, 1.46475, -3.4503818
0.1731176, -0.0169528, 1.4715, -0.1619873, 1.4715, -0.9942627, 1.4715, -0.1202393, 1.4715, 1.1755725, 1.4715, 1.091603, 1.4715, -3.3740458
0.1739118, -0.0167849, 1.47825, -0.161377, 1.47825, -0.9971313, 1.47825, -0.116394, 1.47825, 0.9847328, 1.47825, 0.7557252, 1.47825, -3.3435113
0.1747059, -0.0162814, 1.485, -0.1583862, 1.485, -0.9968262, 1.485, -0.1204224, 1.485, 1.038168, 1.485, 0.8473282, 1.485, -3.2977099
0.1755, -0.01561, 1.49175, -0.1574707, 1.49175, -0.9960938, 1.49175, -0.1200562, 1.49175, 1.3053435, 1.49175, 0.6183206, 1.49175, -3.2900763
0.1762941, -0.0162814, 1.4985, -0.1567383, 1.4985, -0.9938965, 1.4985, -0.1210327, 1.4985, 1.0229008, 1.4985, 0.7480916, 1.4985, -3.3740458
0.1770882, -0.0179599, 1.50525, -0.1552124, 1.50525, -0.9940186, 1.50525, -0.1132812, 1.50525, 0.9923664, 1.50525, 0.610687, 1.50525, -3.4961832
0.1778824, -0.0162814, 1.512, -0.1478882, 1.512, -0.9953613, 1.512, -0.1162109, 1.512, 0.9160305, 1.512, 0.8244275, 1.512, -3.4427481
0.1786765, -0.01561, 1.51875, -0.1455078, 1.51875, -0.9920654, 1.51875, -0.1166382, 1.51875, 1.1832061, 1.51875, 1.5877863, 1.51875, -3.3969467
0.1794706, -0.0162814, 1.5255, -0.151062, 1.5255, -0.9937134, 1.5255, -0.1125488, 1.5255, 1.0305344, 1.5255, 2.1526718, 1.5255, -3.2366412
0.1802647, -0.0191348, 1.53225, -0.15979, 1.53225, -0.9910278, 1.53225, -0.1144409, 1.53225, 1.0839695, 1.53225, 2.5496182, 1.53225, -3.2519083
0.1810588, -0.0171206, 1.539, -0.1624146, 1.539, -0.9898682, 1.539, -0.1161499, 1.539, 0.9770992, 1.539, 1.8396946, 1.539, -3.221374
0.1818529, -0.0157778, 1.54575, -0.1588745, 1.54575, -0.9976807, 1.54575, -0.1154175, 1.54575, 1.0076336, 1.54575, 1.6259542, 1.54575, -3.5038168
0.1826471, -0.0162814, 1.5525, -0.157959, 1.5525, -0.9963379, 1.5525, -0.1168823, 1.5525, 0.9541985, 1.5525, 1.4503816, 1.5525, -3.3358779
0.1834412, -0.0184634, 1.55925, -0.1575317, 1.55925, -0.9881592, 1.55925, -0.121521, 1.55925, 0.8854962, 1.55925, 1.5954199, 1.55925, -3.3053436
0.1842353, -0.0196384, 1.566, -0.1627808, 1.566, -0.9899292, 1.566, -0.1253052, 1.566, 0.7022901, 1.566, 1.5114504, 1.566, -3.2824428
0.1850294, -0.0231632, 1.57275, -0.1640625, 1.57275, -0.9958496, 1.57275, -0.125061, 1.57275, 0.8320611, 1.57275, 1.4732825, 1.57275, -3.2061069
0.1858235, -0.0182956, 1.5795, -0.1623535, 1.5795, -0.9940186, 1.5795, -0.1248169, 1.5795, 0.908397, 1.5795, 1.0076336, 1.5795, -3.4503818
0.1866176, -0.0154421, 1.58625, -0.1651611, 1.58625, -0.9932251, 1.58625, -0.1258545, 1.58625, 1.0534351, 1.58625, 1.091603, 1.58625, -3.6183207
0.1874118, -0.0142672, 1.593, -0.1638794, 1.593, -0.9946289, 1.593, -0.1293945, 1.593, 1.0229008, 1.593, 0.9236641, 1.593, -3.610687
0.1882059, -0.0166171, 1.59975, -0.163269, 1.59975, -0.9939575, 1.59975, -0.1283569, 1.59975, 0.9770992, 1.59975, 0.4427481, 1.59975, -3.5114503
0.189, -0.0149386, 1.6065, -0.1604614, 1.6065, -0.9945068, 1.6065, -0.1251221, 1.6065, 1.0992366, 1.6065, 0.3358779, 1.6065, -3.3816793
0.1897941, -0.0151064, 1.61325, -0.1570435, 1.61325, -0.9904785, 1.61325, -0.1218262, 1.61325, 1.221374, 1.61325, 0.3664122, 1.61325, -3.7709923
0.1905882, -0.0182956, 1.62, -0.1553955, 1.62, -0.9920044, 1.62, -0.1199951, 1.62, 1.1679389, 1.62, 0.2748092, 1.62, -3.7251909
0.1913824, -0.0162814, 1.62675, -0.1556396, 1.62675, -0.9951172, 1.62675, -0.1234741, 1.62675, 1.2900764, 1.62675, 0.5954198, 1.62675, -3.648855
0.1921765, -0.0162814, 1.6335, -0.1552734, 1.6335, -0.9931641, 1.6335, -0.123291, 1.6335, 1.2900764, 1.6335, 0.6259542, 1.6335, -3.610687
0.1929706, -0.0159457, 1.64025, -0.1563721, 1.64025, -0.9934692, 1.64025, -0.1175537, 1.64025, 1.3816794, 1.64025, 0.3664122, 1.64025, -3.5954199
0.1937647, -0.0132601, 1.647, -0.1547241, 1.647, -0.9949341, 1.647, -0.1143188, 1.647, 1.2519084, 1.647, 0.6641222, 1.647, -3.5419848
0.1945588, -0.0139315, 1.65375, -0.1530762, 1.65375, -0.9941406, 1.65375, -0.1153564, 1.65375, 1.0763359, 1.65375, 0.8091603, 1.65375, -3.6946564
0.1953529, -0.0119173, 1.6605, -0.1560059, 1.6605, -0.9940186, 1.6605, -0.1132812, 1.6605, 1.4045801, 1.6605, 0.908397, 1.6605, -3.6412213
0.1961471, -0.0117494, 1.66725, -0.1595459, 1.66725, -0.9956665, 1.66725, -0.1194458, 1.66725, 1.4656489, 1.66725, 0.8625954, 1.66725, -3.6564887
0.1969412, -0.0112459, 1.674, -0.1593018, 1.674, -0.9957886, 1.674, -0.1200562, 1.674, 1.2977099, 1.674, 0.8396947, 1.674, -3.7709923
0.1977353, -0.0102388, 1.68075, -0.1628418, 1.68075, -0.9974365, 1.68075, -0.1203003, 1.68075, 1.2824427, 1.68075, 0.6717557, 1.68075, -3.7557251
0.1985294, -0.0105745, 1.6875, -0.1665649, 1.6875, -0.9979858, 1.6875, -0.119751, 1.6875, 1.2977099, 1.6875, 0.4732825, 1.6875, -3.6717558
0.1993235, -0.0119173, 1.69425, -0.1675415, 1.69425, -0.9945068, 1.69425, -0.1212769, 1.69425, 1.4122137, 1.69425, 0.0687023, 1.69425, -3.6412213
0.2001176, -0.0146029, 1.701, -0.1652222, 1.701, -0.9976807, 1.701, -0.1192017, 1.701, 1.480916, 1.701, -0.2442748, 1.701, -3.8167939
0.2009118, -0.0127565, 1.70775, -0.1586304, 1.70775, -1.0012207, 1.70775, -0.1162109, 1.70775, 1.480916, 1.70775, -0.4580153, 1.70775, -3.8778627
0.2017059, -0.0142672, 1.7145, -0.1568604, 1.7145, -1.0014648, 1.7145, -0.117981, 1.7145, 1.6412214, 1.7145, -0.2748092, 1.7145, -3.8854961
0.2025, -0.0129244, 1.72125, -0.1555176, 1.72125, -0.9937744, 1.72125, -0.1146851, 1.72125, 1.6717557, 1.72125, -0.2137405, 1.72125, -3.8931298
0.2032941, -0.0149386, 1.728, -0.1555176, 1.728, -0.9973145, 1.728, -0.116394, 1.728, 1.6641221, 1.728, -0.1679389, 1.728, -3.5877862
0.2040882, -0.0142672, 1.73475, -0.1511841, 1.73475, -0.9945068, 1.73475, -0.1184692, 1.73475, 1.6259542, 1.73475, 0.1221374, 1.73475, -3.7709923
0.2048824, -0.010071, 1.7415, -0.1503906, 1.7415, -0.9936523, 1.7415, -0.1166992, 1.7415, 1.6335878, 1.7415, 0.1755725, 1.7415, -3.6030533
0.2056765, -0.0112459, 1.74825, -0.1519165, 1.74825, -0.9953613, 1.74825, -0.1169434, 1.74825, 1.7862595, 1.74825, 0.610687, 1.74825, -3.7709923
0.2064706, -0.0112459, 1.755, -0.1567993, 1.755, -0.9926758, 1.755, -0.1195068, 1.755, 1.9312977, 1.755, 0.3816794, 1.755, -3.8549619
0.2072647, -0.0115816, 1.76175, -0.1585083, 1.76175, -0.9922485, 1.76175, -0.1196289, 1.76175, 1.7862595, 1.76175, 0.1832061, 1.76175, -3.7251909
0.2080588, -0.014435, 1.7685, -0.1591797, 1.7685, -0.9884033, 1.7685, -0.1265869, 1.7685, 2.0229008, 1.7685, 0.1603053, 1.7685, -3.6946564
0.2088529, -0.0142672, 1.77525, -0.1608276, 1.77525, -0.9915771, 1.77525, -0.1264038, 1.77525, 2.0229008, 1.77525, 0, 1.77525, -3.6946564
0.2096471, -0.0135958, 1.782, -0.1627197, 1.782, -0.984436, 1.782, -0.1243896, 1.782, 2.1603053, 1.782, -0.2137405, 1.782, -3.7022901
0.2104412, -0.0112459, 1.78875, -0.1601562, 1.78875, -0.9884033, 1.78875, -0.1229248, 1.78875, 2.1526718, 1.78875, -0.6335878, 1.78875, -3.8167939
0.2112353, -0.0099031, 1.7955, -0.1518555, 1.7955, -0.9967041, 1.7955, -0.1236572, 1.7955, 2.0229008, 1.7955, -0.8015267, 1.7955, -3.8931298
0.2120294, -0.0112459, 1.80225, -0.1513062, 1.80225, -1.0021362, 1.80225, -0.1201782, 1.80225, 2.1755726, 1.80225, -0.5954198, 1.80225, -3.9007633
0.2128235, -0.012253, 1.809, -0.1497803, 1.809, -1.0048218, 1.809, -0.1212158, 1.809, 2.4045801, 1.809, -0.1450382, 1.809, -3.8854961
0.2136176, -0.0125887, 1.81575, -0.1536865, 1.81575, -1.0027466, 1.81575, -0.1219482, 1.81575, 2.5267177, 1.81575, 0.1908397, 1.81575, -3.8473282
0.2144118, -0.0135958, 1.8225, -0.1577759, 1.8225, -1.0032349, 1.8225, -0.1206055, 1.8225, 2.740458, 1.8225, 0.351145, 1.8225, -4.0534353
0.2152059, -0.0179599, 1.82925, -0.1619873, 1.82925, -1.0018311, 1.82925, -0.1238403, 1.82925, 2.870229, 1.82925, -0.0763359, 1.82925, -4.1832061
0.216, -0.018967, 1.836, -0.1602783, 1.836, -1.0038452, 1.836, -0.1223755, 1.836, 3.1374047, 1.836, -0.3206107, 1.836, -4.3129773
0.2167941, -0.0169528, 1.84275, -0.1585693, 1.84275, -0.9994507, 1.84275, -0.1212158, 1.84275, 3.2061069, 1.84275, -0.6259542, 1.84275, -4.3664122
0.2175882, -0.01561, 1.8495, -0.1599731, 1.8495, -0.998291, 1.8495, -0.1209106, 1.8495, 3.2748091, 1.8495, -0.740458, 1.8495, -4.3358779
0.2183824, -0.01561, 1.85625, -0.1605225, 1.85625, -0.994812, 1.85625, -0.1206055, 1.85625, 3.3740458, 1.85625, -0.740458, 1.85625, -4.4198475
0.2191765, -0.0179599, 1.863, -0.1633301, 1.863, -0.9923096, 1.863, -0.1195068, 1.863, 3.4122138, 1.863, -0.9694657, 1.863, -4.6488547
0.2199706, -0.0179599, 1.86975, -0.1651001, 1.86975, -0.9899292, 1.86975, -0.1227417, 1.86975, 3.6793892, 1.86975, -1.259542, 1.86975, -4.6793895
0.2207647, -0.0149386, 1.8765, -0.1618042, 1.8765, -0.9914551, 1.8765, -0.1221313, 1.8765, 3.5725191, 1.8765, -1.3587786, 1.8765, -4.9236641
0.2215588, -0.0159457, 1.88325, -0.1573486, 1.88325, -0.9968262, 1.88325, -0.1217651, 1.88325, 3.8549619, 1.88325, -1.4045801, 1.88325, -5.1984735
0.2223529, -0.0152743, 1.89, -0.1551514, 1.89, -1.0023193, 1.89, -0.1196899, 1.89, 3.9541984, 1.89, -1.3282443, 1.89, -5.1145039
0.2231471, -0.0129244, 1.89675, -0.1522827, 1.89675, -1.0095825, 1.89675, -0.1176758, 1.89675, 4.3206105, 1.89675, -0.5572519, 1.89675, -5.3893127
0.2239412, -0.0146029, 1.9035, -0.1627197, 1.9035, -1.0081177, 1.9035, -0.1228027, 1.9035, 4.7328243, 1.9035, 0.8244275, 1.9035, -5.4198475
0.2247353, -0.0152743, 1.91025, -0.1716309, 1.91025, -1.0042725, 1.91025, -0.1270142, 1.91025, 4.8396945, 1.91025, 0.870229, 1.91025, -5.4045801
0.2255294, -0.0140993, 1.917, -0.1737671, 1.917, -1.0054932, 1.917, -0.1188354, 1.917, 5.3053436, 1.917, 0.5419847, 1.917, -5.5954199
0.2263235, -0.0095674, 1.92375, -0.1671143, 1.92375, -0.9960327, 1.92375, -0.1212769, 1.92375, 5.2671757, 1.92375, 0.1984733, 1.92375, -5.7175574
0.2271176, -0.008896, 1.9305, -0.1641235, 1.9305, -0.996582, 1.9305, -0.125, 1.9305, 5.2290077, 1.9305, 0.1832061, 1.9305, -5.8091602
0.2279118, -0.0092317, 1.93725, -0.1525879, 1.93725, -0.9959106, 1.93725, -0.1185913, 1.93725, 5.519084, 1.93725, 0.4351145, 1.93725, -5.778626
0.2287059, -0.0105745, 1.944, -0.1472778, 1.944, -0.9956665, 1.944, -0.1125488, 1.944, 5.7022901, 1.944, 1.1068702, 1.944, -5.8625956
0.2295, -0.0129244, 1.95075, -0.142334, 1.95075, -0.9894409, 1.95075, -0.1171265, 1.95075, 5.6106873, 1.95075, 1.6946565, 1.95075, -5.8167939
0.2302941, -0.0117494, 1.9575, -0.1369629, 1.9575, -0.9910278, 1.9575, -0.111084, 1.9575, 5.6564884, 1.9575, 2.038168, 1.9575, -6.0076337
0.2310882, -0.01561, 1.96425, -0.1341553, 1.96425, -0.9935303, 1.96425, -0.1124268, 1.96425, 5.519084, 1.96425, 2.5877862, 1.96425, -5.8167939
0.2318824, -0.0132601, 1.971, -0.1309204, 1.971, -0.9934692, 1.971, -0.1044312, 1.971, 5.3282442, 1.971, 3.6717558, 1.971, -5.7938933
0.2326765, -0.0129244, 1.97775, -0.1323853, 1.97775, -0.9949341, 1.97775, -0.0961914, 1.97775, 5.259542, 1.97775, 4.2442746, 1.97775, -5.7251906
0.2334706, -0.0140993, 1.9845, -0.1343384, 1.9845, -0.9977417, 1.9845, -0.0963135, 1.9845, 5.259542, 1.9845, 4.8473282, 1.9845, -5.7328243
0.2342647, -0.0146029, 1.99125, -0.1402588, 1.99125, -0.9963379, 1.99125, -0.0941162, 1.99125, 5.2290077, 1.99125, 5.3358779, 1.99125, -5.6717558
0.2350588, -0.0162814, 1.998, -0.1478882, 1.998, -0.9937134, 1.998, -0.0973511, 1.998, 4.8702292, 1.998, 5.5419846, 1.998, -5.3511453
0.2358529, -0.0206455, 2.00475, -0.1517334, 2.00475, -0.9952393, 2.00475, -0.0934448, 2.00475, 4.6335878, 2.00475, 5.1603055, 2.00475, -5.4045801
0.2366471, -0.0193027, 2.0115, -0.1452637, 2.0115, -0.9956665, 2.0115, -0.0944214, 2.0115, 4.7709923, 2.0115, 5.2824426, 2.0115, -5.3664122
0.2374412, -0.0182956, 2.01825, -0.1384888, 2.01825, -0.9949951, 2.01825, -0.0906982, 2.01825, 4.6641221, 2.01825, 4.9160304, 2.01825, -5.2290077
0.2382353, -0.0169528, 2.025, -0.1344604, 2.025, -0.994873, 2.025, -0.097229, 2.025, 4.3587785, 2.025, 5.3587785, 2.025, -5.1450381
0.2390294, -0.0176242, 2.03175, -0.1276855, 2.03175, -0.9960938, 2.03175, -0.0946045, 2.03175, 4.2977099, 2.03175, 5.9236641, 2.03175, -4.9770994
0.2398235, -0.0157778, 2.0385, -0.1288452, 2.0385, -0.9942017, 2.0385, -0.1018677, 2.0385, 4.1984735, 2.0385, 7.1297708, 2.0385, -4.7099237
0.2406176, -0.0146029, 2.04525, -0.1361694, 2.04525, -0.9945679, 2.04525, -0.1002808, 2.04525, 3.9770992, 2.04525, 7.3358779, 2.04525, -4.4961834
0.2414118, -0.0142672, 2.052, -0.1367188, 2.052, -0.9970093, 2.052, -0.1021729, 2.052, 3.8320611, 2.052, 7.4732823, 2.052, -4.3664122
0.2422059, -0.0179599, 2.05875, -0.1432495, 2.05875, -0.9928589, 2.05875, -0.1066284, 2.05875, 3.7175572, 2.05875, 6.961832, 2.05875, -4.3435116
0.243, -0.0182956, 2.0655, -0.1431274, 2.0655, -0.9937744, 2.0655, -0.1030884, 2.0655, 3.480916, 2.0655, 5.9541984, 2.0655, -4.4045801
0.2437941, -0.018967, 2.07225, -0.1424561, 2.07225, -0.9937134, 2.07225, -0.1022949, 2.07225, 3.5572519, 2.07225, 5.6870227, 2.07225, -4.1297708
0.2445882, -0.0132601, 2.079, -0.1408691, 2.079, -0.9894409, 2.079, -0.1060791, 2.079, 3.3358779, 2.079, 5.4045801, 2.079, -4.1984735
0.2453824, -0.0105745, 2.08575, -0.1361694, 2.08575, -0.9908447, 2.08575, -0.1050415, 2.08575, 3.3664122, 2.08575, 5.1603055, 2.08575, -4.1526718
0.2461765, -0.0135958, 2.0925, -0.1377563, 2.0925, -0.9996948, 2.0925, -0.1047974, 2.0925, 3.2519083, 2.0925, 5.2900763, 2.0925, -3.9847329
0.2469706, -0.0112459, 2.09925, -0.140625, 2.09925, -1.0002441, 2.09925, -0.1065063, 2.09925, 3.1221373, 2.09925, 5.259542, 2.09925, -3.908397
0.2477647, -0.0109102, 2.106, -0.142395, 2.106, -0.9990845, 2.106, -0.102417, 2.106, 3.1832061, 2.106, 5.3587785, 2.106, -3.6717558
0.2485588, -0.0085603, 2.11275, -0.1430664, 2.11275, -0.9988403, 2.11275, -0.1087646, 2.11275, 3.3206108, 2.11275, 5.2442746, 2.11275, -3.8931298
0.2493529, -0.0112459, 2.1195, -0.1464844, 2.1195, -1.0018311, 2.1195, -0.1029053, 2.1195, 3.1068702, 2.1195, 4.6183205, 2.1195, -3.6335878
0.2501471, -0.0129244, 2.12625, -0.1428833, 2.12625, -1.0030518, 2.12625, -0.1015015, 2.12625, 3.2977099, 2.12625, 4.4503818, 2.12625, -3.5496182
0.2509412, -0.0112459, 2.133, -0.1396484, 2.133, -1.0025635, 2.133, -0.1026001, 2.133, 3.3282442, 2.133, 4.3206105, 2.133, -3.3206108
0.2517353, -0.0109102, 2.13975, -0.1411743, 2.13975, -1.0021973, 2.13975, -0.1060181, 2.13975, 3.2137403, 2.13975, 4.4503818, 2.13975, -3.0687022
0.2525294, -0.0129244, 2.1465, -0.1400757, 2.1465, -0.9989014, 2.1465, -0.1046753, 2.1465, 3.1679389, 2.1465, 4.0152674, 2.1465, -3.0152671
0.2533235, -0.0149386, 2.15325, -0.1427612, 2.15325, -0.9998169, 2.15325, -0.1015625, 2.15325, 3.1068702, 2.15325, 3.5572519, 2.15325, -2.7328243
0.2541176, -0.0182956, 2.16, -0.1415405, 2.16, -0.9998779, 2.16, -0.1008911, 2.16, 3.2442749, 2.16, 3.3282442, 2.16, -2.9312978
0.2549118, -0.0196384, 2.16675, -0.1462402, 2.16675, -0.9970093, 2.16675, -0.1094971, 2.16675, 3.3358779, 2.16675, 3.3282442, 2.16675, -2.9694657
0.2557059, -0.018967, 2.1735, -0.149353, 2.1735, -0.9893188, 2.1735, -0.1123047, 2.1735, 3.2061069, 2.1735, 2.740458, 2.1735, -2.8167939
0.2565, -0.0196384, 2.18025, -0.147583, 2.18025, -0.9916382, 2.18025, -0.1077881, 2.18025, 3.2366412, 2.18025, 1.9007634, 2.18025, -2.7709923
0.2572941, -0.0162814, 2.187, -0.1448975, 2.187, -0.9954224, 2.187, -0.1049194, 2.187, 3.0763359, 2.187, 1.4122137, 2.187, -2.6793892
0.2580882, -0.0146029, 2.19375, -0.140625, 2.19375, -0.996521, 2.19375, -0.109436, 2.19375, 3.1755726, 2.19375, 1.4198474, 2.19375, -2.5496182
0.2588824, -0.0117494, 2.2005, -0.1348267, 2.2005, -0.9998169, 2.2005, -0.1106567, 2.2005, 3.2137403, 2.2005, 1.7099236, 2.2005, -2.519084
0.2596765, -0.0135958, 2.20725, -0.1366577, 2.20725, -0.9991455, 2.20725, -0.1102295, 2.20725, 3.3664122, 2.20725, 1.8625954, 2.20725, -2.3740458
0.2604706, -0.0135958, 2.214, -0.1395264, 2.214, -0.9998779, 2.214, -0.1035156, 2.214, 3.4351146, 2.214, 1.7862595, 2.214, -2.2061069
0.2612647, -0.0097353, 2.22075, -0.1410522, 2.22075, -1.0001221, 2.22075, -0.102356, 2.22075, 3.4045801, 2.22075, 1.648855, 2.22075, -2.2824428
0.2620588, -0.0109102, 2.2275, -0.1438599, 2.2275, -1.0005493, 2.2275, -0.1003418, 2.2275, 3.5114503, 2.2275, 1.4580153, 2.2275, -2.3053436
0.2628529, -0.0129244, 2.23425, -0.1449585, 2.23425, -0.9988403, 2.23425, -0.1003418, 2.23425, 3.6335878, 2.23425, 1.0763359, 2.23425, -2.0229008
0.2636471, -0.0102388, 2.241, -0.1443481, 2.241, -0.9977417, 2.241, -0.1009521, 2.241, 3.5496182, 2.241, 0.9312977, 2.241, -2.1526718
0.2644412, -0.0109102, 2.24775, -0.1409912, 2.24775, -0.9932251, 2.24775, -0.0976562, 2.24775, 3.4961832, 2.24775, 0.7099237, 2.24775, -1.9465649
0.2652353, -0.012253, 2.2545, -0.1420898, 2.2545, -0.9937134, 2.2545, -0.0957642, 2.2545, 3.480916, 2.2545, 0.6641222, 2.2545, -1.961832
0.2660294, -0.0130922, 2.26125, -0.1380615, 2.26125, -0.9932861, 2.26125, -0.0961304, 2.26125, 3.4732823, 2.26125, 0.9007633, 2.26125, -1.7862595
0.2668235, -0.014435, 2.268, -0.1312866, 2.268, -0.9926758, 2.268, -0.0888672, 2.268, 3.2900763, 2.268, 1.2137405, 2.268, -1.7251909
0.2676176, -0.0172885, 2.27475, -0.133606, 2.27475, -0.9916382, 2.27475, -0.0901489, 2.27475, 3.1679389, 2.27475, 1.8854961, 2.27475, -1.7328244
0.2684118, -0.0176242, 2.2815, -0.1383057, 2.2815, -0.9950562, 2.2815, -0.0916748, 2.2815, 2.9312978, 2.2815, 2.0610688, 2.2815, -1.5496184
0.2692059, -0.017792, 2.28825, -0.1422729, 2.28825, -0.9945068, 2.28825, -0.0917358, 2.28825, 2.8320611, 2.28825, 2.0687022, 2.28825, -1.389313
0.27, -0.01561, 2.295, -0.147583, 2.295, -0.9935913, 2.295, -0.0919189, 2.295, 2.8244274, 2.295, 1.7862595, 2.295, -1.389313
0.2707941, -0.0152743, 2.30175, -0.1550903, 2.30175, -0.9949951, 2.30175, -0.093689, 2.30175, 2.9312978, 2.30175, 1.4351145, 2.30175, -1.4427481
0.2715882, -0.0169528, 2.3085, -0.1577148, 2.3085, -0.9978027, 2.3085, -0.0950317, 2.3085, 2.7862597, 2.3085, 0.9923664, 2.3085, -1.7022901
0.2723824, -0.0176242, 2.31525, -0.1560669, 2.31525, -0.9956665, 2.31525, -0.0946045, 2.31525, 2.6412213, 2.31525, 0.0305344, 2.31525, -1.6717557
0.2731765, -0.017792, 2.322, -0.151123, 2.322, -0.9983521, 2.322, -0.0897217, 2.322, 2.5954199, 2.322, -0.1984733, 2.322, -1.7175573
0.2739706, -0.0196384, 2.32875, -0.1491089, 2.32875, -0.993103, 2.32875, -0.0957642, 2.32875, 2.5801528, 2.32875, -0.0687023, 2.32875, -1.8244275
0.2747647, -0.0186313, 2.3355, -0.1495972, 2.3355, -0.9899292, 2.3355, -0.0953979, 2.3355, 2.6564887, 2.3355, 0.0229008, 2.3355, -1.8473282
0.2755588, -0.0176242, 2.34225, -0.1513672, 2.34225, -0.9946899, 2.34225, -0.0975342, 2.34225, 2.5496182, 2.34225, 0.4045801, 2.34225, -1.8015267
0.2763529, -0.0182956, 2.349, -0.1555176, 2.349, -0.9941406, 2.349, -0.0968628, 2.349, 2.5038168, 2.349, 0.2824427, 2.349, -1.7557251
0.2771471, -0.0129244, 2.35575, -0.1604614, 2.35575, -0.9909668, 2.35575, -0.0998535, 2.35575, 2.5114503, 2.35575, 0.1221374, 2.35575, -1.6717557
0.2779412, -0.0092317, 2.3625, -0.1569824, 2.3625, -0.9935913, 2.3625, -0.0985718, 2.3625, 2.5267177, 2.3625, -0.0763359, 2.3625, -1.8244275
0.2787353, -0.0072175, 2.36925, -0.1551514, 2.36925, -0.9920654, 2.36925, -0.1015625, 2.36925, 2.7251909, 2.36925, -0.3664122, 2.36925, -1.9847329
0.2795294, -0.0068818, 2.376, -0.1533813, 2.376, -0.9958496, 2.376, -0.0986328, 2.376, 2.7633588, 2.376, -0.3969466, 2.376, -2.0839694
0.2803235, -0.0099031, 2.38275, -0.1515503, 2.38275, -0.9949951, 2.38275, -0.0944824, 2.38275, 2.6717558, 2.38275, -0.6030535, 2.38275, -2.1526718
0.2811176, -0.0099031, 2.3895, -0.1525879, 2.3895, -0.998291, 2.3895, -0.0960693, 2.3895, 2.6259542, 2.3895, -0.5572519, 2.3895, -2.3053436
0.2819118, -0.0135958, 2.39625, -0.1557617, 2.39625, -0.9957886, 2.39625, -0.0966797, 2.39625, 2.5419848, 2.39625, -0.4198473, 2.39625, -2.221374
0.2827059, -0.0149386, 2.403, -0.1578979, 2.403, -0.9951172, 2.403, -0.0958862, 2.403, 2.908397, 2.403, -0.7938932, 2.403, -2.5114503
0.2835, -0.01561, 2.40975, -0.1611938, 2.40975, -0.991394, 2.40975, -0.0953369, 2.40975, 2.8549619, 2.40975, -0.870229, 2.40975, -2.3282442
0.2842941, -0.0149386, 2.4165, -0.1586914, 2.4165, -0.99646, 2.4165, -0.0983276, 2.4165, 2.9465649, 2.4165, -0.8625954, 2.4165, -2.3740458
0.2850882, -0.0166171, 2.42325, -0.1604004, 2.42325, -0.9945068, 2.42325, -0.0949097, 2.42325, 2.8244274, 2.42325, -0.7099237, 2.42325, -2.5419848
0.2858824, -0.0193027, 2.43, -0.1586914, 2.43, -0.9944458, 2.43, -0.0957031, 2.43, 2.778626, 2.43, -0.7480916, 2.43, -2.5343511
0.2866765, -0.0176242, 2.43675, -0.1547852, 2.43675, -0.9953613, 2.43675, -0.0969849, 2.43675, 2.8854961, 2.43675, -0.7557252, 2.43675, -2.4885497
0.2874706, -0.0186313, 2.4435, -0.1541138, 2.4435, -0.9932861, 2.4435, -0.0936279, 2.4435, 2.8015268, 2.4435, -0.4580153, 2.4435, -2.4351146
0.2882647, -0.0218204, 2.45025, -0.1500854, 2.45025, -0.9959106, 2.45025, -0.0962524, 2.45025, 2.7709923, 2.45025, -0.3129771, 2.45025, -2.6030533
0.2890588, -0.0223239, 2.457, -0.1517334, 2.457, -0.9946289, 2.457, -0.0940552, 2.457, 2.8320611, 2.457, -0.1755725, 2.457, -2.4122138
0.2898529, -0.0196384, 2.46375, -0.152832, 2.46375, -0.9954224, 2.46375, -0.0949097, 2.46375, 2.9541984, 2.46375, -0.2671756, 2.46375, -2.6183207
0.2906471, -0.01561, 2.4705, -0.1540527, 2.4705, -0.9938354, 2.4705, -0.0930786, 2.4705, 2.7328243, 2.4705, -0.740458, 2.4705, -2.610687
0.2914412, -0.014435, 2.47725, -0.1517334, 2.47725, -0.9924927, 2.47725, -0.0874023, 2.47725, 2.7480917, 2.47725, -0.7557252, 2.47725, -2.6335878
0.2922353, -0.0166171, 2.484, -0.1506348, 2.484, -0.9933472, 2.484, -0.090271, 2.484, 2.9160306, 2.484, -0.7022901, 2.484, -2.6335878
0.2930294, -0.0166171, 2.49075, -0.1454468, 2.49075, -0.9993896, 2.49075, -0.0887451, 2.49075, 2.648855, 2.49075, -0.8931298, 2.49075, -2.5954199
0.2938235, -0.0109102, 2.4975, -0.1470947, 2.4975, -0.9995728, 2.4975, -0.0827637, 2.4975, 2.7328243, 2.4975, -0.4580153, 2.4975, -2.6412213
0.2946176, -0.0109102, 2.50425, -0.1459961, 2.50425, -0.9984131, 2.50425, -0.0799561, 2.50425, 2.9236641, 2.50425, -0.1755725, 2.50425, -2.5572519
0.2954118, -0.0124208, 2.511, -0.1455688, 2.511, -0.9978027, 2.511, -0.0810547, 2.511, 2.4961832, 2.511, 0.0610687, 2.511, -2.6717558
0.2962059, -0.0082246, 2.51775, -0.1426392, 2.51775, -0.9971313, 2.51775, -0.0791626, 2.51775, 2.4656489, 2.51775, 0.3816794, 2.51775, -2.5267177
0.297, -0.005539, 2.5245, -0.1456299, 2.5245, -0.9962158, 2.5245, -0.078064, 2.5245, 2.3053436, 2.5245, 0.4656489, 2.5245, -2.4961832
0.2977941, -0.0095674, 2.53125, -0.1482544, 2.53125, -0.996521, 2.53125, -0.0795288, 2.53125, 2.2366412, 2.53125, 0.2061069, 2.53125, -2.3206108
0.2985882, -0.008896, 2.538, -0.145813, 2.538, -0.9911499, 2.538, -0.0783691, 2.538, 2.0076337, 2.538, 0.1603053, 2.538, -2.2290077
0.2993824, -0.0109102, 2.54475, -0.1403809, 2.54475, -0.9916992, 2.54475, -0.0767212, 2.54475, 1.9236641, 2.54475, 0.2366412, 2.54475, -2.3816793
0.3001765, -0.0129244, 2.5515, -0.1387939, 2.5515, -0.9911499, 2.5515, -0.0753784, 2.5515, 1.8625954, 2.5515, 0.2671756, 2.5515, -2.0763359
0.3009706, -0.0130922, 2.55825, -0.140686, 2.55825, -0.9876099, 2.55825, -0.0809937, 2.55825, 1.5419847, 2.55825, 0.5038168, 2.55825, -2.1374047
0.3017647, -0.0142672, 2.565, -0.1447144, 2.565, -0.9884644, 2.565, -0.0842896, 2.565, 1.2900764, 2.565, 0.5877863, 2.565, -1.961832
0.3025588, -0.0132601, 2.57175, -0.1455688, 2.57175, -0.9900513, 2.57175, -0.085022, 2.57175, 1.0839695, 2.57175, 0.5267175, 2.57175, -2.0534351
0.3033529, -0.0149386, 2.5785, -0.1503906, 2.5785, -0.9891968, 2.5785, -0.0842285, 2.5785, 0.7862595, 2.5785, 0.2748092, 2.5785, -2.1221373
0.3041471, -0.0149386, 2.58525, -0.1519775, 2.58525, -0.9865723, 2.58525, -0.0847778, 2.58525, 0.7938932, 2.58525, -0.129771, 2.58525, -1.9923664
0.3049412, -0.0139315, 2.592, -0.1558228, 2.592, -0.9868164, 2.592, -0.0878296, 2.592, 0.6183206, 2.592, -0.1526718, 2.592, -1.9770992
0.3057353, -0.0142672, 2.59875, -0.1610718, 2.59875, -0.9838257, 2.59875, -0.0953369, 2.59875, 0.6183206, 2.59875, -0.4274809, 2.59875, -2.0305343
0.3065294, -0.0139315, 2.6055, -0.1588135, 2.6055, -0.9877319, 2.6055, -0.0910645, 2.6055, 0.5419847, 2.6055, -1.0763359, 2.6055, -2.0305343
0.3073235, -0.0112459, 2.61225, -0.1549683, 2.61225, -0.9885254, 2.61225, -0.0896606, 2.61225, 0.6641222, 2.61225, -1.2442749, 2.61225, -1.8625954
0.3081176, -0.0112459, 2.619, -0.1465454, 2.619, -0.9931641, 2.619, -0.088562, 2.619, 0.4274809, 2.619, -1.1755725, 2.619, -2.091603
0.3089118, -0.0142672, 2.62575, -0.1442871, 2.62575, -0.9946899, 2.62575, -0.0869751, 2.62575, 0.4274809, 2.62575, -0.4122137, 2.62575, -2.0763359
0.3097059, -0.0159457, 2.6325, -0.1469116, 2.6325, -0.9985352, 2.6325, -0.0852051, 2.6325, 0.5114504, 2.6325, -0.0687023, 2.6325, -2.0992367
0.3105, -0.014435, 2.63925, -0.1567383, 2.63925, -0.9973755, 2.63925, -0.0884399, 2.63925, 0.2824427, 2.63925, 0.6564885, 2.63925, -1.961832
0.3112941, -0.0130922, 2.646, -0.1616821, 2.646, -1.0043335, 2.646, -0.0884399, 2.646, 0.5419847, 2.646, 0.2290076, 2.646, -2.2366412
0.3120882, -0.0139315, 2.65275, -0.1655273, 2.65275, -1.0026855, 2.65275, -0.0836792, 2.65275, 0.5343512, 2.65275, -0.3053435, 2.65275, -2.0152671
0.3128824, -0.0129244, 2.6595, -0.1592407, 2.6595, -0.996582, 2.6595, -0.0864258, 2.6595, 0.4503817, 2.6595, -0.8854962, 2.6595, -2.1603053
0.3136765, -0.011078, 2.66625, -0.1508789, 2.66625, -0.9966431, 2.66625, -0.0856934, 2.66625, 0.4122137, 2.66625, -0.8473282, 2.66625, -2.2748091
0.3144706, -0.0119173, 2.673, -0.1535034, 2.673, -0.9941406, 2.673, -0.085022, 2.673, 0.4656489, 2.673, -0.3969466, 2.673, -2.2824428
0.3152647, -0.0149386, 2.67975, -0.1513672, 2.67975, -0.9943237, 2.67975, -0.086731, 2.67975, 0.129771, 2.67975, -0.3358779, 2.67975, -2.259542
0.3160588, -0.0149386, 2.6865, -0.1569214, 2.6865, -0.9941406, 2.6865, -0.0864258, 2.6865, 0.0229008, 2.6865, -0.3587786, 2.6865, -2.1984732
0.3168529, -0.0152743, 2.69325, -0.1543579, 2.69325, -0.9925537, 2.69325, -0.0895996, 2.69325, -0.0992366, 2.69325, -0.3740458, 2.69325, -2.3816793
0.3176471, -0.0196384, 2.7, -0.1551514, 2.7, -0.9927979, 2.7, -0.0905151, 2.7, -0.1984733, 2.7, -0.2290076, 2.7, -2.351145
0.3184412, -0.0196384, 2.70675, -0.1569214, 2.70675, -0.9926147, 2.70675, -0.0923462, 2.70675, -0.2366412, 2.70675, -0.0534351, 2.70675, -2.3740458
0.3192353, -0.0176242, 2.7135, -0.15802, 2.7135, -0.9901123, 2.7135, -0.09198, 2.7135, -0.0992366, 2.7135, 0.1755725, 2.7135, -2.3435113
0.3200294, -0.0172885, 2.72025, -0.161499, 2.72025, -0.9912109, 2.72025, -0.0899658, 2.72025, -0.2366412, 2.72025, -0.4961832, 2.72025, -2.4351146
0.3208235, -0.012253, 2.727, -0.159668, 2.727, -0.9868164, 2.727, -0.0915527, 2.727, -0.2824427, 2.727, -0.5801527, 2.727, -2.4885497
0.3216176, -0.0127565, 2.73375, -0.1549683, 2.73375, -0.9876099, 2.73375, -0.0933838, 2.73375, -0.3435115, 2.73375, -0.7022901, 2.73375, -2.6183207
0.3224118, -0.0169528, 2.7405, -0.1547241, 2.7405, -0.9935913, 2.7405, -0.0917358, 2.7405, -0.5801527, 2.7405, -0.3129771, 2.7405, -2.7633588
0.3232059, -0.0135958, 2.74725, -0.1630859, 2.74725, -0.9929199, 2.74725, -0.0967407, 2.74725, -0.389313, 2.74725, -0.221374, 2.74725, -2.7709923
0.324, -0.0099031, 2.754, -0.1687012, 2.754, -0.9962158, 2.754, -0.0946655, 2.754, -0.259542, 2.754, -0.4427481, 2.754, -2.8931298
0.3247941, -0.012253, 2.76075, -0.1688843, 2.76075, -0.994751, 2.76075, -0.0966797, 2.76075, -0.1450382, 2.76075, -0.4656489, 2.76075, -2.8167939
0.3255882, -0.0125887, 2.7675, -0.1665649, 2.7675, -0.9946899, 2.7675, -0.0962524, 2.7675, -0.221374, 2.7675, -0.7022901, 2.7675, -3.0229008
0.3263824, -0.0105745, 2.77425, -0.1661987, 2.77425, -0.9971313, 2.77425, -0.0964966, 2.77425, -0.1068702, 2.77425, -0.6717557, 2.77425, -3.1908398
0.3271765, -0.0115816, 2.781, -0.1671753, 2.781, -0.9963379, 2.781, -0.0975952, 2.781, -0.1374046, 2.781, -0.6183206, 2.781, -3.1832061
0.3279706, -0.0105745, 2.78775, -0.1647949, 2.78775, -0.9967651, 2.78775, -0.0941162, 2.78775, 0.2366412, 2.78775, -0.7175573, 2.78775, -3.3206108
0.3287647, -0.0112459, 2.7945, -0.1619873, 2.7945, -0.9937744, 2.7945, -0.0915527, 2.7945, 0.0763359, 2.7945, -0.5267175, 2.7945, -3.1832061
0.3295588, -0.0124208, 2.80125, -0.1618042, 2.80125, -0.9891357, 2.80125, -0.0930786, 2.80125, 0.1145038, 2.80125, -0.4351145, 2.80125, -3.3587787
0.3303529, -0.0115816, 2.808, -0.1600342, 2.808, -0.9932251, 2.808, -0.0927734, 2.808, 0.0687023, 2.808, -0.2671756, 2.808, -3.4503818
0.3311471, -0.0129244, 2.81475, -0.1608887, 2.81475, -0.9952393, 2.81475, -0.0935669, 2.81475, -0.0839695, 2.81475, -0.129771, 2.81475, -3.5725191
0.3319412, -0.0139315, 2.8215, -0.1636963, 2.8215, -0.9932861, 2.8215, -0.0926514, 2.8215, -0.0916031, 2.8215, -0.129771, 2.8215, -3.4961832
0.3327353, -0.0159457, 2.82825, -0.1653442, 2.82825, -0.9919434, 2.82825, -0.0967407, 2.82825, 0.0229008, 2.82825, -0.4198473, 2.82825, -3.6946564
0.3335294, -0.0196384, 2.835, -0.1609497, 2.835, -0.9959717, 2.835, -0.0966797, 2.835, 0.1145038, 2.835, -0.9312977, 2.835, -3.6870229
0.3343235, -0.0176242, 2.84175, -0.1557617, 2.84175, -0.9985962, 2.84175, -0.09729, 2.84175, 0.221374, 2.84175, -0.8396947, 2.84175, -3.7251909
0.3351176, -0.0176242, 2.8485, -0.1544189, 2.8485, -0.9968872, 2.8485, -0.0969849, 2.8485, 0.1221374, 2.8485, -0.5801527, 2.8485, -3.7938931
0.3359118, -0.0159457, 2.85525, -0.1577759, 2.85525, -0.9992065, 2.85525, -0.0952148, 2.85525, 0.2061069, 2.85525, -0.5114504, 2.85525, -3.6946564
0.3367059, -0.0199741, 2.862, -0.1570435, 2.862, -0.9974976, 2.862, -0.0984497, 2.862, 0.3206107, 2.862, -0.3053435, 2.862, -3.7251909
0.3375, -0.0193027, 2.86875, -0.1557007, 2.86875, -0.9989014, 2.86875, -0.0956421, 2.86875, 0.3587786, 2.86875, -0.3358779, 2.86875, -3.7557251
0.3382941, -0.0169528, 2.8755, -0.1536255, 2.8755, -0.9941406, 2.8755, -0.0960083, 2.8755, 0.4580153, 2.8755, -0.221374, 2.8755, -4
0.3390882, -0.01561, 2.88225, -0.1602783, 2.88225, -0.9946899, 2.88225, -0.0997314, 2.88225, 0.3816794, 2.88225, 0.0763359, 2.88225, -3.8091602
0.3398824, -0.0169528, 2.889, -0.1596069, 2.889, -0.994812, 2.889, -0.1012573, 2.889, 0.3740458, 2.889, 0.2671756, 2.889, -3.8931298
0.3406765, -0.0176242, 2.89575, -0.1633911, 2.89575, -0.9973755, 2.89575, -0.1036377, 2.89575, 0.3740458, 2.89575, -0.2290076, 2.89575, -3.870229
0.3414706, -0.0139315, 2.9025, -0.1574097, 2.9025, -0.9957275, 2.9025, -0.1000366, 2.9025, 0.3969466, 2.9025, -0.5419847, 2.9025, -3.9312978
0.3422647, -0.012253, 2.90925, -0.1496582, 2.90925, -0.9951172, 2.90925, -0.1026611, 2.90925, 0.5343512, 2.90925, -0.8625954, 2.90925, -3.9770992
0.3430588, -0.0149386, 2.916, -0.1530151, 2.916, -0.99646, 2.916, -0.0997925, 2.916, 0.5725191, 2.916, -0.7938932, 2.916, -4.0534353
0.3438529, -0.0162814, 2.92275, -0.1577759, 2.92275, -0.9957886, 2.92275, -0.1079712, 2.92275, 0.6564885, 2.92275, -0.6183206, 2.92275, -4.2366414
0.3446471, -0.0130922, 2.9295, -0.1635742, 2.9295, -0.994873, 2.9295, -0.1066284, 2.9295, 0.4198473, 2.9295, -1.0610687, 2.9295, -4.1526718
0.3454412, -0.0152743, 2.93625, -0.1602173, 2.93625, -0.9963379, 2.93625, -0.1016235, 2.93625, 0.7328244, 2.93625, -1.4198474, 2.93625, -4.1068702
0.3462353, -0.0179599, 2.943, -0.1514893, 2.943, -0.9937134, 2.943, -0.1000366, 2.943, 0.7938932, 2.943, -1.4732825, 2.943, -4.1755724
0.3470294, -0.0187991, 2.94975, -0.1433105, 2.94975, -0.9908447, 2.94975, -0.0923462, 2.94975, 0.8778626, 2.94975, -1.5954199, 2.94975, -4.1755724
0.3478235, -0.0139315, 2.9565, -0.1391602, 2.9565, -0.9929199, 2.9565, -0.0905762, 2.9565, 0.9312977, 2.9565, -0.9007633, 2.9565, -4.1297708
0.3486176, -0.0142672, 2.96325, -0.1484375, 2.96325, -0.9888306, 2.96325, -0.0961304, 2.96325, 0.961832, 2.96325, -0.2824427, 2.96325, -4.2366414
0.3494118, -0.0176242, 2.97, -0.1539307, 2.97, -0.9882812, 2.97, -0.09552, 2.97, 0.5725191, 2.97, -0.1755725, 2.97, -4.1526718
0.3502059, -0.0181277, 2.97675, -0.161377, 2.97675, -0.9942627, 2.97675, -0.0957031, 2.97675, 0.5877863, 2.97675, -0.6183206, 2.97675, -4.1603055
0.351, -0.0146029, 2.9835, -0.1593628, 2.9835, -0.9934082, 2.9835, -0.0980225, 2.9835, 0.610687, 2.9835, -1.2442749, 2.9835, -4.1603055
0.3517941, -0.0149386, 2.99025, -0.1539917, 2.99025, -0.9971313, 2.99025, -0.0949097, 2.99025, 0.5801527, 2.99025, -1.6564885, 2.99025, -4.3129773
0.3525882, -0.0171206, 2.997, -0.1514282, 2.997, -0.9939575, 2.997, -0.0938721, 2.997, 0.8091603, 2.997, -1.4961832, 2.997, -4.221374
0.3533824, -0.0152743, 3.00375, -0.1546631, 3.00375, -0.9920044, 3.00375, -0.0986328, 3.00375, 0.7862595, 3.00375, -1.3740458, 3.00375, -4.2900763
0.3541765, -0.0176242, 3.0105, -0.1569824, 3.0105, -0.9941406, 3.0105, -0.1015015, 3.0105, 0.9312977, 3.0105, -1.4045801, 3.0105, -4.3053436
0.3549706, -0.0179599, 3.01725, -0.1592407, 3.01725, -0.993042, 3.01725, -0.1010742, 3.01725, 0.740458, 3.01725, -1.5725191, 3.01725, -4.1755724
0.3557647, -0.0169528, 3.024, -0.156189, 3.024, -0.9954224, 3.024, -0.1022339, 3.024, 0.8396947, 3.024, -2.0687022, 3.024, -4.3740458
0.3565588, -0.0152743, 3.03075, -0.1534424, 3.03075, -1.000061, 3.03075, -0.1027222, 3.03075, 0.9312977, 3.03075, -2.2137403, 3.03075, -4.4656487
0.3573529, -0.0124208, 3.0375, -0.1484375, 3.0375, -1.0026245, 3.0375, -0.1008301, 3.0375, 1.2519084, 3.0375, -2.0229008, 3.0375, -4.5038166
0.3581471, -0.0119173, 3.04425, -0.1525269, 3.04425, -0.9958496, 3.04425, -0.1062622, 3.04425, 1.3969465, 3.04425, -1.5954199, 3.04425, -4.6946564
0.3589412, -0.0127565, 3.051, -0.1564331, 3.051, -0.9934692, 3.051, -0.102356, 3.051, 1.221374, 3.051, -2.0763359, 3.051, -4.4885497
0.3597353, -0.0139315, 3.05775, -0.1588135, 3.05775, -0.9977417, 3.05775, -0.0994873, 3.05775, 1.2671756, 3.05775, -2.3282442, 3.05775, -4.3511453
0.3605294, -0.0135958, 3.0645, -0.15448, 3.0645, -1.0011597, 3.0645, -0.0986328, 3.0645, 1.3129771, 3.0645, -2.4351146, 3.0645, -4.6717558
0.3613235, -0.0115816, 3.07125, -0.1539917, 3.07125, -0.998291, 3.07125, -0.0935059, 3.07125, 1.6641221, 3.07125, -2.480916, 3.07125, -4.6717558
0.3621176, -0.0099031, 3.078, -0.1485596, 3.078, -0.9919434, 3.078, -0.0939331, 3.078, 1.5954199, 3.078, -2.3358779, 3.078, -4.5343513
0.3629118, -0.0085603, 3.08475, -0.1487427, 3.08475, -0.9925537, 3.08475, -0.0969238, 3.08475, 1.4427481, 3.08475, -1.9770992, 3.08475, -4.4045801
0.3637059, -0.0104067, 3.0915, -0.1499634, 3.0915, -0.9911499, 3.0915, -0.1010742, 3.0915, 1.5496184, 3.0915, -1.4122137, 3.0915, -4.3969464
0.3645, -0.0097353, 3.09825, -0.1495972, 3.09825, -0.9880981, 3.09825, -0.0988159, 3.09825, 1.4732825, 3.09825, -1.4656489, 3.09825, -4.4198475
0.3652941, -0.0109102, 3.105, -0.1459351, 3.105, -0.9943848, 3.105, -0.0914917, 3.105, 1.1908396, 3.105, -1.4122137, 3.105, -4.3587785
0.3660882, -0.0109102, 3.11175, -0.1497192, 3.11175, -0.9960938, 3.11175, -0.0966797, 3.11175, 1.5496184, 3.11175, -0.778626, 3.11175, -4.3969464
0.3668824, -0.012253, 3.1185, -0.1530762, 3.1185, -0.9919434, 3.1185, -0.09021, 3.1185, 1.2748091, 3.1185, -0.7175573, 3.1185, -4.3740458
0.3676765, -0.0172885, 3.12525, -0.1541748, 3.12525, -0.9891357, 3.12525, -0.0999146, 3.12525, 1.4503816, 3.12525, -0.4351145, 3.12525, -4.2290077
0.3684706, -0.0152743, 3.132, -0.1480103, 3.132, -0.9888916, 3.132, -0.0929565, 3.132, 1.1832061, 3.132, -0.8625954, 3.132, -4.2366414
0.3692647, -0.0154421, 3.13875, -0.1435547, 3.13875, -0.9962769, 3.13875, -0.0891113, 3.13875, 1.1068702, 3.13875, -0.7480916, 3.13875, -4.1679387
0.3700588, -0.0176242, 3.1455, -0.1399536, 3.1455, -0.9940796, 3.1455, -0.0935059, 3.1455, 1.2519084, 3.1455, -0.2137405, 3.1455, -4.1221375
0.3708529, -0.0203098, 3.15225, -0.1429443, 3.15225, -0.9940796, 3.15225, -0.0923462, 3.15225, 1.351145, 3.15225, 0.2900763, 3.15225, -4.2442746
0.3716471, -0.0172885, 3.159, -0.1436157, 3.159, -0.9946289, 3.159, -0.0916748, 3.159, 1.1221374, 3.159, 0.0763359, 3.159, -4.1984735
0.3724412, -0.018967, 3.16575, -0.1422119, 3.16575, -0.9949341, 3.16575, -0.0870972, 3.16575, 1.038168, 3.16575, 0.1679389, 3.16575, -4.0839696
0.3732353, -0.0184634, 3.1725, -0.1415405, 3.1725, -0.9921265, 3.1725, -0.088562, 3.1725, 0.908397, 3.1725, 0.2061069, 3.1725, -4.2290077
0.3740294, -0.0176242, 3.17925, -0.1451416, 3.17925, -0.9949341, 3.17925, -0.0865479, 3.17925, 0.778626, 3.17925, 0.4274809, 3.17925, -4.1603055
0.3748235, -0.0164492, 3.186, -0.1436157, 3.186, -0.9996948, 3.186, -0.0845337, 3.186, 0.7938932, 3.186, 0.6641222, 3.186, -3.8396947
0.3756176, -0.0139315, 3.19275, -0.144104, 3.19275, -1.0026245, 3.19275, -0.0821533, 3.19275, 0.8778626, 3.19275, 0.7633588, 3.19275, -4.0305343
0.3764118, -0.0129244, 3.1995, -0.1422119, 3.1995, -0.9995117, 3.1995, -0.0796509, 3.1995, 0.7709923, 3.1995, 1.0076336, 3.1995, -3.8473282
0.3772059, -0.0142672, 3.20625, -0.1425781, 3.20625, -0.9970093, 3.20625, -0.0840454, 3.20625, 0.610687, 3.20625, 1.5954199, 3.20625, -3.7938931
0.378, -0.0109102, 3.213, -0.1454468, 3.213, -0.9974976, 3.213, -0.0878296, 3.213, 0.3053435, 3.213, 2.3587787, 3.213, -3.8320611
0.3787941, -0.0135958, 3.21975, -0.1460571, 3.21975, -1.0004272, 3.21975, -0.0887451, 3.21975, 0.0152672, 3.21975, 2.8244274, 3.21975, -3.519084
0.3795882, -0.0139315, 3.2265, -0.1416016, 3.2265, -1.0006104, 3.2265, -0.0831299, 3.2265, -0.1603053, 3.2265, 2.9160306, 3.2265, -3.519084
0.3803824, -0.0105745, 3.23325, -0.1395264, 3.23325, -0.9981079, 3.23325, -0.0889282, 3.23325, -0.1068702, 3.23325, 3.2977099, 3.23325, -3.4732823
0.3811765, -0.0102388, 3.24, -0.1398315, 3.24, -0.9956055, 3.24, -0.0889282, 3.24, -0.1526718, 3.24, 3.5648854, 3.24, -3.5419848
0.3819706, -0.01561, 3.24675, -0.1400757, 3.24675, -0.9937134, 3.24675, -0.0924683, 3.24675, -0.3053435, 3.24675, 3.7251909, 3.24675, -3.2900763
0.3827647, -0.0176242, 3.2535, -0.1468506, 3.2535, -0.9957886, 3.2535, -0.0968018, 3.2535, -0.221374, 3.2535, 3.610687, 3.2535, -3.3358779
0.3835588, -0.0137636, 3.26025, -0.1455078, 3.26025, -0.9990234, 3.26025, -0.093811, 3.26025, -0.4580153, 3.26025, 3.0992367, 3.26025, -3.2061069
0.3843529, -0.0152743, 3.267, -0.1383667, 3.267, -0.9987793, 3.267, -0.0947876, 3.267, -0.221374, 3.267, 2.7709923, 3.267, -3.1526718
0.3851471, -0.0164492, 3.27375, -0.1347656, 3.27375, -0.9954834, 3.27375, -0.0939331, 3.27375, -0.3435115, 3.27375, 3.1526718, 3.27375, -3.0534351
0.3859412, -0.0135958, 3.2805, -0.1337891, 3.2805, -0.9986572, 3.2805, -0.0944214, 3.2805, -0.259542, 3.2805, 3.5038168, 3.2805, -2.9694657
0.3867353, -0.0179599, 3.28725, -0.1436157, 3.28725, -0.9984131, 3.28725, -0.0980835, 3.28725, -0.1603053, 3.28725, 4.1374044, 3.28725, -3.0152671
0.3875294, -0.0182956, 3.294, -0.152832, 3.294, -0.9972534, 3.294, -0.0975952, 3.294, -0.2442748, 3.294, 4.0534353, 3.294, -3.038168
0.3883235, -0.0169528, 3.30075, -0.1592407, 3.30075, -0.9981689, 3.30075, -0.097168, 3.30075, -0.3969466, 3.30075, 3.5877862, 3.30075, -2.8625953
0.3891176, -0.0176242, 3.3075, -0.1525879, 3.3075, -0.9954834, 3.3075, -0.0960083, 3.3075, -0.3358779, 3.3075, 3.3053436, 3.3075, -2.870229
0.3899118, -0.0179599, 3.31425, -0.1439819, 3.31425, -0.9942017, 3.31425, -0.0958862, 3.31425, -0.2824427, 3.31425, 3.2366412, 3.31425, -2.8778627
0.3907059, -0.0176242, 3.321, -0.1401978, 3.321, -0.9951172, 3.321, -0.0943604, 3.321, -0.2824427, 3.321, 3.5267177, 3.321, -2.9694657
0.3915, -0.0176242, 3.32775, -0.1398315, 3.32775, -0.9942017, 3.32775, -0.0976562, 3.32775, -0.389313, 3.32775, 3.7557251, 3.32775, -2.8320611
0.3922941, -0.0162814, 3.3345, -0.1462402, 3.3345, -0.9946899, 3.3345, -0.1048584, 3.3345, -0.2977099, 3.3345, 4.1526718, 3.3345, -2.7175572
0.3930882, -0.0129244, 3.34125, -0.1514282, 3.34125, -0.9957886, 3.34125, -0.102356, 3.34125, -0.4503817, 3.34125, 3.9465649, 3.34125, -2.6717558
0.3938824, -0.0099031, 3.348, -0.1516724, 3.348, -0.998291, 3.348, -0.1011963, 3.348, -0.3969466, 3.348, 3.4961832, 3.348, -2.5648854
0.3946765, -0.0090639, 3.35475, -0.1497192, 3.35475, -0.9968262, 3.35475, -0.1004028, 3.35475, -0.2519084, 3.35475, 2.8167939, 3.35475, -2.610687
0.3954706, -0.0109102, 3.3615, -0.1442871, 3.3615, -0.9977417, 3.3615, -0.0982056, 3.3615, -0.2824427, 3.3615, 2.6870229, 3.3615, -2.6946564
0.3962647, -0.0139315, 3.36825, -0.1454468, 3.36825, -0.9926147, 3.36825, -0.0991211, 3.36825, -0.4045801, 3.36825, 2.5801528, 3.36825, -2.6793892
0.3970588, -0.0129244, 3.375, -0.1461182, 3.375, -0.9939575, 3.375, -0.0999756, 3.375, -0.4198473, 3.375, 2.6870229, 3.375, -2.8549619
0.3978529, -0.0125887, 3.38175, -0.1499634, 3.38175, -0.9989014, 3.38175, -0.105896, 3.38175, -0.4198473, 3.38175, 2.7557251, 3.38175, -2.8091602
0.3986471, -0.0099031, 3.3885, -0.1533813, 3.3885, -0.9971924, 3.3885, -0.1038818, 3.3885, -0.5419847, 3.3885, 2.6335878, 3.3885, -2.8320611
0.3994412, -0.0099031, 3.39525, -0.1557007, 3.39525, -0.99646, 3.39525, -0.1049194, 3.39525, -0.0992366, 3.39525, 2.2900763, 3.39525, -2.8091602
0.4002353, -0.0125887, 3.402, -0.1588745, 3.402, -0.991272, 3.402, -0.1125488, 3.402, -0.1603053, 3.402, 2.1832061, 3.402, -2.8473282
0.4010294, -0.0151064, 3.40875, -0.1608276, 3.40875, -0.9917603, 3.40875, -0.112793, 3.40875, -0.221374, 3.40875, 1.9770992, 3.40875, -2.9389312
0.4018235, -0.017792, 3.4155, -0.1592407, 3.4155, -0.9937744, 3.4155, -0.111084, 3.4155, -0.1068702, 3.4155, 1.6717557, 3.4155, -2.8549619
0.4026176, -0.0209812, 3.42225, -0.15979, 3.42225, -0.9980469, 3.42225, -0.1150513, 3.42225, 0.0839695, 3.42225, 1.3816794, 3.42225, -2.7938931
0.4034118, -0.0216526, 3.429, -0.1606445, 3.429, -0.9995728, 3.429, -0.1156616, 3.429, 0.2900763, 3.429, 1.2366412, 3.429, -2.9465649
0.4042059, -0.0203098, 3.43575, -0.1607056, 3.43575, -0.9942017, 3.43575, -0.1175537, 3.43575, 0.2824427, 3.43575, 1.3816794, 3.43575, -3.2061069
0.405, -0.018967, 3.4425, -0.1605835, 3.4425, -0.9922485, 3.4425, -0.1193848, 3.4425, 0.5267175, 3.4425, 0.9465649, 3.4425, -3.1603053
0.4057941, -0.017792, 3.44925, -0.1584473, 3.44925, -0.994751, 3.44925, -0.1190186, 3.44925, 0.4045801, 3.44925, 0.7022901, 3.44925, -3.129771
0.4065882, -0.0176242, 3.456, -0.1536255, 3.456, -0.9924316, 3.456, -0.1165161, 3.456, 0.5648855, 3.456, 0.2671756, 3.456, -3.0152671
0.4073824, -0.01561, 3.46275, -0.1473389, 3.46275, -0.9900513, 3.46275, -0.1131592, 3.46275, 0.8167939, 3.46275, 0.1221374, 3.46275, -3
0.4081765, -0.0146029, 3.4695, -0.1425171, 3.4695, -0.9932251, 3.4695, -0.1094971, 3.4695, 0.5954198, 3.4695, 0.0763359, 3.4695, -3.0763359
0.4089706, -0.01561, 3.47625, -0.1393433, 3.47625, -0.9893799, 3.47625, -0.102417, 3.47625, 0.7022901, 3.47625, 0.2824427, 3.47625, -2.9923663
0.4097647, -0.0109102, 3.483, -0.1411743, 3.483, -0.9902344, 3.483, -0.1015625, 3.483, 0.5648855, 3.483, 0.648855, 3.483, -3.1603053
0.4105588, -0.0119173, 3.48975, -0.1397095, 3.48975, -0.992981, 3.48975, -0.1062622, 3.48975, 0.5725191, 3.48975, 0.7938932, 3.48975, -3.0534351
0.4113529, -0.0149386, 3.4965, -0.1477661, 3.4965, -0.9969482, 3.4965, -0.1034546, 3.4965, 0.648855, 3.4965, 0.6946565, 3.4965, -2.8244274
0.4121471, -0.01561, 3.50325, -0.1540527, 3.50325, -1.0006714, 3.50325, -0.0986328, 3.50325, 0.3969466, 3.50325, 0.7099237, 3.50325, -3.1221373
0.4129412, -0.0109102, 3.51, -0.1552734, 3.51, -0.994873, 3.51, -0.102478, 3.51, 0.5343512, 3.51, 0.1679389, 3.51, -3.1603053
0.4137353, -0.012253, 3.51675, -0.1512451, 3.51675, -0.9984131, 3.51675, -0.1035156, 3.51675, 0.480916, 3.51675, -0.0229008, 3.51675, -3.038168
0.4145294, -0.0095674, 3.5235, -0.1502686, 3.5235, -1.0004272, 3.5235, -0.0997314, 3.5235, 0.4122137, 3.5235, 0.0458015, 3.5235, -3.1603053
0.4153235, -0.0082246, 3.53025, -0.1473389, 3.53025, -1.0004272, 3.53025, -0.0986938, 3.53025, 0.4198473, 3.53025, 0.2824427, 3.53025, -2.9160306
0.4161176, -0.0132601, 3.537, -0.1453247, 3.537, -0.9993896, 3.537, -0.0983276, 3.537, 0.480916, 3.537, 0.778626, 3.537, -3.1068702
0.4169118, -0.0146029, 3.54375, -0.144043, 3.54375, -0.9959717, 3.54375, -0.1018677, 3.54375, 0.4961832, 3.54375, 0.9160305, 3.54375, -3.1755726
0.4177059, -0.0151064, 3.5505, -0.1466675, 3.5505, -0.9953613, 3.5505, -0.1037598, 3.5505, 0.3664122, 3.5505, 1.0534351, 3.5505, -3.2137403
0.4185, -0.0206455, 3.55725, -0.1519165, 3.55725, -0.9963989, 3.55725, -0.1030884, 3.55725, 0.4427481, 3.55725, 1.1984733, 3.55725, -2.9465649
0.4192941, -0.0169528, 3.564, -0.1477661, 3.564, -0.9954224, 3.564, -0.1052246, 3.564, 0.389313, 3.564, 1.4122137, 3.564, -2.8473282
0.4200882, -0.014435, 3.57075, -0.1467285, 3.57075, -0.994751, 3.57075, -0.1069946, 3.57075, 0.3587786, 3.57075, 1.1832061, 3.57075, -2.8396947
0.4208824, -0.0162814, 3.5775, -0.1530151, 3.5775, -0.9959106, 3.5775, -0.1045532, 3.5775, 0.2671756, 3.5775, 1.1832061, 3.5775, -2.6793892
0.4216765, -0.01561, 3.58425, -0.1538086, 3.58425, -0.9956665, 3.58425, -0.1100464, 3.58425, 0.2671756, 3.58425, 1.0152671, 3.58425, -2.8549619
0.4224706, -0.0169528, 3.591, -0.15802, 3.591, -0.9932861, 3.591, -0.1107178, 3.591, 0.3664122, 3.591, 0.3587786, 3.591, -2.961832
0.4232647, -0.0171206, 3.59775, -0.1609497, 3.59775, -0.9910889, 3.59775, -0.1113892, 3.59775, 0.519084, 3.59775, 0.3053435, 3.59775, -2.908397
0.4240588, -0.0149386, 3.6045, -0.1588745, 3.6045, -0.994873, 3.6045, -0.112854, 3.6045, 0.1984733, 3.6045, -0.1068702, 3.6045, -3.0839694
0.4248529, -0.0139315, 3.61125, -0.1598511, 3.61125, -0.9985962, 3.61125, -0.1079712, 3.61125, 0.2900763, 3.61125, -0.7251908, 3.61125, -3.2671757
0.4256471, -0.0109102, 3.618, -0.1588745, 3.618, -1.0008545, 3.618, -0.1103516, 3.618, 0.7099237, 3.618, -0.8244275, 3.618, -3.0610688
0.4264412, -0.0099031, 3.62475, -0.1556396, 3.62475, -1.0010376, 3.62475, -0.1096802, 3.62475, 0.9465649, 3.62475, -1.3587786, 3.62475, -3.1832061
0.4272353, -0.008896, 3.6315, -0.1564331, 3.6315, -0.9971924, 3.6315, -0.1135254, 3.6315, 1.0610687, 3.6315, -0.9923664, 3.6315, -3.259542
0.4280294, -0.0102388, 3.63825, -0.1582031, 3.63825, -0.9980469, 3.63825, -0.1151123, 3.63825, 1.0152671, 3.63825, -0.8167939, 3.63825, -3.2290077
0.4288235, -0.0075532, 3.645, -0.1581421, 3.645, -0.9986572, 3.645, -0.1159668, 3.645, 1.1603054, 3.645, -0.7709923, 3.645, -3.2366412
0.4296176, -0.0082246, 3.65175, -0.1573486, 3.65175, -1.0033569, 3.65175, -0.1077271, 3.65175, 1.3740458, 3.65175, -0.7938932, 3.65175, -3.3282442
0.4304118, -0.0083925, 3.6585, -0.1554565, 3.6585, -0.9993286, 3.6585, -0.1109009, 3.6585, 1.5419847, 3.6585, -0.961832, 3.6585, -3.3816793
0.4312059, -0.0104067, 3.66525, -0.1568604, 3.66525, -0.9956055, 3.66525, -0.1114502, 3.66525, 1.5801526, 3.66525, -1.0839695, 3.66525, -3.3282442
0.432, -0.012253, 3.672, -0.1500854, 3.672, -0.9951782, 3.672, -0.114502, 3.672, 1.6259542, 3.672, -1.0229008, 3.672, -3.2061069
0.4327941, -0.0142672, 3.67875, -0.1499023, 3.67875, -0.9932861, 3.67875, -0.1152954, 3.67875, 1.5496184, 3.67875, -1.2442749, 3.67875, -3.2290077
0.4335882, -0.0135958, 3.6855, -0.1436157, 3.6855, -0.993042, 3.6855, -0.1073608, 3.6855, 1.6335878, 3.6855, -1.5114504, 3.6855, -3.1526718
0.4343824, -0.0146029, 3.69225, -0.1372681, 3.69225, -0.9860229, 3.69225, -0.1057739, 3.69225, 1.3664122, 3.69225, -1.5038168, 3.69225, -3.1145039
0.4351765, -0.018967, 3.699, -0.1342773, 3.699, -0.9881592, 3.699, -0.1030884, 3.699, 1.1984733, 3.699, -1.2824427, 3.699, -2.9389312
0.4359706, -0.018967, 3.70575, -0.1317139, 3.70575, -0.9891968, 3.70575, -0.1029053, 3.70575, 1.2977099, 3.70575, -0.9923664, 3.70575, -2.9847329
0.4367647, -0.018967, 3.7125, -0.1358032, 3.7125, -0.9937134, 3.7125, -0.1026001, 3.7125, 0.908397, 3.7125, -0.9923664, 3.7125, -2.7480917
0.4375588, -0.0193027, 3.71925, -0.1358643, 3.71925, -0.9963379, 3.71925, -0.0980835, 3.71925, 0.778626, 3.71925, -0.8854962, 3.71925, -2.7709923
0.4383529, -0.0219883, 3.726, -0.1380005, 3.726, -0.9939575, 3.726, -0.095459, 3.726, 1.0610687, 3.726, -0.7251908, 3.726, -2.740458
0.4391471, -0.0219883, 3.73275, -0.140564, 3.73275, -0.9938354, 3.73275, -0.0993652, 3.73275, 1.1984733, 3.73275, -0.9160305, 3.73275, -2.6030533
0.4399412, -0.0198062, 3.7395, -0.1431274, 3.7395, -0.9953003, 3.7395, -0.1011353, 3.7395, 1.2519084, 3.7395, -0.9236641, 3.7395, -2.7862597
0.4407353, -0.0162814, 3.74625, -0.1398926, 3.74625, -1.0010986, 3.74625, -0.0948486, 3.74625, 1.1755725, 3.74625, -0.9007633, 3.74625, -2.6030533
0.4415294, -0.0129244, 3.753, -0.1392212, 3.753, -0.9976196, 3.753, -0.0966187, 3.753, 1.4427481, 3.753, -0.6946565, 3.753, -2.4122138
0.4423235, -0.0105745, 3.75975, -0.1428223, 3.75975, -0.9953613, 3.75975, -0.0947266, 3.75975, 1.389313, 3.75975, -0.1450382, 3.75975, -2.4351146
0.4431176, -0.0095674, 3.7665, -0.1426392, 3.7665, -0.9945068, 3.7665, -0.0974731, 3.7665, 1.0610687, 3.7665, 0.2748092, 3.7665, -2.1755726
0.4439118, -0.0082246, 3.77325, -0.1415405, 3.77325, -1.0007324, 3.77325, -0.0941162, 3.77325, 0.9923664, 3.77325, 0.5648855, 3.77325, -2.1832061
0.4447059, -0.0099031, 3.78, -0.1391602, 3.78, -1.0016479, 3.78, -0.0901489, 3.78, 1.2977099, 3.78, 1.0458015, 3.78, -2.1603053
0.4455, -0.008896, 3.78675, -0.1437988, 3.78675, -0.99823, 3.78675, -0.0926514, 3.78675, 1.3969465, 3.78675, 1.6259542, 3.78675, -2.091603
0.4462941, -0.0068818, 3.7935, -0.1471558, 3.7935, -0.9990234, 3.7935, -0.0919189, 3.7935, 1.0763359, 3.7935, 1.7099236, 3.7935, -2.0076337
0.4470882, -0.0070497, 3.80025, -0.1481934, 3.80025, -1.0009766, 3.80025, -0.0947876, 3.80025, 0.908397, 3.80025, 1.8854961, 3.80025, -1.9465649
0.4478824, -0.0102388, 3.807, -0.151062, 3.807, -1.005127, 3.807, -0.095459, 3.807, 0.6412213, 3.807, 1.7251909, 3.807, -1.9312977
0.4486765, -0.0129244, 3.81375, -0.1528931, 3.81375, -1.0039062, 3.81375, -0.0933838, 3.81375, 0.7175573, 3.81375, 1.5114504, 3.81375, -1.9236641
0.4494706, -0.0132601, 3.8205, -0.1542358, 3.8205, -1.0018311, 3.8205, -0.0982056, 3.8205, 0.7099237, 3.8205, 1.2442749, 3.8205, -2.1068702
0.4502647, -0.01561, 3.82725, -0.1531372, 3.82725, -1.0009766, 3.82725, -0.1002808, 3.82725, 0.6641222, 3.82725, 1.0152671, 3.82725, -2.1984732
0.4510588, -0.0209812, 3.834, -0.1484985, 3.834, -1.0001831, 3.834, -0.0996704, 3.834, 0.6946565, 3.834, 0.961832, 3.834, -2.0610688
0.4518529, -0.0193027, 3.84075, -0.1499634, 3.84075, -0.9963989, 3.84075, -0.1029053, 3.84075, 0.6183206, 3.84075, 1.1755725, 3.84075, -2.1908398
0.4526471, -0.0198062, 3.8475, -0.156189, 3.8475, -0.99823, 3.8475, -0.1074219, 3.8475, 0.778626, 3.8475, 1.1755725, 3.8475, -2.1450381
0.4534412, -0.0198062, 3.85425, -0.1588135, 3.85425, -0.9939575, 3.85425, -0.1083374, 3.85425, 0.7022901, 3.85425, 1.351145, 3.85425, -2.1450381
0.4542353, -0.0162814, 3.861, -0.1620483, 3.861, -0.9934082, 3.861, -0.1087036, 3.861, 0.7099237, 3.861, 1.0305344, 3.861, -2.1068702
0.4550294, -0.0176242, 3.86775, -0.1577759, 3.86775, -0.9935913, 3.86775, -0.1115112, 3.86775, 0.5725191, 3.86775, 0.8931298, 3.86775, -2.2061069
0.4558235, -0.0152743, 3.8745, -0.1577759, 3.8745, -0.9935303, 3.8745, -0.1116333, 3.8745, 0.648855, 3.8745, 0.7251908, 3.8745, -2.2671757
0.4566176, -0.012253, 3.88125, -0.1590576, 3.88125, -0.9919434, 3.88125, -0.1113892, 3.88125, 0.6183206, 3.88125, 0.4732825, 3.88125, -2.3664122
0.4574118, -0.0115816, 3.888, -0.1606445, 3.888, -0.993103, 3.888, -0.1098633, 3.888, 0.7480916, 3.888, 0.3282443, 3.888, -2.4274809
0.4582059, -0.014435, 3.89475, -0.1609497, 3.89475, -0.9925537, 3.89475, -0.1072998, 3.89475, 0.8091603, 3.89475, 0.0763359, 3.89475, -2.4122138
0.459, -0.0135958, 3.9015, -0.1629639, 3.9015, -0.9918213, 3.9015, -0.1063232, 3.9015, 0.870229, 3.9015, -0.0076336, 3.9015, -2.4503818
0.4597941, -0.0124208, 3.90825, -0.1612549, 3.90825, -0.9899902, 3.90825, -0.1072998, 3.90825, 0.7480916, 3.90825, -0.1984733, 3.90825, -2.5801528
0.4605882, -0.011078, 3.915, -0.1627808, 3.915, -0.9932251, 3.915, -0.1087036, 3.915, 0.8778626, 3.915, -0.0229008, 3.915, -2.6870229
0.4613824, -0.0119173, 3.92175, -0.1593628, 3.92175, -0.9937134, 3.92175, -0.1077881, 3.92175, 0.8167939, 3.92175, -0.389313, 3.92175, -2.7633588
0.4621765, -0.0104067, 3.9285, -0.1582642, 3.9285, -0.9937134, 3.9285, -0.1080322, 3.9285, 0.8015267, 3.9285, -0.519084, 3.9285, -2.7709923
0.4629706, -0.0102388, 3.93525, -0.1559448, 3.93525, -0.9920044, 3.93525, -0.1052246, 3.93525, 1.0992366, 3.93525, -0.610687, 3.93525, -2.7862597
0.4637647, -0.0099031, 3.942, -0.1561279, 3.942, -0.9952393, 3.942, -0.1091919, 3.942, 0.8549618, 3.942, -0.351145, 3.942, -2.8320611
0.4645588, -0.0105745, 3.94875, -0.1543579, 3.94875, -0.9987793, 3.94875, -0.1107788, 3.94875, 0.9389313, 3.94875, -0.3969466, 3.94875, -2.9389312
0.4653529, -0.0142672, 3.9555, -0.1571655, 3.9555, -0.9990234, 3.9555, -0.1051025, 3.9555, 1.2442749, 3.9555, -0.5496183, 3.9555, -3.1145039
0.4661471, -0.0146029, 3.96225, -0.1591797, 3.96225, -0.9980469, 3.96225, -0.1069336, 3.96225, 1.1679389, 3.96225, -0.5648855, 3.96225, -3.0839694
0.4669412, -0.0169528, 3.969, -0.1598511, 3.969, -0.9959106, 3.969, -0.1052856, 3.969, 1.1374046, 3.969, -0.7251908, 3.969, -3.0839694
0.4677353, -0.0152743, 3.97575, -0.1583862, 3.97575, -0.9995117, 3.97575, -0.1051025, 3.97575, 1.1603054, 3.97575, -0.9694657, 3.97575, -3.0839694
0.4685294, -0.0166171, 3.9825, -0.1575928, 3.9825, -0.998291, 3.9825, -0.1032104, 3.9825, 1.091603, 3.9825, -1.2824427, 3.9825, -3.1832061
0.4693235, -0.0159457, 3.98925, -0.1534424, 3.98925, -0.9975586, 3.98925, -0.105957, 3.98925, 0.9923664, 3.98925, -1.2748091, 3.98925, -3.1832061
0.4701176, -0.0176242, 3.996, -0.1546631, 3.996, -0.9945679, 3.996, -0.1036987, 3.996, 0.9694657, 3.996, -1.2824427, 3.996, -3.1068702
0.4709118, -0.0203098, 4.00275, -0.1540527, 4.00275, -0.9932861, 4.00275, -0.1029663, 4.00275, 1.038168, 4.00275, -1.1450381, 4.00275, -3.3129771
0.4717059, -0.0186313, 4.0095, -0.1578979, 4.0095, -0.9955444, 4.0095, -0.1022339, 4.0095, 1.1832061, 4.0095, -1.221374, 4.0095, -3.2900763
0.4725, -0.0172885, 4.01625, -0.1607666, 4.01625, -1.0003662, 4.01625, -0.1033936, 4.01625, 1.2900764, 4.01625, -1.2442749, 4.01625, -3.259542
0.4732941, -0.0149386, 4.023, -0.156189, 4.023, -0.9993286, 4.023, -0.1038818, 4.023, 1.3206106, 4.023, -1.2061069, 4.023, -3.3435113
0.4740882, -0.0164492, 4.02975, -0.1553955, 4.02975, -0.9987793, 4.02975, -0.104248, 4.02975, 1.4503816, 4.02975, -1.1603054, 4.02975, -3.4045801
0.4748824, -0.0157778, 4.0365, -0.151001, 4.0365, -0.993103, 4.0365, -0.1044312, 4.0365, 1.4351145, 4.0365, -1.0152671, 4.0365, -3.4732823
0.4756765, -0.0184634, 4.04325, -0.1511841, 4.04325, -0.9945679, 4.04325, -0.104248, 4.04325, 1.3282443, 4.04325, -0.4503817, 4.04325, -3.2824428
0.4764706, -0.0162814, 4.05, -0.151123, 4.05, -0.9943237, 4.05, -0.1071167, 4.05, 1.3969465, 4.05, -0.1984733, 4.05, -3.2519083
0.4772647, -0.0146029, 4.05675, -0.1520386, 4.05675, -0.9961548, 4.05675, -0.1020508, 4.05675, 1.2748091, 4.05675, 0.2290076, 4.05675, -3.1603053
0.4780588, -0.0142672, 4.0635, -0.1520996, 4.0635, -0.9956665, 4.0635, -0.1036987, 4.0635, 1.4580153, 4.0635, 0.1755725, 4.0635, -3.259542
0.4788529, -0.0115816, 4.07025, -0.1524658, 4.07025, -0.996521, 4.07025, -0.1037598, 4.07025, 1.3129771, 4.07025, 0.1374046, 4.07025, -3.3282442
0.4796471, -0.0095674, 4.077, -0.1518555, 4.077, -0.9935303, 4.077, -0.1050415, 4.077, 1.221374, 4.077, 0.2366412, 4.077, -3.1755726
0.4804412, -0.0085603, 4.08375, -0.1578979, 4.08375, -0.9941406, 4.08375, -0.1073608, 4.08375, 1.2748091, 4.08375, 0.2748092, 4.08375, -3.2290077
0.4812353, -0.0102388, 4.0905, -0.1550293, 4.0905, -0.9980469, 4.0905, -0.1051636, 4.0905, 1.2137405, 4.0905, 0.1526718, 4.0905, -3.259542
0.4820294, -0.0135958, 4.09725, -0.1516113, 4.09725, -1, 4.09725, -0.105835, 4.09725, 1.3740458, 4.09725, -0.0534351, 4.09725, -3.3206108
0.4828235, -0.014435, 4.104, -0.1535034, 4.104, -0.9980469, 4.104, -0.1056519, 4.104, 1.2748091, 4.104, -0.0534351, 4.104, -3.2748091
0.4836176, -0.0169528, 4.11075, -0.15448, 4.11075, -0.9960327, 4.11075, -0.1049194, 4.11075, 1.2442749, 4.11075, -0.2900763, 4.11075, -3.3740458
0.4844118, -0.0176242, 4.1175, -0.1538086, 4.1175, -0.9932251, 4.1175, -0.107666, 4.1175, 1.2824427, 4.1175, -0.1526718, 4.1175, -3.3664122
0.4852059, -0.0196384, 4.12425, -0.15271, 4.12425, -0.9943848, 4.12425, -0.1049805, 4.12425, 1.1603054, 4.12425, -0.1068702, 4.12425, -3.351145
0.486, -0.018967, 4.131, -0.1546631, 4.131, -0.9943848, 4.131, -0.105896, 4.131, 1.4274809, 4.131, 0.0763359, 4.131, -3.3129771
0.4867941, -0.0196384, 4.13775, -0.1518555, 4.13775, -0.9919434, 4.13775, -0.1030884, 4.13775, 1.2748091, 4.13775, 0.0763359, 4.13775, -3.389313
0.4875882, -0.0199741, 4.1445, -0.1516724, 4.1445, -0.9942017, 4.1445, -0.1032104, 4.1445, 1.3358779, 4.1445, 0.2977099, 4.1445, -3.221374
0.4883824, -0.0196384, 4.15125, -0.1487427, 4.15125, -0.9937134, 4.15125, -0.1051025, 4.15125, 1.2977099, 4.15125, 0.3740458, 4.15125, -3.3969467
0.4891765, -0.0250095, 4.158, -0.1499634, 4.158, -0.9937744, 4.158, -0.1030884, 4.158, 1.1221374, 4.158, 0.8167939, 4.158, -3.1450381
0.4899706, -0.0203098, 4.16475, -0.1498413, 4.16475, -0.9951172, 4.16475, -0.102417, 4.16475, 1.1603054, 4.16475, 1.0687023, 4.16475, -3.0534351
0.4907647, -0.0209812, 4.1715, -0.1495361, 4.1715, -0.9909058, 4.1715, -0.1026001, 4.1715, 1.0992366, 4.1715, 1.091603, 4.1715, -3.1603053
0.4915588, -0.018967, 4.17825, -0.1478882, 4.17825, -0.9932861, 4.17825, -0.0976562, 4.17825, 1.129771, 4.17825, 1.3282443, 4.17825, -3.0687022
0.4923529, -0.0176242, 4.185, -0.1483765, 4.185, -0.994812, 4.185, -0.0977783, 4.185, 1.3053435, 4.185, 1.3435115, 4.185, -3.1526718
0.4931471, -0.0142672, 4.19175, -0.1505127, 4.19175, -0.9997559, 4.19175, -0.0986938, 4.19175, 1.0305344, 4.19175, 1.5877863, 4.19175, -3.1832061
0.4939412, -0.012253, 4.1985, -0.1505127, 4.1985, -0.9993896, 4.1985, -0.1002197, 4.1985, 1.129771, 4.1985, 1.8549619, 4.1985, -3.1984732
0.4947353, -0.014435, 4.20525, -0.1484375, 4.20525, -0.9993896, 4.20525, -0.0997314, 4.20525, 1.1908396, 4.20525, 1.8244275, 4.20525, -2.9847329
0.4955294, -0.0139315, 4.212, -0.1507568, 4.212, -0.9979858, 4.212, -0.0997314, 4.212, 0.9389313, 4.212, 1.8473282, 4.212, -3.1679389
0.4963235, -0.011078, 4.21875, -0.1550903, 4.21875, -0.9962158, 4.21875, -0.0993042, 4.21875, 0.9465649, 4.21875, 1.8473282, 4.21875, -3.2900763
0.4971176, -0.0095674, 4.2255, -0.1602173, 4.2255, -0.9953003, 4.2255, -0.1040649, 4.2255, 1.0458015, 4.2255, 1.8396946, 4.2255, -3.3206108
0.4979118, -0.0105745, 4.23225, -0.1635742, 4.23225, -0.9940796, 4.23225, -0.105957, 4.23225, 1.0534351, 4.23225, 1.9007634, 4.23225, -3.2671757
0.4987059, -0.0149386, 4.239, -0.1600342, 4.239, -0.9976196, 4.239, -0.1088257, 4.239, 1.0839695, 4.239, 1.9694656, 4.239, -3.5496182
0.4995, -0.0135958, 4.24575, -0.1584473, 4.24575, -0.996582, 4.24575, -0.1096191, 4.24575, 1.0229008, 4.24575, 1.8396946, 4.24575, -3.5114503
0.5002941, -0.0125887, 4.2525, -0.1592407, 4.2525, -0.993103, 4.2525, -0.1087036, 4.2525, 1.0229008, 4.2525, 1.9694656, 4.2525, -3.2900763
0.5010882, -0.0109102, 4.25925, -0.1602173, 4.25925, -0.9927979, 4.25925, -0.1079102, 4.25925, 1.1221374, 4.25925, 1.8549619, 4.25925, -3.2137403
0.5018824, -0.0132601, 4.266, -0.157959, 4.266, -0.9942627, 4.266, -0.105835, 4.266, 1.2137405, 4.266, 2.0152671, 4.266, -3.2900763
0.5026765, -0.0135958, 4.27275, -0.1553955, 4.27275, -0.9929199, 4.27275, -0.1116943, 4.27275, 1.038168, 4.27275, 2.091603, 4.27275, -3.3740458
0.5034706, -0.0132601, 4.2795, -0.152771, 4.2795, -0.9943848, 4.2795, -0.109436, 4.2795, 1.0839695, 4.2795, 1.908397, 4.2795, -3.4732823
0.5042647, -0.0159457, 4.28625, -0.1553955, 4.28625, -0.9922485, 4.28625, -0.1088257, 4.28625, 1.2748091, 4.28625, 1.7557251, 4.28625, -3.4656489
0.5050588, -0.0157778, 4.293, -0.1546021, 4.293, -0.9928589, 4.293, -0.107605, 4.293, 1.1832061, 4.293, 1.8091604, 4.293, -3.3587787
0.5058529, -0.0186313, 4.29975, -0.1549072, 4.29975, -0.9942017, 4.29975, -0.1043091, 4.29975, 1.0305344, 4.29975, 1.870229, 4.29975, -3.5496182
0.5066471, -0.01561, 4.3065, -0.1516724, 4.3065, -0.9940796, 4.3065, -0.1029053, 4.3065, 1.2137405, 4.3065, 1.8167939, 4.3065, -3.4885497
0.5074412, -0.0135958, 4.31325, -0.1504517, 4.31325, -0.9954834, 4.31325, -0.1021729, 4.31325, 1.2061069, 4.31325, 1.6183206, 4.31325, -3.5496182
0.5082353, -0.0109102, 4.32, -0.1529541, 4.32, -0.9958496, 4.32, -0.1021118, 4.32, 1.1145039, 4.32, 1.610687, 4.32, -3.519084
0.5090294, -0.0109102, 4.32675, -0.1549683, 4.32675, -0.9966431, 4.32675, -0.1029053, 4.32675, 0.9312977, 4.32675, 1.6183206, 4.32675, -3.610687
0.5098235, -0.0105745, 4.3335, -0.1523438, 4.3335, -0.9987183, 4.3335, -0.1035767, 4.3335, 1.038168, 4.3335, 1.7099236, 4.3335, -3.6259542
0.5106176, -0.0109102, 4.34025, -0.1546021, 4.34025, -0.9979858, 4.34025, -0.104187, 4.34025, 1.1450381, 4.34025, 1.8091604, 4.34025, -3.778626
0.5114118, -0.0104067, 4.347, -0.1577148, 4.347, -0.9970703, 4.347, -0.1045532, 4.347, 1.0152671, 4.347, 1.7938931, 4.347, -3.6793892
0.5122059, -0.0102388, 4.35375, -0.1570435, 4.35375, -0.994812, 4.35375, -0.1092529, 4.35375, 0.8931298, 4.35375, 1.7862595, 4.35375, -3.6641221
0.513, -0.0085603, 4.3605, -0.1549683, 4.3605, -0.9960327, 4.3605, -0.1080322, 4.3605, 0.9847328, 4.3605, 1.610687, 4.3605, -3.6412213
0.5137941, -0.0115816, 4.36725, -0.1546021, 4.36725, -0.9929199, 4.36725, -0.1101074, 4.36725, 1.1832061, 4.36725, 1.5419847, 4.36725, -3.6793892
0.5145882, -0.0125887, 4.374, -0.1560059, 4.374, -0.9940186, 4.374, -0.1130981, 4.374, 1.3435115, 4.374, 1.4122137, 4.374, -3.7175572
0.5153824, -0.0099031, 4.38075, -0.1540527, 4.38075, -0.9942017, 4.38075, -0.1113892, 4.38075, 1.3816794, 4.38075, 1.3740458, 4.38075, -3.7557251
0.5161765, -0.0104067, 4.3875, -0.1550293, 4.3875, -0.9971313, 4.3875, -0.1112671, 4.3875, 1.3206106, 4.3875, 1.4656489, 4.3875, -3.8244274
0.5169706, -0.0115816, 4.39425, -0.1546021, 4.39425, -0.9942017, 4.39425, -0.1107178, 4.39425, 1.3969465, 4.39425, 1.3664122, 4.39425, -3.6259542
0.5177647, -0.0124208, 4.401, -0.1537476, 4.401, -0.9976196, 4.401, -0.1115723, 4.401, 1.3206106, 4.401, 1.1832061, 4.401, -3.7557251
0.5185588, -0.0129244, 4.40775, -0.1568604, 4.40775, -0.9967041, 4.40775, -0.1101685, 4.40775, 1.2977099, 4.40775, 1.091603, 4.40775, -3.7251909
0.5193529, -0.0135958, 4.4145, -0.1529541, 4.4145, -0.9981689, 4.4145, -0.1068115, 4.4145, 1.519084, 4.4145, 0.9541985, 4.4145, -3.6717558
0.5201471, -0.012253, 4.42125, -0.152771, 4.42125, -0.9978027, 4.42125, -0.1062622, 4.42125, 1.5954199, 4.42125, 1.0458015, 4.42125, -3.5954199
0.5209412, -0.011078, 4.428, -0.15271, 4.428, -0.9937744, 4.428, -0.1055298, 4.428, 1.519084, 4.428, 1.0610687, 4.428, -4.0229006
0.5217353, -0.0132601, 4.43475, -0.1517944, 4.43475, -0.9954834, 4.43475, -0.1074829, 4.43475, 1.5267175, 4.43475, 1.0152671, 4.43475, -3.908397
0.5225294, -0.01561, 4.4415, -0.1535034, 4.4415, -0.9971924, 4.4415, -0.1094971, 4.4415, 1.5725191, 4.4415, 1.2366412, 4.4415, -3.870229
0.5233235, -0.0125887, 4.44825, -0.1561279, 4.44825, -0.9973145, 4.44825, -0.1080933, 4.44825, 1.7557251, 4.44825, 1.0534351, 4.44825, -3.8091602
0.5241176, -0.0135958, 4.455, -0.1520996, 4.455, -0.9959717, 4.455, -0.1055908, 4.455, 1.5648855, 4.455, 0.9160305, 4.455, -3.7633588
0.5249118, -0.01561, 4.46175, -0.1488037, 4.46175, -0.9978027, 4.46175, -0.1072388, 4.46175, 1.5419847, 4.46175, 0.6412213, 4.46175, -3.8778627
0.5257059, -0.01561, 4.4685, -0.1508179, 4.4685, -0.9945679, 4.4685, -0.104187, 4.4685, 1.6030535, 4.4685, 0.7022901, 4.4685, -3.7480917
0.5265, -0.0142672, 4.47525, -0.1482544, 4.47525, -0.9941406, 4.47525, -0.1015625, 4.47525, 1.5648855, 4.47525, 0.908397, 4.47525, -3.7633588
0.5272941, -0.0149386, 4.482, -0.1499023, 4.482, -0.9954834, 4.482, -0.1035156, 4.482, 1.5725191, 4.482, 1.1450381, 4.482, -3.7633588
0.5280882, -0.0149386, 4.48875, -0.1507568, 4.48875, -0.9985352, 4.48875, -0.1030273, 4.48875, 1.740458, 4.48875, 1.3129771, 4.48875, -3.8244274
0.5288824, -0.0125887, 4.4955, -0.1506348, 4.4955, -0.9989624, 4.4955, -0.1021118, 4.4955, 1.6183206, 4.4955, 1.2824427, 4.4955, -3.7251909
0.5296765, -0.0135958, 4.50225, -0.1514282, 4.50225, -0.9937134, 4.50225, -0.1049194, 4.50225, 1.5877863, 4.50225, 1.3358779, 4.50225, -3.7938931
0.5304706, -0.0125887, 4.509, -0.152771, 4.509, -0.994873, 4.509, -0.1035767, 4.509, 1.5648855, 4.509, 1.2442749, 4.509, -3.6259542
0.5312647, -0.0159457, 4.51575, -0.1506348, 4.51575, -0.9972534, 4.51575, -0.1029663, 4.51575, 1.5954199, 4.51575, 1.1068702, 4.51575, -3.6335878
0.5320588, -0.0159457, 4.5225, -0.1474609, 4.5225, -0.9938354, 4.5225, -0.1087646, 4.5225, 1.4503816, 4.5225, 1.2824427, 4.5225, -3.4656489
0.5328529, -0.0184634, 4.52925, -0.1471558, 4.52925, -0.9927368, 4.52925, -0.1049194, 4.52925, 1.4274809, 4.52925, 1.519084, 4.52925, -3.6259542
0.5336471, -0.0172885, 4.536, -0.1505737, 4.536, -0.9899292, 4.536, -0.1062622, 4.536, 1.5572519, 4.536, 1.5267175, 4.536, -3.648855
0.5344412, -0.0186313, 4.54275, -0.1482544, 4.54275, -0.9917603, 4.54275, -0.1078491, 4.54275, 1.4961832, 4.54275, 1.6335878, 4.54275, -3.5572519
0.5352353, -0.023331, 4.5495, -0.151062, 4.5495, -0.9921875, 4.5495, -0.1061401, 4.5495, 1.351145, 4.5495, 1.4122137, 4.5495, -3.5114503
0.5360294, -0.0243381, 4.55625, -0.1488647, 4.55625, -0.9943237, 4.55625, -0.1044312, 4.55625, 1.4885496, 4.55625, 1.1908396, 4.55625, -3.6030533
0.5368235, -0.0224918, 4.563, -0.1446533, 4.563, -0.9959106, 4.563, -0.1065063, 4.563, 1.4198474, 4.563, 1.0610687, 4.563, -3.4885497
0.5376176, -0.0204776, 4.56975, -0.1442261, 4.56975, -0.9942627, 4.56975, -0.1034546, 4.56975, 1.3129771, 4.56975, 0.8778626, 4.56975, -3.610687
0.5384118, -0.0226596, 4.5765, -0.1461792, 4.5765, -0.9954834, 4.5765, -0.1035156, 4.5765, 1.3282443, 4.5765, 0.8320611, 4.5765, -3.480916
0.5392059, -0.0223239, 4.58325, -0.1469727, 4.58325, -0.9976196, 4.58325, -0.1005249, 4.58325, 1.2366412, 4.58325, 0.8854962, 4.58325, -3.2824428
0.54, -0.0206455, 4.59, -0.1467896, 4.59, -1.0023804, 4.59, -0.1025391, 4.59, 1.2442749, 4.59, 0.9694657, 4.59, -3.3816793
0.5407941, -0.0179599, 4.59675, -0.1515503, 4.59675, -1.0002441, 4.59675, -0.1055298, 4.59675, 1.2671756, 4.59675, 0.8854962, 4.59675, -3.4198472
0.5415882, -0.01561, 4.6035, -0.1497803, 4.6035, -0.9997559, 4.6035, -0.1049805, 4.6035, 1.3740458, 4.6035, 0.7862595, 4.6035, -3.5954199
0.5423824, -0.012253, 4.61025, -0.1499634, 4.61025, -0.99646, 4.61025, -0.1035156, 4.61025, 1.519084, 4.61025, 0.740458, 4.61025, -3.4198472
0.5431765, -0.012253, 4.617, -0.1464233, 4.617, -0.9938965, 4.617, -0.1090698, 4.617, 1.5114504, 4.617, 0.7862595, 4.617, -3.351145
0.5439706, -0.0104067, 4.62375, -0.1478882, 4.62375, -0.9937134, 4.62375, -0.109314, 4.62375, 1.4503816, 4.62375, 0.870229, 4.62375, -3.4580152
0.5447647, -0.008896, 4.6305, -0.1502075, 4.6305, -0.9940796, 4.6305, -0.1065063, 4.6305, 1.4580153, 4.6305, 1.0076336, 4.6305, -3.3358779
0.5455588, -0.0104067, 4.63725, -0.1506958, 4.63725, -0.9954224, 4.63725, -0.1101074, 4.63725, 1.5877863, 4.63725, 1, 4.63725, -3.351145
0.5463529, -0.011078, 4.644, -0.1521606, 4.644, -0.9946289, 4.644, -0.1092529, 4.644, 1.519084, 4.644, 0.9007633, 4.644, -3.4045801
0.5471471, -0.0109102, 4.65075, -0.1531982, 4.65075, -0.9942627, 4.65075, -0.1091919, 4.65075, 1.5343511, 4.65075, 0.9007633, 4.65075, -3.3587787
0.5479412, -0.0134279, 4.6575, -0.1519775, 4.6575, -0.9945068, 4.6575, -0.1072388, 4.6575, 1.5114504, 4.6575, 0.8320611, 4.6575, -3.2900763
0.5487353, -0.0135958, 4.66425, -0.1504517, 4.66425, -0.9961548, 4.66425, -0.1106567, 4.66425, 1.6030535, 4.66425, 0.7557252, 4.66425, -3.2137403
0.5495294, -0.0169528, 4.671, -0.1489868, 4.671, -0.9986572, 4.671, -0.1090088, 4.671, 1.4045801, 4.671, 0.7480916, 4.671, -3.1603053
0.5503235, -0.012253, 4.67775, -0.1464233, 4.67775, -0.9943237, 4.67775, -0.1081543, 4.67775, 1.5877863, 4.67775, 0.740458, 4.67775, -3.0229008
0.5511176, -0.0109102, 4.6845, -0.147522, 4.6845, -0.9920044, 4.6845, -0.1047974, 4.6845, 1.6412214, 4.6845, 0.6335878, 4.6845, -3.0458016
0.5519118, -0.0164492, 4.69125, -0.1512451, 4.69125, -0.9929199, 4.69125, -0.1046753, 4.69125, 1.4503816, 4.69125, 0.8778626, 4.69125, -3.1679389
0.5527059, -0.0203098, 4.698, -0.152832, 4.698, -0.9956055, 4.698, -0.1044922, 4.698, 1.5038168, 4.698, 0.8244275, 4.698, -3.2290077
0.5535, -0.0159457, 4.70475, -0.1524658, 4.70475, -0.9963989, 4.70475, -0.1040649, 4.70475, 1.4274809, 4.70475, 0.6183206, 4.70475, -3.2824428
0.5542941, -0.0149386, 4.7115, -0.1519165, 4.7115, -0.9980469, 4.7115, -0.1035767, 4.7115, 1.519084, 4.7115, 0.5725191, 4.7115, -3.2442749
0.5550882, -0.0130922, 4.71825, -0.1511841, 4.71825, -0.9974976, 4.71825, -0.1029663, 4.71825, 1.5114504, 4.71825, 0.5877863, 4.71825, -3.2671757
0.5558824, -0.0119173, 4.725, -0.1504517, 4.725, -0.9959106, 4.725, -0.1047363, 4.725, 1.4961832, 4.725, 0.5267175, 4.725, -3.2137403
0.5566765, -0.0176242, 4.73175, -0.1490479, 4.73175, -0.9997559, 4.73175, -0.1079102, 4.73175, 1.3969465, 4.73175, 0.6564885, 4.73175, -3.1374047
0.5574706, -0.0169528, 4.7385, -0.1541748, 4.7385, -0.9987183, 4.7385, -0.1070557, 4.7385, 1.4427481, 4.7385, 0.5267175, 4.7385, -3.2748091
0.5582647, -0.0135958, 4.74525, -0.151001, 4.74525, -0.9976196, 4.74525, -0.1043701, 4.74525, 1.5038168, 4.74525, 0.3358779, 4.74525, -3.0992367
0.5590588, -0.0166171, 4.752, -0.1519775, 4.752, -0.9955444, 4.752, -0.1036987, 4.752, 1.4961832, 4.752, 0.1679389, 4.752, -3.1603053
0.5598529, -0.0151064, 4.75875, -0.1486206, 4.75875, -0.9973755, 4.75875, -0.1072388, 4.75875, 1.6335878, 4.75875, 0.1984733, 4.75875, -3.1068702
0.5606471, -0.0135958, 4.7655, -0.1484985, 4.7655, -0.996521, 4.7655, -0.1081543, 4.7655, 1.5496184, 4.7655, 0.1908397, 4.7655, -3.3129771
0.5614412, -0.0135958, 4.77225, -0.1488647, 4.77225, -0.9966431, 4.77225, -0.1074219, 4.77225, 1.648855, 4.77225, 0.1526718, 4.77225, -3.1450381
0.5622353, -0.011078, 4.779, -0.1477661, 4.779, -0.9941406, 4.779, -0.1086426, 4.779, 1.5954199, 4.779, 0.0916031, 4.779, -3.0763359
0.5630294, -0.008896, 4.78575, -0.1505127, 4.78575, -0.9992676, 4.78575, -0.1053467, 4.78575, 1.778626, 4.78575, 0.0152672, 4.78575, -3.1603053
0.5638235, -0.0092317, 4.7925, -0.1538086, 4.7925, -0.9962158, 4.7925, -0.1065674, 4.7925, 1.7251909, 4.7925, -0.0229008, 4.7925, -3.0610688
0.5646176, -0.0077211, 4.79925, -0.1542969, 4.79925, -0.9951172, 4.79925, -0.1096191, 4.79925, 1.6870229, 4.79925, -0.2137405, 4.79925, -3.0534351
0.5654118, -0.0109102, 4.806, -0.152832, 4.806, -0.9935913, 4.806, -0.1085205, 4.806, 1.7328244, 4.806, -0.4580153, 4.806, -3.1068702
0.5662059, -0.0135958, 4.81275, -0.1508789, 4.81275, -0.9921875, 4.81275, -0.1086426, 4.81275, 1.778626, 4.81275, -0.519084, 4.81275, -3.0763359
0.567, -0.0102388, 4.8195, -0.1514893, 4.8195, -0.9916992, 4.8195, -0.1068115, 4.8195, 1.7633588, 4.8195, -0.6641222, 4.8195, -3.2290077
0.5677941, -0.0109102, 4.82625, -0.1488647, 4.82625, -0.992981, 4.82625, -0.1040039, 4.82625, 1.8320611, 4.82625, -0.4961832, 4.82625, -3.1908398
0.5685882, -0.0139315, 4.833, -0.1484375, 4.833, -0.9985352, 4.833, -0.1053467, 4.833, 1.740458, 4.833, -0.4427481, 4.833, -3.129771
0.5693824, -0.0193027, 4.83975, -0.1512451, 4.83975, -0.9943848, 4.83975, -0.1030273, 4.83975, 1.8625954, 4.83975, -0.3587786, 4.83975, -3.0458016
0.5701765, -0.0204776, 4.8465, -0.1491089, 4.8465, -0.9970093, 4.8465, -0.1019287, 4.8465, 1.7022901, 4.8465, -0.2519084, 4.8465, -3.1068702
0.5709706, -0.0176242, 4.85325, -0.1501465, 4.85325, -0.9972534, 4.85325, -0.1022949, 4.85325, 1.7709924, 4.85325, 0.0763359, 4.85325, -3.0229008
0.5717647, -0.0149386, 4.86, -0.1502075, 4.86, -0.9990234, 4.86, -0.1021118, 4.86, 1.610687, 4.86, -0.0076336, 4.86, -2.9923663
0.5725588, -0.0146029, 4.86675, -0.149353, 4.86675, -0.9980469, 4.86675, -0.098999, 4.86675, 1.8549619, 4.86675, 0.2137405, 4.86675, -2.9389312
0.5733529, -0.014435, 4.8735, -0.1491089, 4.8735, -0.9928589, 4.8735, -0.1011353, 4.8735, 1.6717557, 4.8735, 0.3129771, 4.8735, -2.8549619
0.5741471, -0.0115816, 4.88025, -0.1488037, 4.88025, -0.9973145, 4.88025, -0.1017456, 4.88025, 1.7022901, 4.88025, 0.5419847, 4.88025, -2.778626
0.5749412, -0.0085603, 4.887, -0.1505127, 4.887, -0.9951172, 4.887, -0.0999146, 4.887, 1.7633588, 4.887, 0.6870229, 4.887, -2.7709923
0.5757353, -0.0105745, 4.89375, -0.1511841, 4.89375, -0.9976196, 4.89375, -0.0996094, 4.89375, 1.6793894, 4.89375, 0.4961832, 4.89375, -2.6717558
0.5765294, -0.0129244, 4.9005, -0.1484375, 4.9005, -0.9959717, 4.9005, -0.0997925, 4.9005, 1.5419847, 4.9005, 0.5954198, 4.9005, -2.8167939
0.5773235, -0.0109102, 4.90725, -0.1483154, 4.90725, -0.9957275, 4.90725, -0.0973511, 4.90725, 1.6870229, 4.90725, 0.6030535, 4.90725, -2.6946564
0.5781176, -0.0095674, 4.914, -0.1474609, 4.914, -0.9963989, 4.914, -0.1004639, 4.914, 1.5954199, 4.914, 0.5114504, 4.914, -2.7557251
0.5789118, -0.0083925, 4.92075, -0.1448364, 4.92075, -0.9951172, 4.92075, -0.098938, 4.92075, 1.4198474, 4.92075, 0.7328244, 4.92075, -2.7251909
0.5797059, -0.0104067, 4.9275, -0.1465454, 4.9275, -0.9949951, 4.9275, -0.0966187, 4.9275, 1.480916, 4.9275, 0.908397, 4.9275, -2.870229
0.5805, -0.0092317, 4.93425, -0.1486816, 4.93425, -0.9937134, 4.93425, -0.0984497, 4.93425, 1.3587786, 4.93425, 0.8625954, 4.93425, -2.7175572
0.5812941, -0.012253, 4.941, -0.1489258, 4.941, -0.9940796, 4.941, -0.0968628, 4.941, 1.3969465, 4.941, 0.7633588, 4.941, -2.7251909
0.5820882, -0.0140993, 4.94775, -0.147583, 4.94775, -0.9957886, 4.94775, -0.0993652, 4.94775, 1.4885496, 4.94775, 0.9160305, 4.94775, -2.5954199
0.5828824, -0.0125887, 4.9545, -0.1514282, 4.9545, -0.9926147, 4.9545, -0.1002808, 4.9545, 1.4961832, 4.9545, 0.9847328, 4.9545, -2.5496182
0.5836765, -0.0149386, 4.96125, -0.1500854, 4.96125, -0.9945068, 4.96125, -0.0999146, 4.96125, 1.4732825, 4.96125, 1.0763359, 4.96125, -2.6946564
0.5844706, -0.0162814, 4.968, -0.1506958, 4.968, -0.9961548, 4.968, -0.1000977, 4.968, 1.4198474, 4.968, 1.1374046, 4.968, -2.7175572
0.5852647, -0.0162814, 4.97475, -0.1558228, 4.97475, -0.9941406, 4.97475, -0.1011353, 4.97475, 1.519084, 4.97475, 0.8854962, 4.97475, -2.6564887
0.5860588, -0.0203098, 4.9815, -0.1518555, 4.9815, -0.9966431, 4.9815, -0.1055908, 4.9815, 1.4656489, 4.9815, 1.221374, 4.9815, -2.7709923
0.5868529, -0.0206455, 4.98825, -0.1572876, 4.98825, -0.9977417, 4.98825, -0.1053467, 4.98825, 1.480916, 4.98825, 1.129771, 4.98825, -2.5267177
0.5876471, -0.0186313, 4.995, -0.1550293, 4.995, -0.9973145, 4.995, -0.1028442, 4.995, 1.7022901, 4.995, 1.1068702, 4.995, -2.5496182
0.5884412, -0.0196384, 5.00175, -0.152771, 5.00175, -0.9956665, 5.00175, -0.1045532, 5.00175, 1.6870229, 5.00175, 1.129771, 5.00175, -2.5877862
0.5892353, -0.0152743, 5.0085, -0.1574707, 5.0085, -0.9956665, 5.0085, -0.1043091, 5.0085, 1.5877863, 5.0085, 0.9541985, 5.0085, -2.7557251
0.5900294, -0.0142672, 5.01525, -0.1538696, 5.01525, -0.9956665, 5.01525, -0.1043091, 5.01525, 1.6946565, 5.01525, 0.778626, 5.01525, -2.610687
0.5908235, -0.0186313, 5.022, -0.1540527, 5.022, -0.9963989, 5.022, -0.1062012, 5.022, 1.5419847, 5.022, 0.8244275, 5.022, -2.7633588
0.5916176, -0.0154421, 5.02875, -0.1516113, 5.02875, -0.9961548, 5.02875, -0.1036377, 5.02875, 1.7480916, 5.02875, 0.870229, 5.02875, -2.7480917
0.5924118, -0.0127565, 5.0355, -0.151001, 5.0355, -0.9984131, 5.0355, -0.1013794, 5.0355, 1.6717557, 5.0355, 0.8320611, 5.0355, -2.7709923
0.5932059, -0.0095674, 5.04225, -0.1531982, 5.04225, -0.9950562, 5.04225, -0.1044312, 5.04225, 1.778626, 5.04225, 0.7938932, 5.04225, -2.7938931
0.594, -0.0109102, 5.049, -0.154541, 5.049, -0.9969482, 5.049, -0.102417, 5.049, 1.648855, 5.049, 0.8244275, 5.049, -2.7251909
0.5947941, -0.0099031, 5.05575, -0.1569824, 5.05575, -0.9969482, 5.05575, -0.0985718, 5.05575, 1.4045801, 5.05575, 0.610687, 5.05575, -2.8167939
0.5955882, -0.011078, 5.0625, -0.1520996, 5.0625, -0.9979248, 5.0625, -0.1015625, 5.0625, 1.5725191, 5.0625, 0.4427481, 5.0625, -2.961832
0.5963824, -0.0135958, 5.06925, -0.1535645, 5.06925, -0.9952393, 5.06925, -0.1034546, 5.06925, 1.5801526, 5.06925, 0.519084, 5.06925, -2.7099237
0.5971765, -0.0169528, 5.076, -0.1536865, 5.076, -0.9940186, 5.076, -0.0999146, 5.076, 1.6030535, 5.076, 0.6030535, 5.076, -2.8167939
0.5979706, -0.0149386, 5.08275, -0.1523438, 5.08275, -0.9936523, 5.08275, -0.1012573, 5.08275, 1.6717557, 5.08275, 0.5496183, 5.08275, -2.7557251
0.5987647, -0.0125887, 5.0895, -0.1506348, 5.0895, -0.9954834, 5.0895, -0.0981445, 5.0895, 1.4274809, 5.0895, 0.4351145, 5.0895, -3.091603
0.5995588, -0.0151064, 5.09625, -0.1525269, 5.09625, -0.998291, 5.09625, -0.0978394, 5.09625, 1.4580153, 5.09625, 0.648855, 5.09625, -2.7557251
0.6003529, -0.0182956, 5.103, -0.1519775, 5.103, -0.994751, 5.103, -0.097229, 5.103, 1.4274809, 5.103, 0.7862595, 5.103, -2.8549619
0.6011471, -0.0166171, 5.10975, -0.1517944, 5.10975, -0.9954834, 5.10975, -0.0994263, 5.10975, 1.4045801, 5.10975, 0.8167939, 5.10975, -2.7862597
0.6019412, -0.0162814, 5.1165, -0.1540527, 5.1165, -0.9969482, 5.1165, -0.0978394, 5.1165, 1.3816794, 5.1165, 0.8931298, 5.1165, -2.7328243
0.6027353, -0.01561, 5.12325, -0.1525879, 5.12325, -0.9924316, 5.12325, -0.0967407, 5.12325, 1.2366412, 5.12325, 0.9389313, 5.12325, -2.8549619
0.6035294, -0.0176242, 5.13, -0.1496582, 5.13, -0.9956055, 5.13, -0.0994873, 5.13, 1.2137405, 5.13, 1.1221374, 5.13, -2.8091602
0.6043235, -0.0169528, 5.13675, -0.1485596, 5.13675, -0.9952393, 5.13675, -0.0969238, 5.13675, 1.1832061, 5.13675, 1.3206106, 5.13675, -2.8015268
0.6051176, -0.0159457, 5.1435, -0.1531372, 5.1435, -0.9926147, 5.1435, -0.0977783, 5.1435, 1.0839695, 5.1435, 1.2366412, 5.1435, -2.778626
0.6059118, -0.0152743, 5.15025, -0.1529541, 5.15025, -0.9955444, 5.15025, -0.1002197, 5.15025, 1.0839695, 5.15025, 1.2061069, 5.15025, -2.7099237
0.6067059, -0.018967, 5.157, -0.1547241, 5.157, -0.998291, 5.157, -0.1008911, 5.157, 1.0229008, 5.157, 1.1526718, 5.157, -2.8091602
0.6075, -0.0169528, 5.16375, -0.1513672, 5.16375, -0.9942627, 5.16375, -0.1012573, 5.16375, 1.129771, 5.16375, 1.1145039, 5.16375, -2.648855
0.6082941, -0.011078, 5.1705, -0.1544189, 5.1705, -0.9958496, 5.1705, -0.1021729, 5.1705, 1.1832061, 5.1705, 1.0687023, 5.1705, -2.778626
0.6090882, -0.0139315, 5.17725, -0.1547852, 5.17725, -0.9951782, 5.17725, -0.1018066, 5.17725, 1.1145039, 5.17725, 0.8015267, 5.17725, -2.8167939
0.6098824, -0.01561, 5.184, -0.1525879, 5.184, -0.9946899, 5.184, -0.1013794, 5.184, 1.1221374, 5.184, 0.8244275, 5.184, -2.6717558
0.6106765, -0.0095674, 5.19075, -0.1519165, 5.19075, -0.9959106, 5.19075, -0.0993042, 5.19075, 1.1450381, 5.19075, 0.8625954, 5.19075, -2.8091602
0.6114706, -0.0075532, 5.1975, -0.1524658, 5.1975, -0.9955444, 5.1975, -0.1015015, 5.1975, 1.1908396, 5.1975, 0.8854962, 5.1975, -2.8625953
0.6122647, -0.0082246, 5.20425, -0.1540527, 5.20425, -0.9953003, 5.20425, -0.1015625, 5.20425, 1.3282443, 5.20425, 0.9770992, 5.20425, -2.7099237
0.6130588, -0.0112459, 5.211, -0.1552734, 5.211, -0.9939575, 5.211, -0.1022949, 5.211, 1.0534351, 5.211, 1.129771, 5.211, -2.778626
0.6138529, -0.0135958, 5.21775, -0.1520996, 5.21775, -0.996521, 5.21775, -0.1010742, 5.21775, 1.1755725, 5.21775, 0.870229, 5.21775, -2.6641221
0.6146471, -0.0164492, 5.2245, -0.1509399, 5.2245, -0.9967651, 5.2245, -0.102356, 5.2245, 1.1603054, 5.2245, 0.9541985, 5.2245, -2.7099237
0.6154412, -0.0159457, 5.23125, -0.1542358, 5.23125, -0.9936523, 5.23125, -0.1010132, 5.23125, 1.1068702, 5.23125, 1, 5.23125, -2.9007633
0.6162353, -0.0146029, 5.238, -0.1553345, 5.238, -0.9935913, 5.238, -0.1022949, 5.238, 1.2442749, 5.238, 1.3282443, 5.238, -2.740458
0.6170294, -0.018967, 5.24475, -0.1558228, 5.24475, -0.9943237, 5.24475, -0.1063843, 5.24475, 1.0687023, 5.24475, 1.1068702, 5.24475, -2.7328243
0.6178235, -0.0176242, 5.2515, -0.1547241, 5.2515, -0.9936523, 5.2515, -0.1017456, 5.2515, 1.221374, 5.2515, 0.9923664, 5.2515, -2.7175572
0.6186176, -0.0164492, 5.25825, -0.1541748, 5.25825, -0.9962769, 5.25825, -0.0999146, 5.25825, 1.3816794, 5.25825, 0.8854962, 5.25825, -2.8320611
0.6194118, -0.0162814, 5.265, -0.1524048, 5.265, -0.9970703, 5.265, -0.1035156, 5.265, 1.0839695, 5.265, 1.1068702, 5.265, -2.7099237
0.6202059, -0.018967, 5.27175, -0.1530151, 5.27175, -0.9934082, 5.27175, -0.1036987, 5.27175, 1.1908396, 5.27175, 1.1221374, 5.27175, -2.8320611
0.621, -0.0182956, 5.2785, -0.1542969, 5.2785, -0.9962769, 5.2785, -0.1027222, 5.2785, 1.2137405, 5.2785, 1.0992366, 5.2785, -2.9923663
0.6217941, -0.0162814, 5.28525, -0.15448, 5.28525, -0.9967041, 5.28525, -0.1027222, 5.28525, 1.1755725, 5.28525, 1.1526718, 5.28525, -2.8473282
0.6225882, -0.0166171, 5.292, -0.1518555, 5.292, -0.9932251, 5.292, -0.1021729, 5.292, 1.1374046, 5.292, 1.038168, 5.292, -2.8854961
0.6233824, -0.018967, 5.29875, -0.1528931, 5.29875, -0.9956055, 5.29875, -0.1036987, 5.29875, 1.1908396, 5.29875, 1.038168, 5.29875, -3.1221373
0.6241765, -0.0176242, 5.3055, -0.154541, 5.3055, -0.9973755, 5.3055, -0.1012573, 5.3055, 1.1068702, 5.3055, 0.9465649, 5.3055, -2.908397
0.6249706, -0.0166171, 5.31225, -0.1555176, 5.31225, -0.9936523, 5.31225, -0.1018677, 5.31225, 1.0687023, 5.31225, 1.0992366, 5.31225, -2.9236641
0.6257647, -0.0149386, 5.319, -0.1565552, 5.319, -0.9939575, 5.319, -0.0991211, 5.319, 1.0305344, 5.319, 0.8396947, 5.319, -2.8854961
0.6265588, -0.0142672, 5.32575, -0.1565552, 5.32575, -0.9973755, 5.32575, -0.0979004, 5.32575, 1.0152671, 5.32575, 0.9007633, 5.32575, -3
0.6273529, -0.0142672, 5.3325, -0.1546021, 5.3325, -0.99646, 5.3325, -0.1022949, 5.3325, 0.9465649, 5.3325, 0.7862595, 5.3325, -2.9465649
0.6281471, -0.0092317, 5.33925, -0.1552124, 5.33925, -0.9955444, 5.33925, -0.1008301, 5.33925, 1, 5.33925, 0.7022901, 5.33925, -2.8167939
0.6289412, -0.0065461, 5.346, -0.1570435, 5.346, -0.9940796, 5.346, -0.1004639, 5.346, 1.1526718, 5.346, 0.8244275, 5.346, -2.8549619
0.6297353, -0.0119173, 5.35275, -0.1586914, 5.35275, -0.9950562, 5.35275, -0.1021729, 5.35275, 1.0229008, 5.35275, 0.8396947, 5.35275, -2.8854961
0.6305294, -0.0125887, 5.3595, -0.1592407, 5.3595, -0.9914551, 5.3595, -0.1044922, 5.3595, 1.1068702, 5.3595, 0.8244275, 5.3595, -3.0992367
0.6313235, -0.0095674, 5.36625, -0.1606445, 5.36625, -0.9922485, 5.36625, -0.1062012, 5.36625, 1.1068702, 5.36625, 0.5954198, 5.36625, -2.9312978
0.6321176, -0.011078, 5.373, -0.1604004, 5.373, -0.9952393, 5.373, -0.1018066, 5.373, 0.908397, 5.373, 0.6564885, 5.373, -3.091603
0.6329118, -0.0149386, 5.37975, -0.1575928, 5.37975, -0.9967041, 5.37975, -0.102356, 5.37975, 0.9923664, 5.37975, 0.6335878, 5.37975, -3.091603
0.6337059, -0.0149386, 5.3865, -0.1554565, 5.3865, -0.9936523, 5.3865, -0.104248, 5.3865, 0.9770992, 5.3865, 0.6335878, 5.3865, -2.9923663
0.6345, -0.0132601, 5.39325, -0.1532593, 5.39325, -0.9969482, 5.39325, -0.102478, 5.39325, 1.129771, 5.39325, 0.6870229, 5.39325, -3.1145039
0.6352941, -0.0166171, 5.4, -0.152832, 5.4, -0.9983521, 5.4, -0.1027222, 5.4, 1.1374046, 5.4, 0.8167939, 5.4, -3.0305343
0.6360882, -0.018967, 5.40675, -0.1534424, 5.40675, -0.9953613, 5.40675, -0.1032104, 5.40675, 1.1679389, 5.40675, 0.9770992, 5.40675, -3.1145039
0.6368824, -0.0162814, 5.4135, -0.1554565, 5.4135, -0.9945068, 5.4135, -0.1019287, 5.4135, 1.1679389, 5.4135, 0.9465649, 5.4135, -3.1374047
0.6376765, -0.01561, 5.42025, -0.15802, 5.42025, -0.9933472, 5.42025, -0.1027832, 5.42025, 1.1603054, 5.42025, 1.0610687, 5.42025, -3.1145039
0.6384706, -0.0172885, 5.427, -0.1550903, 5.427, -0.992981, 5.427, -0.1036377, 5.427, 1.1450381, 5.427, 1.038168, 5.427, -3.1679389
0.6392647, -0.017792, 5.43375, -0.1558228, 5.43375, -0.9943848, 5.43375, -0.1030273, 5.43375, 1.0152671, 5.43375, 0.8015267, 5.43375, -3.0534351
0.6400588, -0.0193027, 5.4405, -0.1583862, 5.4405, -0.9946899, 5.4405, -0.1022339, 5.4405, 1.1068702, 5.4405, 0.7175573, 5.4405, -3.2900763
0.6408529, -0.0169528, 5.44725, -0.1582031, 5.44725, -0.9924927, 5.44725, -0.1011353, 5.44725, 1.1908396, 5.44725, 0.7175573, 5.44725, -3.2137403
0.6416471, -0.01561, 5.454, -0.1538086, 5.454, -0.9955444, 5.454, -0.1016846, 5.454, 1.0992366, 5.454, 0.648855, 5.454, -3.259542
0.6424412, -0.017792, 5.46075, -0.1530151, 5.46075, -0.9938965, 5.46075, -0.1044922, 5.46075, 1.221374, 5.46075, 0.7938932, 5.46075, -3.0763359
0.6432353, -0.0139315, 5.4675, -0.1522827, 5.4675, -0.993042, 5.4675, -0.1013794, 5.4675, 1.1832061, 5.4675, 0.8167939, 5.4675, -3.0610688
0.6440294, -0.0109102, 5.47425, -0.1503906, 5.47425, -0.9960938, 5.47425, -0.1010742, 5.47425, 1.091603, 5.47425, 1, 5.47425, -2.9770992
0.6448235, -0.0085603, 5.481, -0.1491089, 5.481, -0.9944458, 5.481, -0.1032715, 5.481, 1.1221374, 5.481, 1.2366412, 5.481, -3.1603053
0.6456176, -0.0115816, 5.48775, -0.1486206, 5.48775, -0.9942017, 5.48775, -0.1002808, 5.48775, 1.1908396, 5.48775, 1.2977099, 5.48775, -3.0839694
0.6464118, -0.0159457, 5.4945, -0.1542358, 5.4945, -0.9916382, 5.4945, -0.102417, 5.4945, 1.1603054, 5.4945, 1.2442749, 5.4945, -3.0152671
0.6472059, -0.0142672, 5.50125, -0.1528931, 5.50125, -0.9934692, 5.50125, -0.1026611, 5.50125, 1.2671756, 5.50125, 1.1755725, 5.50125, -3.1068702
0.648, -0.0142672, 5.508, -0.156311, 5.508, -0.9945068, 5.508, -0.1009521, 5.508, 1.1984733, 5.508, 1.259542, 5.508, -3.091603
0.6487941, -0.0172885, 5.51475, -0.1588745, 5.51475, -0.9921265, 5.51475, -0.1052246, 5.51475, 1.1908396, 5.51475, 1.0992366, 5.51475, -3.0534351
0.6495882, -0.0176242, 5.5215, -0.1577759, 5.5215, -0.9946289, 5.5215, -0.1040649, 5.5215, 1.1908396, 5.5215, 0.8854962, 5.5215, -2.870229
0.6503824, -0.0157778, 5.52825, -0.1588745, 5.52825, -0.9956665, 5.52825, -0.1049194, 5.52825, 1.1603054, 5.52825, 0.7557252, 5.52825, -3.1755726
0.6511765, -0.0186313, 5.535, -0.1544189, 5.535, -0.9952393, 5.535, -0.1047974, 5.535, 1.0839695, 5.535, 0.6641222, 5.535, -3.0076337
0.6519706, -0.0186313, 5.54175, -0.1525879, 5.54175, -0.9941406, 5.54175, -0.102356, 5.54175, 1.1832061, 5.54175, 0.778626, 5.54175, -3.0152671
0.6527647, -0.0182956, 5.5485, -0.1538086, 5.5485, -0.9952393, 5.5485, -0.1057739, 5.5485, 1.2061069, 5.5485, 1.0534351, 5.5485, -3.0458016
0.6535588, -0.0176242, 5.55525, -0.1542358, 5.55525, -0.9973755, 5.55525, -0.1043091, 5.55525, 1.1908396, 5.55525, 1.3129771, 5.55525, -3.1145039
0.6543529, -0.0203098, 5.562, -0.1610107, 5.562, -0.9961548, 5.562, -0.1053467, 5.562, 1.3358779, 5.562, 1.3206106, 5.562, -3.129771
0.6551471, -0.017792, 5.56875, -0.161499, 5.56875, -0.9949951, 5.56875, -0.1040039, 5.56875, 1.259542, 5.56875, 1.0763359, 5.56875, -3.0763359
0.6559412, -0.014435, 5.5755, -0.1627197, 5.5755, -0.9936523, 5.5755, -0.1043701, 5.5755, 1.2137405, 5.5755, 0.7251908, 5.5755, -3.0458016
0.6567353, -0.012253, 5.58225, -0.1586304, 5.58225, -0.9934692, 5.58225, -0.105896, 5.58225, 1.389313, 5.58225, 0.6717557, 5.58225, -3.0305343
0.6575294, -0.0149386, 5.589, -0.1552124, 5.589, -0.9963989, 5.589, -0.1028442, 5.589, 1.3053435, 5.589, 0.3740458, 5.589, -3.1755726
0.6583235, -0.0135958, 5.59575, -0.1573486, 5.59575, -0.9971313, 5.59575, -0.1032104, 5.59575, 1.1984733, 5.59575, 0.4732825, 5.59575, -3.3358779
0.6591176, -0.0130922, 5.6025, -0.1585083, 5.6025, -0.9971924, 5.6025, -0.1044312, 5.6025, 1.389313, 5.6025, 0.5038168, 5.6025, -3.259542
0.6599118, -0.0109102, 5.60925, -0.1556396, 5.60925, -0.9988403, 5.60925, -0.104187, 5.60925, 1.2824427, 5.60925, 0.5801527, 5.60925, -3.2900763
0.6607059, -0.0119173, 5.616, -0.1555176, 5.616, -0.99646, 5.616, -0.1029053, 5.616, 1.4274809, 5.616, 0.6259542, 5.616, -3.2900763
0.6615, -0.0129244, 5.62275, -0.1558228, 5.62275, -0.9932251, 5.62275, -0.105835, 5.62275, 1.5114504, 5.62275, 0.5267175, 5.62275, -3.3129771
0.6622941, -0.0139315, 5.6295, -0.1540527, 5.6295, -0.9932861, 5.6295, -0.1052246, 5.6295, 1.1755725, 5.6295, 0.7022901, 5.6295, -3.389313
0.6630882, -0.0176242, 5.63625, -0.1542358, 5.63625, -0.9926147, 5.63625, -0.1046753, 5.63625, 1.3664122, 5.63625, 0.5496183, 5.63625, -3.259542
0.6638824, -0.014435, 5.643, -0.1525269, 5.643, -0.9967651, 5.643, -0.1010132, 5.643, 1.2290076, 5.643, 0.5877863, 5.643, -3.2519083
0.6646765, -0.0139315, 5.64975, -0.1514893, 5.64975, -0.9966431, 5.64975, -0.1022949, 5.64975, 1.351145, 5.64975, 0.6412213, 5.64975, -3.2977099
0.6654706, -0.012253, 5.6565, -0.1543579, 5.6565, -0.9946899, 5.6565, -0.100708, 5.6565, 1.3816794, 5.6565, 0.7480916, 5.6565, -3.259542
0.6662647, -0.0099031, 5.66325, -0.1570435, 5.66325, -0.996521, 5.66325, -0.104187, 5.66325, 1.4503816, 5.66325, 0.5038168, 5.66325, -3.2900763
0.6670588, -0.0139315, 5.67, -0.1550293, 5.67, -0.9953613, 5.67, -0.1048584, 5.67, 1.3053435, 5.67, 0.4351145, 5.67, -3.4274809
0.6678529, -0.0152743, 5.67675, -0.1516724, 5.67675, -0.9967651, 5.67675, -0.1030273, 5.67675, 1.2748091, 5.67675, 0.4198473, 5.67675, -3.2977099
0.6686471, -0.012253, 5.6835, -0.1495361, 5.6835, -0.9961548, 5.6835, -0.1031494, 5.6835, 1.2977099, 5.6835, 0.480916, 5.6835, -3.1755726
0.6694412, -0.0142672, 5.69025, -0.1503906, 5.69025, -0.9970093, 5.69025, -0.1027222, 5.69025, 1.4198474, 5.69025, 0.6717557, 5.69025, -3.3129771
0.6702353, -0.01561, 5.697, -0.1520386, 5.697, -0.9941406, 5.697, -0.1028442, 5.697, 1.3664122, 5.697, 0.8473282, 5.697, -3.3129771
0.6710294, -0.0184634, 5.70375, -0.1571045, 5.70375, -0.9920044, 5.70375, -0.1027832, 5.70375, 1.259542, 5.70375, 0.7938932, 5.70375, -3.2748091
0.6718235, -0.0176242, 5.7105, -0.1566772, 5.7105, -0.9967041, 5.7105, -0.1027832, 5.7105, 1.3053435, 5.7105, 0.4656489, 5.7105, -3.1984732
0.6726176, -0.0135958, 5.71725, -0.1557617, 5.71725, -0.9968872, 5.71725, -0.1033325, 5.71725, 1.2900764, 5.71725, 0.3358779, 5.71725, -3.389313
0.6734118, -0.0142672, 5.724, -0.1520996, 5.724, -0.9993286, 5.724, -0.1010132, 5.724, 1.3587786, 5.724, 0.3740458, 5.724, -3.2748091
