Application:, Trigno Discover (1.7.0)
Date/Time:, 2026/9/9 上午 11:59:02
Collection Length (seconds):, 40.122
Avanti Sensor 11 (69574)
sensor mode: 50
EMG 1 Time Series (s), EMG 1 (mV), ACC X Time Series (s), ACC X (G), ACC Y Time Series (s), ACC Y (G), ACC Z Time Series (s), ACC Z (G), GYRO X Time Series (s), GYRO X (deg/s), GYRO Y Time Series (s), GYRO Y (deg/s), GYRO Z Time Series (s), GYRO Z (deg/s)
, 1259.2593 Hz, , 148.1481 Hz, , 148.1481 Hz, , 148.1481 Hz, , 148.1481 Hz, , 148.1481 Hz, , 148.1481 Hz
0, -0.0085603, 0, -0.0717163, 0, -0.9907227, 0, -0.2380371, 0, 2.2061069, 0, 0.9694657, 0, -3.740458
0.0007941, -0.0031891, 0.00675, -0.0699463, 0.00675, -0.9940186, 0.00675, -0.2362061, 0.00675, 2.0763359, 0.00675, 1.2977099, 0.00675, -3.7862597
0.0015882, -0.0095674, 0.0135, -0.0707397, 0.0135, -0.9935913, 0.0135, -0.2363892, 0.0135, 1.908397, 0.0135, 1.129771, 0.0135, -3.8091602
0.0023824, -0.0129244, 0.02025, -0.071106, 0.02025, -0.9943848, 0.02025, -0.2359619, 0.02025, 1.8244275, 0.02025, 0.9847328, 0.02025, -3.9007633
0.0031765, -0.0157778, 0.027, -0.0725708, 0.027, -0.9945068, 0.027, -0.2354126, 0.027, 1.8854961, 0.027, 0.908397, 0.027, -3.8167939
0.0039706, -0.0203098, 0.03375, -0.0714111, 0.03375, -0.9952393, 0.03375, -0.2351074, 0.03375, 1.908397, 0.03375, 0.778626, 0.03375, -3.778626
0.0047647, -0.0216526, 0.0405, -0.0701294, 0.0405, -0.9900513, 0.0405, -0.237793, 0.0405, 1.7862595, 0.0405, 0.5877863, 0.0405, -3.8854961
0.0055588, -0.0203098, 0.04725, -0.0678711, 0.04725, -0.9909058, 0.04725, -0.2384033, 0.04725, 1.9541985, 0.04725, 0.389313, 0.04725, -3.908397
0.0063529, -0.0157778, 0.054, -0.0670166, 0.054, -0.9908447, 0.054, -0.2365723, 0.054, 1.9694656, 0.054, 0.5725191, 0.054, -3.8778627
0.0071471, -0.0142672, 0.06075, -0.0653076, 0.06075, -0.9900513, 0.06075, -0.2374268, 0.06075, 2.0992367, 0.06075, 0.5801527, 0.06075, -3.7175572
0.0079412, -0.0135958, 0.0675, -0.0641479, 0.0675, -0.9943237, 0.0675, -0.2367554, 0.0675, 1.961832, 0.0675, 0.4351145, 0.0675, -3.740458
0.0087353, -0.0196384, 0.07425, -0.0654297, 0.07425, -0.9938965, 0.07425, -0.2354126, 0.07425, 1.9541985, 0.07425, 0.4580153, 0.07425, -3.7480917
0.0095294, -0.0240024, 0.081, -0.0653076, 0.081, -0.9958496, 0.081, -0.2376099, 0.081, 1.8015267, 0.081, 0.3587786, 0.081, -3.519084
0.0103235, -0.0203098, 0.08775, -0.0666504, 0.08775, -0.994812, 0.08775, -0.2364502, 0.08775, 1.961832, 0.08775, 0.5725191, 0.08775, -3.6870229
0.0111176, -0.0204776, 0.0945, -0.0651855, 0.0945, -0.9923096, 0.0945, -0.236084, 0.0945, 1.870229, 0.0945, 0.6870229, 0.0945, -3.6335878
0.0119118, -0.0169528, 0.10125, -0.0646362, 0.10125, -0.9928589, 0.10125, -0.2350464, 0.10125, 1.5419847, 0.10125, 0.8396947, 0.10125, -3.5343511
0.0127059, -0.0169528, 0.108, -0.0656738, 0.108, -0.9937134, 0.108, -0.2312622, 0.108, 1.6412214, 0.108, 0.9694657, 0.108, -3.6030533
0.0135, -0.0166171, 0.11475, -0.0627441, 0.11475, -0.9902954, 0.11475, -0.2330933, 0.11475, 1.5801526, 0.11475, 1.091603, 0.11475, -3.5038168
0.0142941, -0.0162814, 0.1215, -0.0673828, 0.1215, -0.9936523, 0.1215, -0.2376099, 0.1215, 1.4503816, 0.1215, 1.0763359, 0.1215, -3.3816793
0.0150882, -0.0162814, 0.12825, -0.0631714, 0.12825, -0.9926147, 0.12825, -0.2380371, 0.12825, 1.3587786, 0.12825, 0.9541985, 0.12825, -3.4961832
0.0158824, -0.0142672, 0.135, -0.0680542, 0.135, -0.9925537, 0.135, -0.2357788, 0.135, 1.351145, 0.135, 1.0534351, 0.135, -3.5877862
0.0166765, -0.0142672, 0.14175, -0.0673828, 0.14175, -0.9927979, 0.14175, -0.2324829, 0.14175, 1.1526718, 0.14175, 0.9847328, 0.14175, -3.5267177
0.0174706, -0.0104067, 0.1485, -0.0645752, 0.1485, -0.9907227, 0.1485, -0.2321777, 0.1485, 0.8473282, 0.1485, 0.8625954, 0.1485, -3.648855
0.0182647, -0.0083925, 0.15525, -0.0661621, 0.15525, -0.993042, 0.15525, -0.2364502, 0.15525, 0.6641222, 0.15525, 1.1908396, 0.15525, -3.5572519
0.0190588, -0.011078, 0.162, -0.0662842, 0.162, -0.9919434, 0.162, -0.2338257, 0.162, 0.8625954, 0.162, 0.9160305, 0.162, -3.3587787
0.0198529, -0.0082246, 0.16875, -0.0663452, 0.16875, -0.9929199, 0.16875, -0.2328491, 0.16875, 0.908397, 0.16875, 0.9694657, 0.16875, -3.4198472
0.0206471, -0.0062104, 0.1755, -0.0675049, 0.1755, -0.9937134, 0.1755, -0.2335205, 0.1755, 0.9923664, 0.1755, 1, 0.1755, -3.2748091
0.0214412, -0.0102388, 0.18225, -0.0678711, 0.18225, -0.9911499, 0.18225, -0.2373657, 0.18225, 0.9312977, 0.18225, 0.8396947, 0.18225, -3.2977099
0.0222353, -0.0149386, 0.189, -0.0700073, 0.189, -0.9925537, 0.189, -0.236145, 0.189, 0.740458, 0.189, 0.5954198, 0.189, -3.5038168
0.0230294, -0.0151064, 0.19575, -0.0668945, 0.19575, -0.9983521, 0.19575, -0.2383423, 0.19575, 1.038168, 0.19575, 0.5038168, 0.19575, -3.5877862
0.0238235, -0.0119173, 0.2025, -0.0640869, 0.2025, -0.9957275, 0.2025, -0.2383423, 0.2025, 0.9236641, 0.2025, 0.4274809, 0.2025, -3.5343511
0.0246176, -0.0146029, 0.20925, -0.0645142, 0.20925, -0.9946289, 0.20925, -0.2385864, 0.20925, 1.0839695, 0.20925, 0.3740458, 0.20925, -3.6641221
0.0254118, -0.018967, 0.216, -0.0638428, 0.216, -0.9958496, 0.216, -0.2423706, 0.216, 1.1755725, 0.216, 0.4732825, 0.216, -3.519084
0.0262059, -0.0176242, 0.22275, -0.0614624, 0.22275, -0.9970703, 0.22275, -0.2431641, 0.22275, 1.0763359, 0.22275, 0.6870229, 0.22275, -3.1908398
0.027, -0.0179599, 0.2295, -0.0628662, 0.2295, -0.9924316, 0.2295, -0.2429199, 0.2295, 1.1832061, 0.2295, 0.8931298, 0.2295, -3.3282442
0.0277941, -0.0196384, 0.23625, -0.0655518, 0.23625, -0.9927368, 0.23625, -0.2402954, 0.23625, 0.9770992, 0.23625, 0.9770992, 0.23625, -3.1908398
0.0285882, -0.0166171, 0.243, -0.0690308, 0.243, -0.9945679, 0.243, -0.2390137, 0.243, 1.129771, 0.243, 0.9007633, 0.243, -3.3053436
0.0293824, -0.0142672, 0.24975, -0.0668945, 0.24975, -0.9935303, 0.24975, -0.2388916, 0.24975, 1.1984733, 0.24975, 0.8625954, 0.24975, -3.3740458
0.0301765, -0.0182956, 0.2565, -0.067688, 0.2565, -0.9934082, 0.2565, -0.2393799, 0.2565, 0.8396947, 0.2565, 0.8854962, 0.2565, -3.2442749
0.0309706, -0.0142672, 0.26325, -0.0637207, 0.26325, -0.9923096, 0.26325, -0.2391968, 0.26325, 0.7175573, 0.26325, 0.8320611, 0.26325, -3.351145
0.0317647, -0.012253, 0.27, -0.0653076, 0.27, -0.9909668, 0.27, -0.2406616, 0.27, 0.5801527, 0.27, 0.9465649, 0.27, -3.4580152
0.0325588, -0.0142672, 0.27675, -0.0724487, 0.27675, -0.9886475, 0.27675, -0.2366943, 0.27675, 0.610687, 0.27675, 1.1221374, 0.27675, -3.2061069
0.0333529, -0.0149386, 0.2835, -0.0679932, 0.2835, -0.9953003, 0.2835, -0.241394, 0.2835, 0.5801527, 0.2835, 1.1221374, 0.2835, -3.3664122
0.0341471, -0.0109102, 0.29025, -0.0700073, 0.29025, -0.9918213, 0.29025, -0.2389526, 0.29025, 0.4122137, 0.29025, 1.2900764, 0.29025, -3.3435113
0.0349412, -0.0058747, 0.297, -0.064209, 0.297, -0.9901733, 0.297, -0.2376099, 0.297, 0.5496183, 0.297, 1.0763359, 0.297, -3.3206108
0.0357353, -0.0075532, 0.30375, -0.0669556, 0.30375, -0.991272, 0.30375, -0.237793, 0.30375, 0.6870229, 0.30375, 0.778626, 0.30375, -3.3358779
0.0365294, -0.0129244, 0.3105, -0.0655518, 0.3105, -0.992981, 0.3105, -0.2374878, 0.3105, 0.5725191, 0.3105, 1.091603, 0.3105, -3.351145
0.0373235, -0.0135958, 0.31725, -0.0646973, 0.31725, -0.9924927, 0.31725, -0.2393799, 0.31725, 0.9541985, 0.31725, 1.3435115, 0.31725, -3.1603053
0.0381176, -0.0112459, 0.324, -0.0585327, 0.324, -0.9927979, 0.324, -0.2401123, 0.324, 0.7328244, 0.324, 1.4122137, 0.324, -3.129771
0.0389118, -0.0142672, 0.33075, -0.0583496, 0.33075, -0.9931641, 0.33075, -0.2398071, 0.33075, 0.8549618, 0.33075, 1.5267175, 0.33075, -3.0076337
0.0397059, -0.0095674, 0.3375, -0.0628662, 0.3375, -0.9934692, 0.3375, -0.2424927, 0.3375, 0.7099237, 0.3375, 1.5725191, 0.3375, -3.1603053
0.0405, -0.0085603, 0.34425, -0.0632324, 0.34425, -0.9909058, 0.34425, -0.2411499, 0.34425, 0.740458, 0.34425, 1.5954199, 0.34425, -3.0534351
0.0412941, -0.0229953, 0.351, -0.0654907, 0.351, -0.9954224, 0.351, -0.2404785, 0.351, 0.5343512, 0.351, 1.3587786, 0.351, -3.1068702
0.0420882, -0.0258488, 0.35775, -0.0679932, 0.35775, -0.9957275, 0.35775, -0.2371216, 0.35775, 0.5572519, 0.35775, 1.3358779, 0.35775, -3.1068702
0.0428824, -0.0179599, 0.3645, -0.0690308, 0.3645, -0.9935303, 0.3645, -0.2377319, 0.3645, 0.4274809, 0.3645, 1.2977099, 0.3645, -3.1068702
0.0436765, -0.0125887, 0.37125, -0.0669556, 0.37125, -0.9937134, 0.37125, -0.237793, 0.37125, 0.4580153, 0.37125, 1.2977099, 0.37125, -3.0305343
0.0444706, -0.0125887, 0.378, -0.0657959, 0.378, -0.9929199, 0.378, -0.239502, 0.378, 0.3816794, 0.378, 1.4961832, 0.378, -3.0610688
0.0452647, -0.0149386, 0.38475, -0.0664062, 0.38475, -0.9906006, 0.38475, -0.2388306, 0.38475, 0.2900763, 0.38475, 1.0839695, 0.38475, -2.9465649
0.0460588, -0.0135958, 0.3915, -0.0668945, 0.3915, -0.9938965, 0.3915, -0.2371826, 0.3915, 0.1908397, 0.3915, 0.8854962, 0.3915, -3.0610688
0.0468529, -0.0137636, 0.39825, -0.0652466, 0.39825, -0.9902954, 0.39825, -0.2434692, 0.39825, 0.3206107, 0.39825, 0.8549618, 0.39825, -3.1526718
0.0476471, -0.0132601, 0.405, -0.0675659, 0.405, -0.9923096, 0.405, -0.243103, 0.405, 0.4198473, 0.405, 0.8778626, 0.405, -2.9389312
0.0484412, -0.0142672, 0.41175, -0.0647583, 0.41175, -0.9936523, 0.41175, -0.2406616, 0.41175, 0.3816794, 0.41175, 1.0610687, 0.41175, -2.9236641
0.0492353, -0.0142672, 0.4185, -0.0629883, 0.4185, -0.9917603, 0.4185, -0.2368774, 0.4185, 0.2824427, 0.4185, 0.8549618, 0.4185, -3.1068702
0.0500294, -0.0092317, 0.42525, -0.0645142, 0.42525, -0.9963989, 0.42525, -0.2391357, 0.42525, 0.2442748, 0.42525, 1.0534351, 0.42525, -3.0076337
0.0508235, -0.0082246, 0.432, -0.0656738, 0.432, -0.9910278, 0.432, -0.2387695, 0.432, 0.3435115, 0.432, 0.8091603, 0.432, -2.8091602
0.0516176, -0.0125887, 0.43875, -0.0640869, 0.43875, -0.9925537, 0.43875, -0.2389526, 0.43875, 0.4580153, 0.43875, 0.9465649, 0.43875, -2.8091602
0.0524118, -0.0132601, 0.4455, -0.0663452, 0.4455, -0.9946899, 0.4455, -0.2374878, 0.4455, 0.3435115, 0.4455, 0.9694657, 0.4455, -2.7175572
0.0532059, -0.0166171, 0.45225, -0.0655518, 0.45225, -0.9927368, 0.45225, -0.2409668, 0.45225, 0.3664122, 0.45225, 1.091603, 0.45225, -2.6946564
0.054, -0.021149, 0.459, -0.0670166, 0.459, -0.9946289, 0.459, -0.2402344, 0.459, 0.351145, 0.459, 1.0992366, 0.459, -2.8778627
0.0547941, -0.018967, 0.46575, -0.069397, 0.46575, -0.9957275, 0.46575, -0.2398071, 0.46575, 0.4274809, 0.46575, 1.1679389, 0.46575, -2.8778627
0.0555882, -0.0159457, 0.4725, -0.0700684, 0.4725, -0.9937744, 0.4725, -0.2409668, 0.4725, 0.351145, 0.4725, 1.2824427, 0.4725, -3.1068702
0.0563824, -0.01561, 0.47925, -0.0704956, 0.47925, -0.9916992, 0.47925, -0.2419434, 0.47925, 0.4732825, 0.47925, 1.2061069, 0.47925, -2.9541984
0.0571765, -0.0114137, 0.486, -0.0679932, 0.486, -0.9904785, 0.486, -0.2421875, 0.486, 0.4122137, 0.486, 0.9236641, 0.486, -3
0.0579706, -0.005539, 0.49275, -0.0672607, 0.49275, -0.9961548, 0.49275, -0.2415161, 0.49275, 0.2442748, 0.49275, 0.5267175, 0.49275, -3.0076337
0.0587647, -0.0072175, 0.4995, -0.0661011, 0.4995, -0.9938354, 0.4995, -0.2414551, 0.4995, 0.5496183, 0.4995, 0.5038168, 0.4995, -2.7480917
0.0595588, -0.010071, 0.50625, -0.0633545, 0.50625, -0.994873, 0.50625, -0.241394, 0.50625, 0.3282443, 0.50625, 0.6717557, 0.50625, -2.7328243
0.0603529, -0.0146029, 0.513, -0.0622559, 0.513, -0.9932861, 0.513, -0.2437744, 0.513, 0.3129771, 0.513, 0.8549618, 0.513, -2.5648854
0.0611471, -0.0223239, 0.51975, -0.06427, 0.51975, -0.9923096, 0.51975, -0.243042, 0.51975, 0.4351145, 0.51975, 0.9770992, 0.51975, -2.6564887
0.0619412, -0.0229953, 0.5265, -0.0651245, 0.5265, -0.9931641, 0.5265, -0.2451172, 0.5265, 0.2748092, 0.5265, 0.8091603, 0.5265, -2.4351146
0.0627353, -0.0203098, 0.53325, -0.0684814, 0.53325, -0.9939575, 0.53325, -0.2410278, 0.53325, 0.1221374, 0.53325, 0.5648855, 0.53325, -2.351145
0.0635294, -0.0209812, 0.54, -0.0674438, 0.54, -0.9939575, 0.54, -0.2420654, 0.54, 0.259542, 0.54, 0.5725191, 0.54, -2.5877862
0.0643235, -0.0196384, 0.54675, -0.0672607, 0.54675, -0.9932861, 0.54675, -0.248291, 0.54675, 0.1755725, 0.54675, 0.5343512, 0.54675, -2.519084
0.0651176, -0.0152743, 0.5535, -0.0688477, 0.5535, -0.9933472, 0.5535, -0.246582, 0.5535, 0.1145038, 0.5535, 0.480916, 0.5535, -2.5954199
0.0659118, -0.0137636, 0.56025, -0.0682373, 0.56025, -0.9940796, 0.56025, -0.2461548, 0.56025, 0.1526718, 0.56025, 0.5801527, 0.56025, -2.5954199
0.0667059, -0.0109102, 0.567, -0.0683594, 0.567, -0.9937134, 0.567, -0.2463989, 0.567, -0.0610687, 0.567, 0.5954198, 0.567, -2.6564887
0.0675, -0.0105745, 0.57375, -0.0687866, 0.57375, -0.9935303, 0.57375, -0.2437744, 0.57375, 0.0687023, 0.57375, 0.5725191, 0.57375, -2.5801528
0.0682941, -0.0083925, 0.5805, -0.067627, 0.5805, -0.9921265, 0.5805, -0.2474365, 0.5805, -0.0839695, 0.5805, 0.6793893, 0.5805, -2.5419848
0.0690882, -0.0129244, 0.58725, -0.0681763, 0.58725, -0.9934692, 0.58725, -0.2459106, 0.58725, -0.1603053, 0.58725, 0.870229, 0.58725, -2.4274809
0.0698824, -0.0146029, 0.594, -0.0640259, 0.594, -0.993103, 0.594, -0.2441406, 0.594, 0.2748092, 0.594, 0.961832, 0.594, -2.4427481
0.0706765, -0.0142672, 0.60075, -0.065918, 0.60075, -0.9956665, 0.60075, -0.2453613, 0.60075, 0.221374, 0.60075, 0.7938932, 0.60075, -2.6717558
0.0714706, -0.0166171, 0.6075, -0.0687256, 0.6075, -0.9934082, 0.6075, -0.2458496, 0.6075, 0.1450382, 0.6075, 0.8854962, 0.6075, -2.5038168
0.0722647, -0.0149386, 0.61425, -0.0678101, 0.61425, -0.9937134, 0.61425, -0.2455444, 0.61425, 0.3282443, 0.61425, 0.8396947, 0.61425, -2.5725191
0.0730588, -0.0095674, 0.621, -0.0703125, 0.621, -0.9924927, 0.621, -0.2485962, 0.621, 0.2900763, 0.621, 0.8473282, 0.621, -2.5725191
0.0738529, -0.0109102, 0.62775, -0.069397, 0.62775, -0.9924316, 0.62775, -0.2467651, 0.62775, 0.1450382, 0.62775, 0.7709923, 0.62775, -2.6564887
0.0746471, -0.0169528, 0.6345, -0.0668335, 0.6345, -0.9927368, 0.6345, -0.2458496, 0.6345, 0.3358779, 0.6345, 0.6793893, 0.6345, -2.5343511
0.0754412, -0.018967, 0.64125, -0.065979, 0.64125, -0.992981, 0.64125, -0.2466431, 0.64125, 0.4961832, 0.64125, 0.5877863, 0.64125, -2.5648854
0.0762353, -0.0193027, 0.648, -0.0678711, 0.648, -0.9915771, 0.648, -0.2462769, 0.648, 0.3587786, 0.648, 0.7633588, 0.648, -2.7251909
0.0770294, -0.0203098, 0.65475, -0.0738525, 0.65475, -0.9949341, 0.65475, -0.24823, 0.65475, 0.6412213, 0.65475, 0.7938932, 0.65475, -2.610687
0.0778235, -0.0166171, 0.6615, -0.0710449, 0.6615, -0.9916382, 0.6615, -0.2467651, 0.6615, 0.7022901, 0.6615, 0.8015267, 0.6615, -2.5801528
0.0786176, -0.0162814, 0.66825, -0.0704956, 0.66825, -0.989624, 0.66825, -0.2444458, 0.66825, 0.5725191, 0.66825, 0.6793893, 0.66825, -2.480916
0.0794118, -0.0146029, 0.675, -0.0724487, 0.675, -0.9955444, 0.675, -0.2487793, 0.675, 0.6870229, 0.675, 0.648855, 0.675, -2.6717558
0.0802059, -0.0132601, 0.68175, -0.072998, 0.68175, -0.9961548, 0.68175, -0.244812, 0.68175, 0.7328244, 0.68175, 0.4122137, 0.68175, -2.8931298
0.081, -0.008896, 0.6885, -0.0698242, 0.6885, -0.9933472, 0.6885, -0.244873, 0.6885, 0.4198473, 0.6885, 0.1450382, 0.6885, -2.9465649
0.0817941, -0.012253, 0.69525, -0.0684204, 0.69525, -0.9920044, 0.69525, -0.2453613, 0.69525, 0.5267175, 0.69525, 0.2671756, 0.69525, -3.0152671
0.0825882, -0.0149386, 0.702, -0.0671997, 0.702, -0.991272, 0.702, -0.2478027, 0.702, 0.6717557, 0.702, 0.3664122, 0.702, -2.778626
0.0833824, -0.008896, 0.70875, -0.067749, 0.70875, -0.9925537, 0.70875, -0.2495117, 0.70875, 0.389313, 0.70875, 0.6412213, 0.70875, -2.6870229
0.0841765, -0.0073854, 0.7155, -0.0689697, 0.7155, -0.9901123, 0.7155, -0.2481689, 0.7155, 0.4656489, 0.7155, 0.870229, 0.7155, -2.5877862
0.0849706, -0.0048676, 0.72225, -0.0701904, 0.72225, -0.9888306, 0.72225, -0.2478027, 0.72225, 0.3358779, 0.72225, 0.7175573, 0.72225, -2.9160306
0.0857647, -0.0031891, 0.729, -0.0723877, 0.729, -0.9926758, 0.729, -0.2474976, 0.729, 0.0839695, 0.729, 0.9847328, 0.729, -2.8396947
0.0865588, -0.0035248, 0.73575, -0.0742798, 0.73575, -0.991333, 0.73575, -0.2487793, 0.73575, 0.1832061, 0.73575, 1.1526718, 0.73575, -2.7099237
0.0873529, -0.005539, 0.7425, -0.0735474, 0.7425, -0.9928589, 0.7425, -0.2469482, 0.7425, 0.0992366, 0.7425, 0.9465649, 0.7425, -2.9389312
0.0881471, -0.0135958, 0.74925, -0.0724487, 0.74925, -0.9920044, 0.74925, -0.2446899, 0.74925, 0.0305344, 0.74925, 0.9541985, 0.74925, -2.9770992
0.0889412, -0.0206455, 0.756, -0.0684814, 0.756, -0.9885864, 0.756, -0.2481079, 0.756, 0.1603053, 0.756, 1.2366412, 0.756, -2.8625953
0.0897353, -0.0162814, 0.76275, -0.0635986, 0.76275, -0.9918823, 0.76275, -0.2512207, 0.76275, 0.221374, 0.76275, 1.4656489, 0.76275, -3.0076337
0.0905294, -0.0162814, 0.7695, -0.0653687, 0.7695, -0.9901123, 0.7695, -0.2466431, 0.7695, 0.6259542, 0.7695, 1.778626, 0.7695, -2.7862597
0.0913235, -0.0159457, 0.77625, -0.0679932, 0.77625, -0.9904175, 0.77625, -0.244873, 0.77625, 0.5725191, 0.77625, 2.2290077, 0.77625, -2.6030533
0.0921176, -0.0169528, 0.783, -0.0705566, 0.783, -0.991394, 0.783, -0.2468872, 0.783, 0.6335878, 0.783, 2.480916, 0.783, -2.5343511
0.0929118, -0.0151064, 0.78975, -0.074585, 0.78975, -0.9915771, 0.78975, -0.2489014, 0.78975, 0.7480916, 0.78975, 2.129771, 0.78975, -2.778626
0.0937059, -0.0176242, 0.7965, -0.0745239, 0.7965, -0.9921875, 0.7965, -0.2496948, 0.7965, 0.6793893, 0.7965, 1.961832, 0.7965, -2.8015268
0.0945, -0.0229953, 0.80325, -0.0734863, 0.80325, -0.9929199, 0.80325, -0.2488403, 0.80325, 0.8244275, 0.80325, 1.7633588, 0.80325, -2.6717558
0.0952941, -0.0196384, 0.81, -0.0733643, 0.81, -0.9935913, 0.81, -0.2468872, 0.81, 0.6793893, 0.81, 1.389313, 0.81, -2.9007633
0.0960882, -0.0172885, 0.81675, -0.0733643, 0.81675, -0.9946899, 0.81675, -0.2446289, 0.81675, 0.8473282, 0.81675, 1.1679389, 0.81675, -3.1450381
0.0968824, -0.0179599, 0.8235, -0.071167, 0.8235, -0.9937134, 0.8235, -0.2518921, 0.8235, 0.8244275, 0.8235, 1.1603054, 0.8235, -2.9312978
0.0976765, -0.0149386, 0.83025, -0.0734863, 0.83025, -0.9935913, 0.83025, -0.2498779, 0.83025, 0.9541985, 0.83025, 1.1603054, 0.83025, -3
0.0984706, -0.0172885, 0.837, -0.0699463, 0.837, -0.9926147, 0.837, -0.2487793, 0.837, 1.038168, 0.837, 1.2671756, 0.837, -3.1526718
0.0992647, -0.0209812, 0.84375, -0.0689087, 0.84375, -0.9941406, 0.84375, -0.2510376, 0.84375, 0.9541985, 0.84375, 1.3587786, 0.84375, -3.1984732
0.1000588, -0.017792, 0.8505, -0.069458, 0.8505, -0.9924316, 0.8505, -0.2490845, 0.8505, 1.0610687, 0.8505, 1.3282443, 0.8505, -3.1603053
0.1008529, -0.0129244, 0.85725, -0.0716553, 0.85725, -0.9935303, 0.85725, -0.246521, 0.85725, 0.8549618, 0.85725, 1.2519084, 0.85725, -3.1221373
0.1016471, -0.01561, 0.864, -0.0689697, 0.864, -0.994812, 0.864, -0.2494507, 0.864, 1.0839695, 0.864, 0.9694657, 0.864, -3.0076337
0.1024412, -0.0159457, 0.87075, -0.0668335, 0.87075, -0.9925537, 0.87075, -0.2478638, 0.87075, 1.038168, 0.87075, 1.129771, 0.87075, -3.1221373
0.1032353, -0.0099031, 0.8775, -0.0657959, 0.8775, -0.9931641, 0.8775, -0.2457275, 0.8775, 0.7251908, 0.8775, 0.8931298, 0.8775, -3.0687022
0.1040294, -0.0083925, 0.88425, -0.0687256, 0.88425, -0.9909058, 0.88425, -0.2443848, 0.88425, 0.8320611, 0.88425, 0.7480916, 0.88425, -3.1374047
0.1048235, -0.0125887, 0.891, -0.0657349, 0.891, -0.9896851, 0.891, -0.2457886, 0.891, 0.8549618, 0.891, 1.1221374, 0.891, -3.0152671
0.1056176, -0.0162814, 0.89775, -0.071106, 0.89775, -0.9902954, 0.89775, -0.2425537, 0.89775, 0.8625954, 0.89775, 1.0839695, 0.89775, -2.9694657
0.1064118, -0.0162814, 0.9045, -0.0683594, 0.9045, -0.9921875, 0.9045, -0.2391968, 0.9045, 0.778626, 0.9045, 1.1221374, 0.9045, -2.8778627
0.1072059, -0.0169528, 0.91125, -0.0717163, 0.91125, -0.991333, 0.91125, -0.2410889, 0.91125, 0.5114504, 0.91125, 1.0458015, 0.91125, -2.9847329
0.108, -0.0198062, 0.918, -0.0787964, 0.918, -0.9927368, 0.918, -0.2453003, 0.918, 0.2977099, 0.918, 1.1374046, 0.918, -3.0076337
0.1087941, -0.0176242, 0.92475, -0.0770264, 0.92475, -0.9892578, 0.92475, -0.2463989, 0.92475, -0.1145038, 0.92475, 1.0534351, 0.92475, -2.9007633
0.1095882, -0.0176242, 0.9315, -0.0758667, 0.9315, -0.9945068, 0.9315, -0.2397461, 0.9315, 0.1908397, 0.9315, 0.870229, 0.9315, -3.1450381
0.1103824, -0.0193027, 0.93825, -0.0724487, 0.93825, -0.9915771, 0.93825, -0.2432861, 0.93825, 0.221374, 0.93825, 0.4580153, 0.93825, -3.2290077
0.1111765, -0.0193027, 0.945, -0.0722046, 0.945, -0.9922485, 0.945, -0.2515259, 0.945, 0.2366412, 0.945, 0.2977099, 0.945, -3.0992367
0.1119706, -0.0213169, 0.95175, -0.0723877, 0.95175, -0.9924316, 0.95175, -0.2502441, 0.95175, 0.3816794, 0.95175, 0.1908397, 0.95175, -3.1755726
0.1127647, -0.0240024, 0.9585, -0.0653687, 0.9585, -0.9917603, 0.9585, -0.2528076, 0.9585, 0.5267175, 0.9585, 0.4656489, 0.9585, -3.2748091
0.1135588, -0.0240024, 0.96525, -0.0679932, 0.96525, -0.987915, 0.96525, -0.2501831, 0.96525, 0.7022901, 0.96525, 0.1221374, 0.96525, -3.2519083
0.1143529, -0.0298772, 0.972, -0.0654297, 0.972, -0.9951172, 0.972, -0.2515869, 0.972, 0.6335878, 0.972, -0.1221374, 0.972, -3.0534351
0.1151471, -0.0271916, 0.97875, -0.0678101, 0.97875, -0.9945068, 0.97875, -0.255127, 0.97875, 0.519084, 0.97875, 0.1068702, 0.97875, -3.0687022
0.1159412, -0.0159457, 0.9855, -0.0719604, 0.9855, -0.9943848, 0.9855, -0.2525024, 0.9855, 0.519084, 0.9855, 0.2442748, 0.9855, -3.0839694
0.1167353, -0.0015106, 0.99225, -0.0765381, 0.99225, -0.9959717, 0.99225, -0.2525024, 0.99225, 0.9007633, 0.99225, 0.0534351, 0.99225, -3.0534351
0.1175294, 0.0099031, 0.999, -0.0789795, 0.999, -0.9929199, 0.999, -0.2557983, 0.999, 0.9389313, 0.999, -0.2977099, 0.999, -3.2137403
0.1183235, 0.0092317, 1.00575, -0.0776978, 1.00575, -0.9943848, 1.00575, -0.2589722, 1.00575, 1.1755725, 1.00575, -0.648855, 1.00575, -3.1908398
0.1191176, 0.0028534, 1.0125, -0.076355, 1.0125, -0.9933472, 1.0125, -0.2587891, 1.0125, 1.2137405, 1.0125, -0.6793893, 1.0125, -3.4427481
0.1199118, -0.0031891, 1.01925, -0.0766602, 1.01925, -0.9912109, 1.01925, -0.2608643, 1.01925, 1.4045801, 1.01925, -0.648855, 1.01925, -3.4580152
0.1207059, -0.0070497, 1.026, -0.0819092, 1.026, -0.9920654, 1.026, -0.2599487, 1.026, 1.3282443, 1.026, -0.6946565, 1.026, -3.5954199
0.1215, -0.0132601, 1.03275, -0.081543, 1.03275, -0.9908447, 1.03275, -0.2587891, 1.03275, 1.4732825, 1.03275, -0.8244275, 1.03275, -3.8778627
0.1222941, -0.0135958, 1.0395, -0.0797119, 1.0395, -0.987854, 1.0395, -0.2674561, 1.0395, 1.7022901, 1.0395, -0.4503817, 1.0395, -3.9847329
0.1230882, -0.0149386, 1.04625, -0.0818481, 1.04625, -0.9883423, 1.04625, -0.2615356, 1.04625, 1.8091604, 1.04625, -0.4885496, 1.04625, -4.1603055
0.1238824, -0.0132601, 1.053, -0.0791016, 1.053, -0.9978638, 1.053, -0.251709, 1.053, 1.9160305, 1.053, -0.9465649, 1.053, -4.3053436
0.1246765, -0.0132601, 1.05975, -0.0714111, 1.05975, -0.9915771, 1.05975, -0.2496948, 1.05975, 2.038168, 1.05975, -1.091603, 1.05975, -4.3053436
0.1254706, -0.018967, 1.0665, -0.0698853, 1.0665, -0.9901733, 1.0665, -0.2495728, 1.0665, 1.7633588, 1.0665, -1.389313, 1.0665, -4.4122138
0.1262647, -0.023331, 1.07325, -0.0648804, 1.07325, -0.9892578, 1.07325, -0.2481079, 1.07325, 2.1374047, 1.07325, -1.4274809, 1.07325, -4.1908398
0.1270588, -0.018967, 1.08, -0.0626831, 1.08, -0.9876709, 1.08, -0.2454834, 1.08, 2.2290077, 1.08, -0.9770992, 1.08, -4.1526718
0.1278529, -0.018967, 1.08675, -0.0629883, 1.08675, -0.9873657, 1.08675, -0.2506104, 1.08675, 2.2366412, 1.08675, -0.7328244, 1.08675, -3.8091602
0.1286471, -0.0179599, 1.0935, -0.0615234, 1.0935, -0.9900513, 1.0935, -0.2459717, 1.0935, 2.091603, 1.0935, -0.3969466, 1.0935, -3.6183207
0.1294412, -0.0129244, 1.10025, -0.0630493, 1.10025, -0.9928589, 1.10025, -0.2443237, 1.10025, 2.1908398, 1.10025, -0.4503817, 1.10025, -3.6412213
0.1302353, -0.0070497, 1.107, -0.0655518, 1.107, -0.9928589, 1.107, -0.2434082, 1.107, 2.2137403, 1.107, -0.5801527, 1.107, -3.6412213
0.1310294, -0.0109102, 1.11375, -0.0626221, 1.11375, -0.9907837, 1.11375, -0.2424316, 1.11375, 2.0763359, 1.11375, -0.740458, 1.11375, -3.480916
0.1318235, -0.0164492, 1.1205, -0.0615234, 1.1205, -0.9921265, 1.1205, -0.2426147, 1.1205, 2.4656489, 1.1205, -0.6870229, 1.1205, -3.2900763
0.1326176, -0.0142672, 1.12725, -0.0635986, 1.12725, -0.9949951, 1.12725, -0.2406006, 1.12725, 1.961832, 1.12725, -0.5954198, 1.12725, -3.2366412
0.1334118, -0.0045319, 1.134, -0.0604248, 1.134, -0.9962769, 1.134, -0.2349243, 1.134, 1.3129771, 1.134, -0.610687, 1.134, -3.0839694
0.1342059, -0.0025177, 1.14075, -0.0616455, 1.14075, -0.994873, 1.14075, -0.2381592, 1.14075, 0.8320611, 1.14075, 0.1450382, 1.14075, -2.9160306
0.135, -0.0159457, 1.1475, -0.06427, 1.1475, -0.9904785, 1.1475, -0.2367554, 1.1475, 0.221374, 1.1475, 0.2824427, 1.1475, -2.5877862
0.1357941, -0.0149386, 1.15425, -0.0626831, 1.15425, -0.989563, 1.15425, -0.2349854, 1.15425, 0.1221374, 1.15425, 0.2366412, 1.15425, -2.6030533
0.1365882, -0.008896, 1.161, -0.0685425, 1.161, -0.9911499, 1.161, -0.2371826, 1.161, 0.2290076, 1.161, 0.4198473, 1.161, -2.5038168
0.1373824, -0.0135958, 1.16775, -0.0670166, 1.16775, -0.9936523, 1.16775, -0.2320557, 1.16775, -0.0839695, 1.16775, 0.4503817, 1.16775, -2.4885497
0.1381765, -0.0129244, 1.1745, -0.0667114, 1.1745, -0.9887695, 1.1745, -0.2365112, 1.1745, 0.1755725, 1.1745, 0.3587786, 1.1745, -2.2824428
0.1389706, -0.0146029, 1.18125, -0.0630493, 1.18125, -0.9915161, 1.18125, -0.2384644, 1.18125, 0.2137405, 1.18125, 0.2824427, 1.18125, -2.1679389
0.1397647, -0.0184634, 1.188, -0.0634155, 1.188, -0.9902954, 1.188, -0.2406006, 1.188, -0.0687023, 1.188, 0.2977099, 1.188, -2
0.1405588, -0.0137636, 1.19475, -0.065918, 1.19475, -0.9868164, 1.19475, -0.2401123, 1.19475, -0.3969466, 1.19475, 0.480916, 1.19475, -2.1145039
0.1413529, -0.0075532, 1.2015, -0.0634766, 1.2015, -0.9907227, 1.2015, -0.2391968, 1.2015, -0.6870229, 1.2015, 0.8167939, 1.2015, -2.1832061
0.1421471, -0.0130922, 1.20825, -0.0598755, 1.20825, -0.9921875, 1.20825, -0.2359619, 1.20825, -1.0076336, 1.20825, 1.2290076, 1.20825, -2.091603
0.1429412, -0.0172885, 1.215, -0.0628662, 1.215, -0.9916992, 1.215, -0.2348633, 1.215, -0.6641222, 1.215, 1.3282443, 1.215, -2.1908398
0.1437353, -0.0172885, 1.22175, -0.0706787, 1.22175, -0.9946289, 1.22175, -0.227478, 1.22175, -0.259542, 1.22175, 1.4351145, 1.22175, -1.8320611
0.1445294, -0.0186313, 1.2285, -0.067688, 1.2285, -0.9925537, 1.2285, -0.2322388, 1.2285, -0.4885496, 1.2285, 2.0305343, 1.2285, -1.648855
0.1453235, -0.0216526, 1.23525, -0.0630493, 1.23525, -0.9907227, 1.23525, -0.2381592, 1.23525, -0.5954198, 1.23525, 2.2137403, 1.23525, -1.5267175
0.1461176, -0.0199741, 1.242, -0.062439, 1.242, -0.9951782, 1.242, -0.2383423, 1.242, -0.5267175, 1.242, 1.8320611, 1.242, -1.4503816
0.1469118, -0.018967, 1.24875, -0.0772095, 1.24875, -0.9925537, 1.24875, -0.2360229, 1.24875, -0.6946565, 1.24875, 1.8015267, 1.24875, -1.6564885
0.1477059, -0.0241703, 1.2555, -0.0756836, 1.2555, -0.9898682, 1.2555, -0.2394409, 1.2555, -0.8549618, 1.2555, 2.1068702, 1.2555, -1.4503816
0.1485, -0.0258488, 1.26225, -0.0737305, 1.26225, -0.9862061, 1.26225, -0.2424927, 1.26225, -0.8931298, 1.26225, 2.1145039, 1.26225, -1.4427481
0.1492941, -0.0196384, 1.269, -0.0697632, 1.269, -0.9887085, 1.269, -0.2462158, 1.269, -0.7862595, 1.269, 2.1679389, 1.269, -1.3587786
0.1500882, -0.0166171, 1.27575, -0.0656738, 1.27575, -0.9880981, 1.27575, -0.2450562, 1.27575, -0.5877863, 1.27575, 2.5648854, 1.27575, -1.3129771
0.1508824, -0.0162814, 1.2825, -0.0682373, 1.2825, -0.9886475, 1.2825, -0.2477417, 1.2825, -0.8320611, 1.2825, 3.3740458, 1.2825, -1.1832061
0.1516765, -0.014435, 1.28925, -0.0697021, 1.28925, -0.9846802, 1.28925, -0.2459106, 1.28925, -0.9236641, 1.28925, 3.4580152, 1.28925, -0.8244275
0.1524706, -0.0129244, 1.296, -0.0765991, 1.296, -0.9874878, 1.296, -0.2513428, 1.296, -0.7633588, 1.296, 3.2061069, 1.296, -1.038168
0.1532647, -0.0097353, 1.30275, -0.0750122, 1.30275, -0.9863892, 1.30275, -0.2540283, 1.30275, -0.8167939, 1.30275, 3.1832061, 1.30275, -1.1603054
0.1540588, -0.0102388, 1.3095, -0.0717163, 1.3095, -0.9899292, 1.3095, -0.2537231, 1.3095, -0.5114504, 1.3095, 3.519084, 1.3095, -1.2442749
0.1548529, -0.0095674, 1.31625, -0.069458, 1.31625, -0.9915771, 1.31625, -0.2546387, 1.31625, -0.4351145, 1.31625, 3.5038168, 1.31625, -1.129771
0.1556471, -0.0117494, 1.323, -0.0737915, 1.323, -0.9951782, 1.323, -0.2557373, 1.323, -0.4198473, 1.323, 3.091603, 1.323, -1.1145039
0.1564412, -0.0115816, 1.32975, -0.0823975, 1.32975, -0.9952393, 1.32975, -0.2564697, 1.32975, -0.5496183, 1.32975, 2.8396947, 1.32975, -1.2290076
0.1572353, -0.0109102, 1.3365, -0.0829468, 1.3365, -0.987915, 1.3365, -0.2579346, 1.3365, -1.351145, 1.3365, 2.3969467, 1.3365, -1.5496184
0.1580294, -0.0142672, 1.34325, -0.0866699, 1.34325, -0.9893799, 1.34325, -0.2583008, 1.34325, -1.4427481, 1.34325, 2.0763359, 1.34325, -1.5648855
0.1588235, -0.0162814, 1.35, -0.0876465, 1.35, -0.9945068, 1.35, -0.2556763, 1.35, -1.7099236, 1.35, 1.351145, 1.35, -1.7251909
0.1596176, -0.01561, 1.35675, -0.0861206, 1.35675, -0.9916382, 1.35675, -0.2606812, 1.35675, -1.8015267, 1.35675, 0.9541985, 1.35675, -1.961832
0.1604118, -0.0191348, 1.3635, -0.086731, 1.3635, -0.9935303, 1.3635, -0.2631836, 1.3635, -1.908397, 1.3635, 0.2519084, 1.3635, -2.2290077
0.1612059, -0.0166171, 1.37025, -0.0831299, 1.37025, -0.9956665, 1.37025, -0.2589111, 1.37025, -1.5038168, 1.37025, -0.6335878, 1.37025, -2.0763359
0.162, -0.0209812, 1.377, -0.0782471, 1.377, -0.9917603, 1.377, -0.2654419, 1.377, -1.6717557, 1.377, -0.7557252, 1.377, -2.0763359
0.1627941, -0.0169528, 1.38375, -0.0767822, 1.38375, -0.9909058, 1.38375, -0.2677612, 1.38375, -1.4045801, 1.38375, -0.9465649, 1.38375, -2.4045801
0.1635882, -0.0112459, 1.3905, -0.0722656, 1.3905, -0.9911499, 1.3905, -0.2641602, 1.3905, -1.2671756, 1.3905, -0.8396947, 1.3905, -2.4656489
0.1643824, -0.0092317, 1.39725, -0.072937, 1.39725, -0.9897461, 1.39725, -0.267395, 1.39725, -1.6564885, 1.39725, -0.8625954, 1.39725, -2.0458016
0.1651765, -0.0085603, 1.404, -0.0735474, 1.404, -0.9923096, 1.404, -0.2669678, 1.404, -1.7633588, 1.404, -1.1374046, 1.404, -2.0687022
0.1659706, -0.0083925, 1.41075, -0.0718384, 1.41075, -0.9937134, 1.41075, -0.2623901, 1.41075, -1.6870229, 1.41075, -1.0534351, 1.41075, -1.8854961
0.1667647, -0.008896, 1.4175, -0.0732422, 1.4175, -0.9938965, 1.4175, -0.2687378, 1.4175, -1.2137405, 1.4175, -0.9312977, 1.4175, -1.8473282
0.1675588, -0.0172885, 1.42425, -0.0771484, 1.42425, -0.9926147, 1.42425, -0.2631836, 1.42425, -0.4885496, 1.42425, -0.648855, 1.42425, -1.961832
0.1683529, -0.0132601, 1.431, -0.0859375, 1.431, -0.9933472, 1.431, -0.2612915, 1.431, -0.1984733, 1.431, -0.5954198, 1.431, -1.9236641
0.1691471, -0.0085603, 1.43775, -0.0836792, 1.43775, -0.9932251, 1.43775, -0.2653809, 1.43775, -0.3129771, 1.43775, -1.2519084, 1.43775, -1.9389313
0.1699412, -0.008896, 1.4445, -0.0916138, 1.4445, -0.989502, 1.4445, -0.2655029, 1.4445, -0.6335878, 1.4445, -1.8473282, 1.4445, -2.1603053
0.1707353, -0.0082246, 1.45125, -0.0875244, 1.45125, -0.9887695, 1.45125, -0.2601318, 1.45125, -0.2290076, 1.45125, -2.0610688, 1.45125, -2.221374
0.1715294, -0.0095674, 1.458, -0.0849609, 1.458, -0.989502, 1.458, -0.2630615, 1.458, -0.1832061, 1.458, -2.4885497, 1.458, -2.5114503
0.1723235, -0.0216526, 1.46475, -0.0854492, 1.46475, -0.9920044, 1.46475, -0.2646484, 1.46475, -0.4351145, 1.46475, -3.1526718, 1.46475, -2.519084
0.1731176, -0.0310521, 1.4715, -0.0739746, 1.4715, -0.9869385, 1.4715, -0.2669067, 1.4715, -0.778626, 1.4715, -3.4198472, 1.4715, -2.480916
0.1739118, -0.0256809, 1.47825, -0.0717163, 1.47825, -0.9887085, 1.47825, -0.2596436, 1.47825, -0.8931298, 1.47825, -3.1984732, 1.47825, -2.5648854
0.1747059, -0.0162814, 1.485, -0.0714722, 1.485, -0.9865112, 1.485, -0.2527466, 1.485, -0.7709923, 1.485, -3.1603053, 1.485, -2.5038168
0.1755, -0.0219883, 1.49175, -0.0662231, 1.49175, -0.9802856, 1.49175, -0.2483521, 1.49175, -0.6717557, 1.49175, -3.351145, 1.49175, -2.480916
0.1762941, -0.0182956, 1.4985, -0.0657959, 1.4985, -0.9802246, 1.4985, -0.253479, 1.4985, -0.8396947, 1.4985, -3.1221373, 1.4985, -2.3664122
0.1770882, -0.0186313, 1.50525, -0.0664062, 1.50525, -0.9815674, 1.50525, -0.2567139, 1.50525, -0.9923664, 1.50525, -2.4274809, 1.50525, -2.221374
0.1778824, -0.0258488, 1.512, -0.0653687, 1.512, -0.9758911, 1.512, -0.2503662, 1.512, -0.9007633, 1.512, -1.4732825, 1.512, -1.9465649
0.1786765, -0.0223239, 1.51875, -0.0667114, 1.51875, -0.9824829, 1.51875, -0.248291, 1.51875, -1.2519084, 1.51875, -1.2671756, 1.51875, -1.8473282
0.1794706, -0.0099031, 1.5255, -0.0697632, 1.5255, -0.9824829, 1.5255, -0.2388916, 1.5255, -1.5725191, 1.5255, -1.5725191, 1.5255, -1.8854961
0.1802647, -0.0129244, 1.53225, -0.0657959, 1.53225, -0.9781494, 1.53225, -0.2336426, 1.53225, -1.7328244, 1.53225, -1.1755725, 1.53225, -1.908397
0.1810588, -0.0176242, 1.539, -0.0703125, 1.539, -0.9786377, 1.539, -0.2350464, 1.539, -2.2442749, 1.539, -0.8015267, 1.539, -1.480916
0.1818529, -0.0152743, 1.54575, -0.0703125, 1.54575, -0.982666, 1.54575, -0.2381592, 1.54575, -2.3282442, 1.54575, -0.778626, 1.54575, -1.1755725
0.1826471, -0.0129244, 1.5525, -0.071106, 1.5525, -0.987915, 1.5525, -0.2369995, 1.5525, -2.7328243, 1.5525, -0.6030535, 1.5525, -1.0687023
0.1834412, -0.0050355, 1.55925, -0.0719604, 1.55925, -0.9914551, 1.55925, -0.2385254, 1.55925, -2.8549619, 1.55925, -0.3816794, 1.55925, -0.9847328
0.1842353, -0.0038605, 1.566, -0.0667114, 1.566, -0.9932861, 1.566, -0.2376099, 1.566, -2.961832, 1.566, 0.4885496, 1.566, -0.7709923
0.1850294, -0.0095674, 1.57275, -0.0664673, 1.57275, -0.9918213, 1.57275, -0.2457886, 1.57275, -2.9389312, 1.57275, 0.610687, 1.57275, -0.6793893
0.1858235, -0.0129244, 1.5795, -0.0628052, 1.5795, -0.9946899, 1.5795, -0.2474976, 1.5795, -3.2519083, 1.5795, 0.6793893, 1.5795, -0.2519084
0.1866176, -0.0112459, 1.58625, -0.0622559, 1.58625, -0.99646, 1.58625, -0.2424927, 1.58625, -3.5114503, 1.58625, 1.091603, 1.58625, -0.0763359
0.1874118, -0.0095674, 1.593, -0.0611572, 1.593, -0.9953613, 1.593, -0.2442627, 1.593, -4.2290077, 1.593, 1.5801526, 1.593, 0.1755725
0.1882059, -0.0125887, 1.59975, -0.0610352, 1.59975, -0.9942017, 1.59975, -0.2466431, 1.59975, -4.3664122, 1.59975, 2.2824428, 1.59975, 0.4503817
0.189, -0.0132601, 1.6065, -0.0619507, 1.6065, -0.9903564, 1.6065, -0.2478638, 1.6065, -4.5877862, 1.6065, 3.0229008, 1.6065, 0.7099237
0.1897941, -0.0109102, 1.61325, -0.0620728, 1.61325, -0.9882812, 1.61325, -0.2510376, 1.61325, -4.8702292, 1.61325, 3.3282442, 1.61325, 1.2061069
0.1905882, -0.0139315, 1.62, -0.062561, 1.62, -0.9840088, 1.62, -0.2470703, 1.62, -5.1832061, 1.62, 3.7099237, 1.62, 1.1908396
0.1913824, -0.0171206, 1.62675, -0.0626221, 1.62675, -0.9813232, 1.62675, -0.2490845, 1.62675, -5.0839696, 1.62675, 4.259542, 1.62675, 1.4732825
0.1921765, -0.0146029, 1.6335, -0.0705566, 1.6335, -0.9832764, 1.6335, -0.2493896, 1.6335, -5.3893127, 1.6335, 4.4961834, 1.6335, 1.7480916
0.1929706, -0.0142672, 1.64025, -0.069519, 1.64025, -0.9853516, 1.64025, -0.2496338, 1.64025, -5.6335878, 1.64025, 4.6793895, 1.64025, 2.0076337
0.1937647, -0.0176242, 1.647, -0.0737305, 1.647, -0.9859009, 1.647, -0.2471924, 1.647, -6.0992365, 1.647, 5.2366414, 1.647, 2.129771
0.1945588, -0.0137636, 1.65375, -0.0731201, 1.65375, -0.9904175, 1.65375, -0.24646, 1.65375, -6.3129773, 1.65375, 5.3206105, 1.65375, 2.1450381
0.1953529, -0.0149386, 1.6605, -0.0769043, 1.6605, -0.994812, 1.6605, -0.2501831, 1.6605, -6.8015265, 1.6605, 5.8625956, 1.6605, 2.480916
0.1961471, -0.0137636, 1.66725, -0.0829468, 1.66725, -0.9899902, 1.66725, -0.256958, 1.66725, -7.1679387, 1.66725, 6.3206105, 1.66725, 2.6717558
0.1969412, -0.0152743, 1.674, -0.0950928, 1.674, -0.9839478, 1.674, -0.2637939, 1.674, -7.1908398, 1.674, 6, 1.674, 2.3740458
0.1977353, -0.0182956, 1.68075, -0.1105957, 1.68075, -0.9846802, 1.68075, -0.2722168, 1.68075, -6.7175574, 1.68075, 5.8167939, 1.68075, 2.3740458
0.1985294, -0.0159457, 1.6875, -0.1151733, 1.6875, -0.9821777, 1.6875, -0.2825928, 1.6875, -7.3206105, 1.6875, 5.6793895, 1.6875, 2.0992367
0.1993235, -0.0162814, 1.69425, -0.1199951, 1.69425, -0.9866943, 1.69425, -0.284668, 1.69425, -8.2748089, 1.69425, 4.7022901, 1.69425, 1.3129771
0.2001176, -0.0119173, 1.701, -0.1236572, 1.701, -0.9865723, 1.701, -0.284668, 1.701, -9.0076332, 1.701, 4.1755724, 1.701, 0.8091603
0.2009118, -0.0085603, 1.70775, -0.1119385, 1.70775, -0.9863281, 1.70775, -0.2855225, 1.70775, -9.2061071, 1.70775, 2.7557251, 1.70775, 0.3664122
0.2017059, -0.0048676, 1.7145, -0.0986938, 1.7145, -0.9909058, 1.7145, -0.2930908, 1.7145, -9.160305, 1.7145, 1.8931298, 1.7145, 0.259542
0.2025, -0.0031891, 1.72125, -0.0906982, 1.72125, -0.9890747, 1.72125, -0.3075562, 1.72125, -8.6183205, 1.72125, 1.3053435, 1.72125, 0.5572519
0.2032941, -0.0048676, 1.728, -0.0845947, 1.728, -0.9807739, 1.728, -0.3145752, 1.728, -8.4122133, 1.728, 1.3282443, 1.728, 0.5038168
0.2040882, -0.0048676, 1.73475, -0.0888672, 1.73475, -0.9766235, 1.73475, -0.3134766, 1.73475, -7.9923663, 1.73475, 2.1603053, 1.73475, 0.5419847
0.2048824, -0.0092317, 1.7415, -0.0925293, 1.7415, -0.9743042, 1.7415, -0.3139038, 1.7415, -7.6030536, 1.7415, 2.9312978, 1.7415, 0.5038168
0.2056765, -0.014435, 1.74825, -0.0927124, 1.74825, -0.9853516, 1.74825, -0.321106, 1.74825, -7.1145039, 1.74825, 3.6870229, 1.74825, 0.8625954
0.2064706, -0.0171206, 1.755, -0.0944214, 1.755, -0.9925537, 1.755, -0.3178711, 1.755, -6.8473282, 1.755, 4.0610685, 1.755, 0.8244275
0.2072647, -0.0166171, 1.76175, -0.1039429, 1.76175, -0.9904785, 1.76175, -0.321167, 1.76175, -6.1068702, 1.76175, 4.7480917, 1.76175, 0.8015267
0.2080588, -0.0149386, 1.7685, -0.1085815, 1.7685, -0.9824219, 1.7685, -0.3203735, 1.7685, -6.1374044, 1.7685, 5.6564884, 1.7685, 0.778626
0.2088529, -0.012253, 1.77525, -0.102417, 1.77525, -0.9892578, 1.77525, -0.3179932, 1.77525, -6.1145039, 1.77525, 6.0763359, 1.77525, 0.5648855
0.2096471, -0.0152743, 1.782, -0.1032715, 1.782, -0.9914551, 1.782, -0.3110962, 1.782, -5.9694657, 1.782, 5.9160304, 1.782, 0.519084
0.2104412, -0.0209812, 1.78875, -0.1102905, 1.78875, -0.9870605, 1.78875, -0.3123169, 1.78875, -5.7938933, 1.78875, 5.8549619, 1.78875, 0.2061069
0.2112353, -0.0182956, 1.7955, -0.1165161, 1.7955, -0.9787598, 1.7955, -0.3123169, 1.7955, -5.740458, 1.7955, 5.480916, 1.7955, -0.2900763
0.2120294, -0.0193027, 1.80225, -0.1196899, 1.80225, -0.9755859, 1.80225, -0.3080444, 1.80225, -5.4732823, 1.80225, 4.6793895, 1.80225, -0.5648855
0.2128235, -0.0199741, 1.809, -0.1223755, 1.809, -0.9771118, 1.809, -0.3078613, 1.809, -5.2366414, 1.809, 4.3358779, 1.809, -0.8625954
0.2136176, -0.0199741, 1.81575, -0.1201782, 1.81575, -0.9795532, 1.81575, -0.3109131, 1.81575, -4.6412215, 1.81575, 3.7709923, 1.81575, -0.9389313
0.2144118, -0.0169528, 1.8225, -0.1166382, 1.8225, -0.9810791, 1.8225, -0.315918, 1.8225, -3.9312978, 1.8225, 3.3664122, 1.8225, -1.3969465
0.2152059, -0.0135958, 1.82925, -0.1100464, 1.82925, -0.9799805, 1.82925, -0.3155518, 1.82925, -3.0305343, 1.82925, 3.6641221, 1.82925, -1.8320611
0.216, -0.012253, 1.836, -0.1062012, 1.836, -0.9760742, 1.836, -0.3157349, 1.836, -2.8473282, 1.836, 3.6183207, 1.836, -1.9389313
0.2167941, -0.0082246, 1.84275, -0.1116333, 1.84275, -0.9771729, 1.84275, -0.3081055, 1.84275, -2.6870229, 1.84275, 2.8854961, 1.84275, -2.3816793
0.2175882, -0.0075532, 1.8495, -0.1171265, 1.8495, -0.9795532, 1.8495, -0.305481, 1.8495, -2.3587787, 1.8495, 2.6946564, 1.8495, -2.259542
0.2183824, -0.0097353, 1.85625, -0.1105347, 1.85625, -0.9743652, 1.85625, -0.3146973, 1.85625, -1.7022901, 1.85625, 2.9847329, 1.85625, -2.0152671
0.2191765, -0.0149386, 1.863, -0.0960693, 1.863, -0.9721069, 1.863, -0.3062134, 1.863, -1.5267175, 1.863, 3.1221373, 1.863, -2.0687022
0.2199706, -0.0218204, 1.86975, -0.0933228, 1.86975, -0.9842529, 1.86975, -0.2993164, 1.86975, -1.2290076, 1.86975, 2.4274809, 1.86975, -2.4045801
0.2207647, -0.0213169, 1.8765, -0.0917969, 1.8765, -0.984436, 1.8765, -0.3104858, 1.8765, -1.0305344, 1.8765, 1.6412214, 1.8765, -2.6564887
0.2215588, -0.0151064, 1.88325, -0.0872803, 1.88325, -0.9811401, 1.88325, -0.3182983, 1.88325, -1.1450381, 1.88325, 1.4732825, 1.88325, -2.5648854
0.2223529, -0.0193027, 1.89, -0.0861816, 1.89, -0.982666, 1.89, -0.3152466, 1.89, -0.9770992, 1.89, 1.6183206, 1.89, -2.7557251
0.2231471, -0.0179599, 1.89675, -0.0861206, 1.89675, -0.9832153, 1.89675, -0.3012695, 1.89675, -0.6793893, 1.89675, 2.5877862, 1.89675, -2.7328243
0.2239412, -0.01561, 1.9035, -0.0870972, 1.9035, -0.9813843, 1.9035, -0.303894, 1.9035, -0.9312977, 1.9035, 2.8625953, 1.9035, -2.7099237
0.2247353, -0.0176242, 1.91025, -0.0863647, 1.91025, -0.9833984, 1.91025, -0.3121948, 1.91025, -0.7633588, 1.91025, 3.0763359, 1.91025, -2.4732823
0.2255294, -0.0179599, 1.917, -0.1010742, 1.917, -0.987915, 1.917, -0.3145752, 1.917, -0.2748092, 1.917, 3.6412213, 1.917, -2.5801528
0.2263235, -0.0166171, 1.92375, -0.1119385, 1.92375, -0.986084, 1.92375, -0.3050537, 1.92375, -0.6335878, 1.92375, 3.9389312, 1.92375, -2.5496182
0.2271176, -0.0164492, 1.9305, -0.1143799, 1.9305, -0.9793701, 1.9305, -0.3027344, 1.9305, -1.1679389, 1.9305, 3.5496182, 1.9305, -2.7633588
0.2279118, -0.0164492, 1.93725, -0.1078491, 1.93725, -0.9840698, 1.93725, -0.2980347, 1.93725, -1.0839695, 1.93725, 3.4656489, 1.93725, -2.9312978
0.2287059, -0.014435, 1.944, -0.1067505, 1.944, -0.9869995, 1.944, -0.3000488, 1.944, -0.5114504, 1.944, 3.3435113, 1.944, -3.2366412
0.2295, -0.0166171, 1.95075, -0.1062622, 1.95075, -0.9881592, 1.95075, -0.2993164, 1.95075, -0.0839695, 1.95075, 3.1374047, 1.95075, -3.480916
0.2302941, -0.0176242, 1.9575, -0.1057129, 1.9575, -0.9819946, 1.9575, -0.2991333, 1.9575, -0.0534351, 1.9575, 2.6641221, 1.9575, -3.4351146
0.2310882, -0.0134279, 1.96425, -0.1032104, 1.96425, -0.9799194, 1.96425, -0.3005371, 1.96425, 0.0687023, 1.96425, 2.6259542, 1.96425, -3.519084
0.2318824, -0.0115816, 1.971, -0.0993042, 1.971, -0.9786377, 1.971, -0.3155518, 1.971, 0.1374046, 1.971, 2.908397, 1.971, -3.5114503
0.2326765, -0.0119173, 1.97775, -0.0932007, 1.97775, -0.9832764, 1.97775, -0.3101807, 1.97775, 0.3206107, 1.97775, 3.6946564, 1.97775, -3.6259542
0.2334706, -0.0125887, 1.9845, -0.0962524, 1.9845, -0.9819946, 1.9845, -0.3126831, 1.9845, 0.4656489, 1.9845, 3.6030533, 1.9845, -3.5877862
0.2342647, -0.0162814, 1.99125, -0.0980835, 1.99125, -0.9766235, 1.99125, -0.3173218, 1.99125, -0.0534351, 1.99125, 3.038168, 1.99125, -3.4732823
0.2350588, -0.0157778, 1.998, -0.0969238, 1.998, -0.975647, 1.998, -0.3135376, 1.998, -0.7557252, 1.998, 2.8625953, 1.998, -3.5954199
0.2358529, -0.0179599, 2.00475, -0.0907593, 2.00475, -0.9788818, 2.00475, -0.3138428, 2.00475, -0.5877863, 2.00475, 2.7175572, 2.00475, -3.6793892
0.2366471, -0.0179599, 2.0115, -0.0924072, 2.0115, -0.9768066, 2.0115, -0.3112183, 2.0115, -0.8549618, 2.0115, 2.2519083, 2.0115, -3.8625953
0.2374412, -0.0095674, 2.01825, -0.0952759, 2.01825, -0.9782715, 2.01825, -0.3173828, 2.01825, -0.5419847, 2.01825, 2.4274809, 2.01825, -4.1450381
0.2382353, -0.0102388, 2.025, -0.0984497, 2.025, -0.9754028, 2.025, -0.3175659, 2.025, -0.3053435, 2.025, 2.4961832, 2.025, -4.2748094
0.2390294, -0.0142672, 2.03175, -0.0980835, 2.03175, -0.9754028, 2.03175, -0.3196411, 2.03175, -0.3435115, 2.03175, 1.9160305, 2.03175, -4.0687022
0.2398235, -0.0154421, 2.0385, -0.0983276, 2.0385, -0.9793701, 2.0385, -0.3120117, 2.0385, -0.1832061, 2.0385, 1.7175573, 2.0385, -4.2442746
0.2406176, -0.0191348, 2.04525, -0.098877, 2.04525, -0.9803467, 2.04525, -0.3120728, 2.04525, 0.0381679, 2.04525, 1.1603054, 2.04525, -4.5267177
0.2414118, -0.0193027, 2.052, -0.104126, 2.052, -0.9816284, 2.052, -0.3087769, 2.052, 0.2824427, 2.052, 0.9160305, 2.052, -4.778626
0.2422059, -0.018967, 2.05875, -0.1085815, 2.05875, -0.9807739, 2.05875, -0.305481, 2.05875, 0.0839695, 2.05875, 0.3587786, 2.05875, -5.1068702
0.243, -0.0196384, 2.0655, -0.1090088, 2.0655, -0.979187, 2.0655, -0.302002, 2.0655, 0.4732825, 2.0655, 0.2442748, 2.0655, -5.5114503
0.2437941, -0.0142672, 2.07225, -0.1096802, 2.07225, -0.9765625, 2.07225, -0.2964478, 2.07225, 1.3740458, 2.07225, 0.6183206, 2.07225, -5.2977099
0.2445882, -0.0171206, 2.079, -0.1021118, 2.079, -0.9751587, 2.079, -0.2928467, 2.079, 1.8625954, 2.079, 0.6335878, 2.079, -5.2977099
0.2453824, -0.0152743, 2.08575, -0.0964966, 2.08575, -0.9779663, 2.08575, -0.2944946, 2.08575, 2.1145039, 2.08575, 0.1145038, 2.08575, -5.5801525
0.2461765, -0.0072175, 2.0925, -0.0894775, 2.0925, -0.9753418, 2.0925, -0.2913208, 2.0925, 2.5648854, 2.0925, -0.2442748, 2.0925, -5.6793895
0.2469706, -0.0083925, 2.09925, -0.0863647, 2.09925, -0.9714355, 2.09925, -0.2977295, 2.09925, 3.1068702, 2.09925, -0.3435115, 2.09925, -5.5648856
0.2477647, -0.0083925, 2.106, -0.0834351, 2.106, -0.9713135, 2.106, -0.3022461, 2.106, 2.778626, 2.106, -0.610687, 2.106, -5.3664122
0.2485588, -0.0124208, 2.11275, -0.0786743, 2.11275, -0.9710693, 2.11275, -0.3044434, 2.11275, 2.9007633, 2.11275, -0.2748092, 2.11275, -5.7251906
0.2493529, -0.0162814, 2.1195, -0.083252, 2.1195, -0.972229, 2.1195, -0.3062134, 2.1195, 2.9465649, 2.1195, -0.0763359, 2.1195, -5.6030536
0.2501471, -0.018967, 2.12625, -0.0889282, 2.12625, -0.9769287, 2.12625, -0.2987061, 2.12625, 3.6183207, 2.12625, 0.1984733, 2.12625, -5.6335878
0.2509412, -0.018967, 2.133, -0.0924683, 2.133, -0.9743042, 2.133, -0.2976074, 2.133, 3.3129771, 2.133, -0.4961832, 2.133, -5.4656487
0.2517353, -0.0142672, 2.13975, -0.0900269, 2.13975, -0.9753418, 2.13975, -0.3059692, 2.13975, 2.9007633, 2.13975, -1.0534351, 2.13975, -5.4122138
0.2525294, -0.005539, 2.1465, -0.0913086, 2.1465, -0.9801636, 2.1465, -0.3005981, 2.1465, 2.7251909, 2.1465, -1.2824427, 2.1465, -5.5114503
0.2533235, -0.0070497, 2.15325, -0.0930786, 2.15325, -0.9771118, 2.15325, -0.2939453, 2.15325, 2.610687, 2.15325, -0.3969466, 2.15325, -5.5267177
0.2541176, 0.0028534, 2.16, -0.0909424, 2.16, -0.9770508, 2.16, -0.2901611, 2.16, 2.2824428, 2.16, -0.3358779, 2.16, -5.519084
0.2549118, 0.005539, 2.16675, -0.090271, 2.16675, -0.975647, 2.16675, -0.2955933, 2.16675, 2.5114503, 2.16675, -0.6717557, 2.16675, -5.6412215
0.2557059, -0.0072175, 2.1735, -0.0843506, 2.1735, -0.9758911, 2.1735, -0.2966919, 2.1735, 2.259542, 2.1735, -0.7862595, 2.1735, -5.5267177
0.2565, -0.008896, 2.18025, -0.0861206, 2.18025, -0.9796143, 2.18025, -0.2962036, 2.18025, 2.8778627, 2.18025, -0.2977099, 2.18025, -5.5343513
0.2572941, -0.0142672, 2.187, -0.0849609, 2.187, -0.9790039, 2.187, -0.3007202, 2.187, 2.5496182, 2.187, -0.1679389, 2.187, -5.2824426
0.2580882, -0.021149, 2.19375, -0.0766602, 2.19375, -0.9786377, 2.19375, -0.2971802, 2.19375, 2.5648854, 2.19375, -0.4045801, 2.19375, -5.2137403
0.2588824, -0.0186313, 2.2005, -0.0797119, 2.2005, -0.9810791, 2.2005, -0.291626, 2.2005, 2.1450381, 2.2005, -0.2366412, 2.2005, -5.1832061
0.2596765, -0.0171206, 2.20725, -0.0762939, 2.20725, -0.9849243, 2.20725, -0.2904053, 2.20725, 2.2671757, 2.20725, -0.129771, 2.20725, -4.8549619
0.2604706, -0.0149386, 2.214, -0.0830688, 2.214, -0.984436, 2.214, -0.2914429, 2.214, 2.038168, 2.214, -0.2900763, 2.214, -4.6641221
0.2612647, -0.0186313, 2.22075, -0.0901489, 2.22075, -0.9912109, 2.22075, -0.2861328, 2.22075, 1.6183206, 2.22075, -0.3816794, 2.22075, -4.5572519
0.2620588, -0.0203098, 2.2275, -0.0853271, 2.2275, -0.9893799, 2.2275, -0.2950439, 2.2275, 2.1908398, 2.2275, -0.6412213, 2.2275, -4.1984735
0.2628529, -0.0172885, 2.23425, -0.0809326, 2.23425, -0.9883423, 2.23425, -0.296936, 2.23425, 2.0610688, 2.23425, -0.7022901, 2.23425, -4.1297708
0.2636471, -0.0198062, 2.241, -0.0788574, 2.241, -0.9899292, 2.241, -0.2977905, 2.241, 2.2519083, 2.241, -0.5572519, 2.241, -4.1297708
0.2644412, -0.0250095, 2.24775, -0.088623, 2.24775, -0.9811401, 2.24775, -0.300354, 2.24775, 2.2061069, 2.24775, -0.1755725, 2.24775, -4.2824426
0.2652353, -0.0209812, 2.2545, -0.0945435, 2.2545, -0.9805908, 2.2545, -0.3087158, 2.2545, 1.8244275, 2.2545, 0.3587786, 2.2545, -4.3740458
0.2660294, -0.0149386, 2.26125, -0.0959473, 2.26125, -0.9772949, 2.26125, -0.3148804, 2.26125, 0.908397, 2.26125, 0.4732825, 2.26125, -4.5114503
0.2668235, -0.012253, 2.268, -0.1011963, 2.268, -0.9837036, 2.268, -0.31427, 2.268, 0.610687, 2.268, 0.9007633, 2.268, -4.4961834
0.2676176, -0.0142672, 2.27475, -0.100647, 2.27475, -0.9851074, 2.27475, -0.3154907, 2.27475, 1.0458015, 2.27475, 1, 2.27475, -4.6412215
0.2684118, -0.0130922, 2.2815, -0.0973511, 2.2815, -0.9867554, 2.2815, -0.3121338, 2.2815, 1.3282443, 2.2815, 1.0839695, 2.2815, -4.9389315
0.2692059, -0.0099031, 2.28825, -0.0974121, 2.28825, -0.9845581, 2.28825, -0.3099976, 2.28825, 1.7633588, 2.28825, 1.3664122, 2.28825, -4.8320613
0.27, -0.0129244, 2.295, -0.0991821, 2.295, -0.9814453, 2.295, -0.3161621, 2.295, 1.8396946, 2.295, 1.7251909, 2.295, -4.8931298
0.2707941, -0.0162814, 2.30175, -0.0936279, 2.30175, -0.9804077, 2.30175, -0.3126221, 2.30175, 2.259542, 2.30175, 1.5801526, 2.30175, -4.6335878
0.2715882, -0.0139315, 2.3085, -0.0924683, 2.3085, -0.9858398, 2.3085, -0.3091431, 2.3085, 2.7633588, 2.3085, 1.8167939, 2.3085, -4.740458
0.2723824, -0.0135958, 2.31525, -0.0934448, 2.31525, -0.9849243, 2.31525, -0.3101196, 2.31525, 2.4961832, 2.31525, 2.2137403, 2.31525, -4.8015265
0.2731765, -0.0135958, 2.322, -0.090271, 2.322, -0.9797363, 2.322, -0.3162231, 2.322, 2.3435113, 2.322, 1.908397, 2.322, -5.0229006
0.2739706, -0.0203098, 2.32875, -0.0893555, 2.32875, -0.980835, 2.32875, -0.3134766, 2.32875, 2.5496182, 2.32875, 1.5877863, 2.32875, -4.8778625
0.2747647, -0.0204776, 2.3355, -0.0888062, 2.3355, -0.9794922, 2.3355, -0.3092651, 2.3355, 3.1450381, 2.3355, 2.1526718, 2.3355, -4.8931298
0.2755588, -0.018967, 2.34225, -0.0834961, 2.34225, -0.9801025, 2.34225, -0.3093262, 2.34225, 3.1603053, 2.34225, 2.1603053, 2.34225, -5.1068702
0.2763529, -0.0159457, 2.349, -0.0879517, 2.349, -0.9766235, 2.349, -0.312561, 2.349, 3.4351146, 2.349, 1.8320611, 2.349, -5.0992365
0.2771471, -0.0125887, 2.35575, -0.0871582, 2.35575, -0.9783936, 2.35575, -0.3130493, 2.35575, 3.7328243, 2.35575, 1.648855, 2.35575, -5.1679387
0.2779412, -0.0176242, 2.3625, -0.0871582, 2.3625, -0.980896, 2.3625, -0.3087769, 2.3625, 3.7709923, 2.3625, 1.610687, 2.3625, -5.3969464
0.2787353, -0.0125887, 2.36925, -0.086853, 2.36925, -0.9814453, 2.36925, -0.3092651, 2.36925, 3.8015268, 2.36925, 1.7328244, 2.36925, -5.4198475
0.2795294, -0.0114137, 2.376, -0.0812988, 2.376, -0.9779663, 2.376, -0.3068237, 2.376, 3.9847329, 2.376, 1.3587786, 2.376, -5.6183205
0.2803235, -0.0078889, 2.38275, -0.0834961, 2.38275, -0.9754028, 2.38275, -0.3032837, 2.38275, 3.8091602, 2.38275, 0.9923664, 2.38275, -5.8167939
0.2811176, -0.0114137, 2.3895, -0.0830688, 2.3895, -0.9758301, 2.3895, -0.2999878, 2.3895, 4.1679387, 2.3895, 1.2519084, 2.3895, -5.7251906
0.2819118, -0.0250095, 2.39625, -0.0806274, 2.39625, -0.9804077, 2.39625, -0.2995605, 2.39625, 4.221374, 2.39625, 1.091603, 2.39625, -5.6488547
0.2827059, -0.0196384, 2.403, -0.0776978, 2.403, -0.9832764, 2.403, -0.3006592, 2.403, 4.3435116, 2.403, 1.4274809, 2.403, -5.5725193
0.2835, -0.0125887, 2.40975, -0.0772095, 2.40975, -0.9814453, 2.40975, -0.3010254, 2.40975, 4.3664122, 2.40975, 1.9465649, 2.40975, -5.3435116
0.2842941, -0.0124208, 2.4165, -0.0813599, 2.4165, -0.9821777, 2.4165, -0.2971191, 2.4165, 4.3587785, 2.4165, 1.740458, 2.4165, -5.5343513
0.2850882, -0.012253, 2.42325, -0.0843506, 2.42325, -0.9835815, 2.42325, -0.2958374, 2.42325, 4.6793895, 2.42325, 1.6412214, 2.42325, -5.6793895
0.2858824, -0.0082246, 2.43, -0.0856934, 2.43, -0.9817505, 2.43, -0.2938232, 2.43, 4.7328243, 2.43, 1.8625954, 2.43, -5.6030536
0.2866765, -0.0102388, 2.43675, -0.0886841, 2.43675, -0.9833374, 2.43675, -0.2892456, 2.43675, 4.8778625, 2.43675, 1.6564885, 2.43675, -5.7938933
0.2874706, -0.0112459, 2.4435, -0.0874634, 2.4435, -0.9769287, 2.4435, -0.2923584, 2.4435, 5.3053436, 2.4435, 1.6870229, 2.4435, -5.8854961
0.2882647, -0.0082246, 2.45025, -0.0884399, 2.45025, -0.9800415, 2.45025, -0.2919922, 2.45025, 4.9236641, 2.45025, 1.1068702, 2.45025, -5.9236641
0.2890588, -0.008896, 2.457, -0.0836182, 2.457, -0.9846802, 2.457, -0.2874146, 2.457, 4.8015265, 2.457, 0.4885496, 2.457, -6.0152674
0.2898529, -0.0112459, 2.46375, -0.0794067, 2.46375, -0.9839478, 2.46375, -0.2891235, 2.46375, 5.0229006, 2.46375, -0.221374, 2.46375, -6.1374044
0.2906471, -0.0182956, 2.4705, -0.0741577, 2.4705, -0.9798584, 2.4705, -0.2946777, 2.4705, 5.0229006, 2.4705, -0.3969466, 2.4705, -5.8778625
0.2914412, -0.0209812, 2.47725, -0.0719604, 2.47725, -0.9767456, 2.47725, -0.2900391, 2.47725, 5.1145039, 2.47725, -0.4198473, 2.47725, -5.8549619
0.2922353, -0.0196384, 2.484, -0.0683594, 2.484, -0.9818115, 2.484, -0.2853394, 2.484, 5.0534353, 2.484, -0.3435115, 2.484, -5.9160304
0.2930294, -0.0176242, 2.49075, -0.0674438, 2.49075, -0.9805908, 2.49075, -0.2866211, 2.49075, 4.6488547, 2.49075, -0.2519084, 2.49075, -5.6259542
0.2938235, -0.0179599, 2.4975, -0.0637817, 2.4975, -0.9806519, 2.4975, -0.2838135, 2.4975, 4.7251906, 2.4975, 0.0458015, 2.4975, -5.6641221
0.2946176, -0.0193027, 2.50425, -0.0662842, 2.50425, -0.9822998, 2.50425, -0.2826538, 2.50425, 4.8625956, 2.50425, 0.2900763, 2.50425, -5.4503818
0.2954118, -0.0182956, 2.511, -0.0661621, 2.511, -0.9789429, 2.511, -0.2778931, 2.511, 4.7480917, 2.511, 0.4885496, 2.511, -5.4427481
0.2962059, -0.0193027, 2.51775, -0.0687256, 2.51775, -0.9782104, 2.51775, -0.2801514, 2.51775, 4.7557254, 2.51775, 0.6641222, 2.51775, -5.3206105
0.297, -0.0176242, 2.5245, -0.0687866, 2.5245, -0.9788818, 2.5245, -0.2767334, 2.5245, 4.6412215, 2.5245, 0.8473282, 2.5245, -5.0763359
0.2977941, -0.0151064, 2.53125, -0.0718384, 2.53125, -0.9767456, 2.53125, -0.2821045, 2.53125, 4.9312978, 2.53125, 1.129771, 2.53125, -5.1068702
0.2985882, -0.0132601, 2.538, -0.078064, 2.538, -0.9797363, 2.538, -0.2786255, 2.538, 4.9770994, 2.538, 1.4045801, 2.538, -4.9083967
0.2993824, -0.0157778, 2.54475, -0.0791016, 2.54475, -0.9770508, 2.54475, -0.2872314, 2.54475, 4.5572519, 2.54475, 1.1221374, 2.54475, -4.7862597
0.3001765, -0.0176242, 2.5515, -0.0743408, 2.5515, -0.9798584, 2.5515, -0.2902222, 2.5515, 4.2671757, 2.5515, 0.4732825, 2.5515, -4.9083967
0.3009706, -0.0139315, 2.55825, -0.0765991, 2.55825, -0.9853516, 2.55825, -0.2851562, 2.55825, 4.3893127, 2.55825, 0.6183206, 2.55825, -5.1221375
0.3017647, -0.0102388, 2.565, -0.0804443, 2.565, -0.9863892, 2.565, -0.2817993, 2.565, 4.2519083, 2.565, 0.3435115, 2.565, -4.8167939
0.3025588, -0.0146029, 2.57175, -0.0720825, 2.57175, -0.9876709, 2.57175, -0.2814331, 2.57175, 4.4198475, 2.57175, 0.0763359, 2.57175, -4.8244276
0.3033529, -0.0162814, 2.5785, -0.0667725, 2.5785, -0.9888916, 2.5785, -0.281311, 2.5785, 4.2290077, 2.5785, 0.2977099, 2.5785, -4.7022901
0.3041471, -0.0166171, 2.58525, -0.0662231, 2.58525, -0.9888306, 2.58525, -0.2802124, 2.58525, 4.2900763, 2.58525, 0.6259542, 2.58525, -4.7175574
0.3049412, -0.0176242, 2.592, -0.0661011, 2.592, -0.9841919, 2.592, -0.2857056, 2.592, 4.4122138, 2.592, 0.9847328, 2.592, -4.5801525
0.3057353, -0.0162814, 2.59875, -0.0733032, 2.59875, -0.9841919, 2.59875, -0.2848511, 2.59875, 3.4580152, 2.59875, 1, 2.59875, -4.3129773
0.3065294, -0.0102388, 2.6055, -0.0785522, 2.6055, -0.984314, 2.6055, -0.2872925, 2.6055, 2.5877862, 2.6055, 0.610687, 2.6055, -4.6106873
0.3073235, -0.0087282, 2.61225, -0.0775757, 2.61225, -0.9910278, 2.61225, -0.2848511, 2.61225, 2.3969467, 2.61225, 0.2824427, 2.61225, -4.5496182
0.3081176, -0.0142672, 2.619, -0.0778198, 2.619, -0.9926758, 2.619, -0.2848511, 2.619, 2.2824428, 2.619, -0.1679389, 2.619, -4.5496182
0.3089118, -0.0213169, 2.62575, -0.0769653, 2.62575, -0.9897461, 2.62575, -0.2876587, 2.62575, 3.1832061, 2.62575, -0.5038168, 2.62575, -4.6335878
0.3097059, -0.0151064, 2.6325, -0.0784912, 2.6325, -0.9884033, 2.6325, -0.2817993, 2.6325, 2.9236641, 2.6325, -0.8396947, 2.6325, -4.3587785
0.3105, -0.01561, 2.63925, -0.0789795, 2.63925, -0.9841309, 2.63925, -0.2838745, 2.63925, 2.6717558, 2.63925, -0.5572519, 2.63925, -4.5267177
0.3112941, -0.0142672, 2.646, -0.0726318, 2.646, -0.9915771, 2.646, -0.2827148, 2.646, 2.5725191, 2.646, -0.4885496, 2.646, -4.2824426
0.3120882, -0.0146029, 2.65275, -0.065979, 2.65275, -0.993103, 2.65275, -0.2793579, 2.65275, 2.5572519, 2.65275, -0.4656489, 2.65275, -4.3129773
0.3128824, -0.0179599, 2.6595, -0.0657349, 2.6595, -0.9891357, 2.6595, -0.2819824, 2.6595, 2.4885497, 2.6595, -0.5801527, 2.6595, -4.4732823
0.3136765, -0.0198062, 2.66625, -0.0648804, 2.66625, -0.9891968, 2.66625, -0.2823486, 2.66625, 2.3282442, 2.66625, -0.6564885, 2.66625, -4.0916033
0.3144706, -0.0146029, 2.673, -0.0596313, 2.673, -0.9854126, 2.673, -0.2854614, 2.673, 2.221374, 2.673, -0.0305344, 2.673, -4.038168
0.3152647, -0.0078889, 2.67975, -0.0632935, 2.67975, -0.9813843, 2.67975, -0.2785645, 2.67975, 2.2137403, 2.67975, 0.351145, 2.67975, -4.0305343
0.3160588, -0.008896, 2.6865, -0.0684814, 2.6865, -0.986084, 2.6865, -0.2762451, 2.6865, 2.0839694, 2.6865, 0.1755725, 2.6865, -3.7862597
0.3168529, -0.0102388, 2.69325, -0.071228, 2.69325, -0.9836426, 2.69325, -0.277832, 2.69325, 2.0687022, 2.69325, 0.1068702, 2.69325, -3.7251909
0.3176471, -0.010071, 2.7, -0.0760498, 2.7, -0.9855957, 2.7, -0.2826538, 2.7, 2.1068702, 2.7, 0.4580153, 2.7, -3.4351146
0.3184412, -0.0115816, 2.70675, -0.0777588, 2.70675, -0.9802856, 2.70675, -0.2797852, 2.70675, 1.7709924, 2.70675, 0.8396947, 2.70675, -3.3587787
0.3192353, -0.0109102, 2.7135, -0.0772095, 2.7135, -0.9778442, 2.7135, -0.2789917, 2.7135, 1.8625954, 2.7135, 0.5114504, 2.7135, -3.4732823
0.3200294, -0.0095674, 2.72025, -0.0768433, 2.72025, -0.9841309, 2.72025, -0.2756348, 2.72025, 1.648855, 2.72025, -0.0458015, 2.72025, -3.4656489
0.3208235, -0.0082246, 2.727, -0.0720825, 2.727, -0.9848022, 2.727, -0.2802734, 2.727, 1.5877863, 2.727, -0.2519084, 2.727, -3.4045801
0.3216176, -0.0058747, 2.73375, -0.0742188, 2.73375, -0.9848633, 2.73375, -0.2802124, 2.73375, 2.0305343, 2.73375, -0.3816794, 2.73375, -3.4351146
0.3224118, -0.0085603, 2.7405, -0.0765991, 2.7405, -0.9822388, 2.7405, -0.2821045, 2.7405, 2.0152671, 2.7405, -0.5648855, 2.7405, -3.3969467
0.3232059, -0.0124208, 2.74725, -0.0794067, 2.74725, -0.987915, 2.74725, -0.2816162, 2.74725, 1.778626, 2.74725, -0.8244275, 2.74725, -3.4580152
0.324, -0.0115816, 2.754, -0.0784302, 2.754, -0.9853516, 2.754, -0.2876587, 2.754, 1.8854961, 2.754, -0.389313, 2.754, -3.351145
0.3247941, -0.012253, 2.76075, -0.0708618, 2.76075, -0.9862671, 2.76075, -0.2851562, 2.76075, 1.9694656, 2.76075, 0.3282443, 2.76075, -3.2137403
0.3255882, -0.0135958, 2.7675, -0.0708008, 2.7675, -0.9882202, 2.7675, -0.2841187, 2.7675, 1.9694656, 2.7675, 0.2519084, 2.7675, -3.3435113
0.3263824, -0.0169528, 2.77425, -0.0741577, 2.77425, -0.9867554, 2.77425, -0.2855225, 2.77425, 2.6030533, 2.77425, -0.0610687, 2.77425, -3.2290077
0.3271765, -0.0186313, 2.781, -0.0787964, 2.781, -0.9854126, 2.781, -0.2824707, 2.781, 2.8015268, 2.781, 0.2977099, 2.781, -3.3358779
0.3279706, -0.017792, 2.78775, -0.0776367, 2.78775, -0.9873657, 2.78775, -0.2817383, 2.78775, 2.7099237, 2.78775, -0.1832061, 2.78775, -3.4122138
0.3287647, -0.0223239, 2.7945, -0.0755005, 2.7945, -0.9823608, 2.7945, -0.2833862, 2.7945, 2.7938931, 2.7945, -0.4274809, 2.7945, -3.6259542
0.3295588, -0.0203098, 2.80125, -0.0736084, 2.80125, -0.9782104, 2.80125, -0.2873535, 2.80125, 2.7480917, 2.80125, -0.6412213, 2.80125, -3.7709923
0.3303529, -0.018967, 2.808, -0.0790405, 2.808, -0.9807739, 2.808, -0.2911987, 2.808, 2.6030533, 2.808, -1.0763359, 2.808, -3.7175572
0.3311471, -0.018967, 2.81475, -0.0834351, 2.81475, -0.9871216, 2.81475, -0.2991943, 2.81475, 2.7633588, 2.81475, -1.0152671, 2.81475, -3.908397
0.3319412, -0.0130922, 2.8215, -0.0808716, 2.8215, -0.9871826, 2.8215, -0.2970581, 2.8215, 2.9160306, 2.8215, -0.8396947, 2.8215, -3.8015268
0.3327353, -0.0075532, 2.82825, -0.078125, 2.82825, -0.9891968, 2.82825, -0.2940674, 2.82825, 3.0229008, 2.82825, -0.8396947, 2.82825, -3.6564887
0.3335294, -0.0105745, 2.835, -0.0738525, 2.835, -0.9855347, 2.835, -0.2878418, 2.835, 2.9541984, 2.835, -1.1526718, 2.835, -3.7022901
0.3343235, -0.0132601, 2.84175, -0.0739136, 2.84175, -0.9901123, 2.84175, -0.2856445, 2.84175, 3.1374047, 2.84175, -0.9847328, 2.84175, -3.778626
0.3351176, -0.0142672, 2.8485, -0.0716553, 2.8485, -0.9915771, 2.8485, -0.288147, 2.8485, 3.221374, 2.8485, -0.7938932, 2.8485, -3.740458
0.3359118, -0.0142672, 2.85525, -0.0723877, 2.85525, -0.9896851, 2.85525, -0.2879639, 2.85525, 3.1603053, 2.85525, -0.8473282, 2.85525, -3.6030533
0.3367059, -0.0109102, 2.862, -0.0754395, 2.862, -0.9854736, 2.862, -0.2897339, 2.862, 2.9312978, 2.862, -0.5648855, 2.862, -3.519084
0.3375, -0.0112459, 2.86875, -0.0716553, 2.86875, -0.9835815, 2.86875, -0.2831421, 2.86875, 2.5496182, 2.86875, -0.610687, 2.86875, -3.3129771
0.3382941, -0.0139315, 2.8755, -0.067627, 2.8755, -0.9846802, 2.8755, -0.282959, 2.8755, 2.6564887, 2.8755, -0.5038168, 2.8755, -3.5419848
0.3390882, -0.012253, 2.88225, -0.0696411, 2.88225, -0.9866943, 2.88225, -0.2755127, 2.88225, 2.7175572, 2.88225, -0.7709923, 2.88225, -3.5038168
0.3398824, -0.0109102, 2.889, -0.0732422, 2.889, -0.9882812, 2.889, -0.2719116, 2.889, 2.7938931, 2.889, -1.091603, 2.889, -3.5114503
0.3406765, -0.0127565, 2.89575, -0.0733643, 2.89575, -0.9874878, 2.89575, -0.2759399, 2.89575, 2.6412213, 2.89575, -1.1755725, 2.89575, -3.6870229
0.3414706, -0.0135958, 2.9025, -0.078186, 2.9025, -0.9804688, 2.9025, -0.2769775, 2.9025, 2.1832061, 2.9025, -1.4656489, 2.9025, -3.4427481
0.3422647, -0.0161135, 2.90925, -0.0775146, 2.90925, -0.9810791, 2.90925, -0.2761841, 2.90925, 2.129771, 2.90925, -1.8320611, 2.90925, -3.6412213
0.3430588, -0.0196384, 2.916, -0.0744019, 2.916, -0.9841309, 2.916, -0.2753296, 2.916, 1.9770992, 2.916, -2.1832061, 2.916, -3.7099237
0.3438529, -0.018967, 2.92275, -0.0765991, 2.92275, -0.9851074, 2.92275, -0.2723389, 2.92275, 2.0229008, 2.92275, -2.2824428, 2.92275, -3.9007633
0.3446471, -0.014435, 2.9295, -0.0753174, 2.9295, -0.9840088, 2.9295, -0.2739258, 2.9295, 1.9847329, 2.9295, -2.7938931, 2.9295, -3.7175572
0.3454412, -0.0125887, 2.93625, -0.0734863, 2.93625, -0.9807739, 2.93625, -0.2783203, 2.93625, 1.7938931, 2.93625, -3.1984732, 2.93625, -3.8473282
0.3462353, -0.0186313, 2.943, -0.0706177, 2.943, -0.9831543, 2.943, -0.2803955, 2.943, 1.6564885, 2.943, -3.5496182, 2.943, -4.0305343
0.3470294, -0.0236667, 2.94975, -0.0748291, 2.94975, -0.984436, 2.94975, -0.2747803, 2.94975, 1.6183206, 2.94975, -3.2366412, 2.94975, -3.9160306
0.3478235, -0.0236667, 2.9565, -0.0688477, 2.9565, -0.9839478, 2.9565, -0.2802734, 2.9565, 1.9236641, 2.9565, -3.1603053, 2.9565, -3.778626
0.3486176, -0.0213169, 2.96325, -0.0647583, 2.96325, -0.9800415, 2.96325, -0.2763672, 2.96325, 1.7862595, 2.96325, -2.908397, 2.96325, -3.8931298
0.3494118, -0.0140993, 2.97, -0.0674438, 2.97, -0.9852295, 2.97, -0.2774048, 2.97, 1.6717557, 2.97, -2.7938931, 2.97, -3.6793892
0.3502059, -0.0092317, 2.97675, -0.0687866, 2.97675, -0.9874268, 2.97675, -0.276001, 2.97675, 1.6030535, 2.97675, -2.6793892, 2.97675, -3.480916
0.351, -0.0095674, 2.9835, -0.0662231, 2.9835, -0.9888306, 2.9835, -0.2731934, 2.9835, 1.6793894, 2.9835, -2.3969467, 2.9835, -3.4198472
0.3517941, -0.0109102, 2.99025, -0.0650635, 2.99025, -0.9904175, 2.99025, -0.2747803, 2.99025, 1.8625954, 2.99025, -1.9160305, 2.99025, -3.3816793
0.3525882, -0.0112459, 2.997, -0.0689697, 2.997, -0.9904785, 2.997, -0.2767334, 2.997, 2.091603, 2.997, -1.0610687, 2.997, -3.2442749
0.3533824, -0.0115816, 3.00375, -0.0723877, 3.00375, -0.9881592, 3.00375, -0.2767334, 3.00375, 2.1374047, 3.00375, -0.8091603, 3.00375, -2.961832
0.3541765, -0.0127565, 3.0105, -0.0769043, 3.0105, -0.9874268, 3.0105, -0.2744751, 3.0105, 2.4503818, 3.0105, -0.3358779, 3.0105, -2.870229
0.3549706, -0.0135958, 3.01725, -0.0820312, 3.01725, -0.9914551, 3.01725, -0.274353, 3.01725, 2.8091602, 3.01725, -0.2671756, 3.01725, -2.7633588
0.3557647, -0.012253, 3.024, -0.0838623, 3.024, -0.9906616, 3.024, -0.2748413, 3.024, 2.870229, 3.024, -0.3664122, 3.024, -2.8015268
0.3565588, -0.0181277, 3.03075, -0.0777588, 3.03075, -0.9869385, 3.03075, -0.2732544, 3.03075, 2.9694657, 3.03075, -0.6717557, 3.03075, -3.0839694
0.3573529, -0.018967, 3.0375, -0.0789185, 3.0375, -0.9846802, 3.0375, -0.2706299, 3.0375, 3.3358779, 3.0375, -0.8015267, 3.0375, -3.0229008
0.3581471, -0.0191348, 3.04425, -0.0730591, 3.04425, -0.9828491, 3.04425, -0.2698364, 3.04425, 3.4961832, 3.04425, -0.8625954, 3.04425, -2.9541984
0.3589412, -0.0142672, 3.051, -0.0783691, 3.051, -0.9821777, 3.051, -0.2763062, 3.051, 3.6412213, 3.051, -1.1450381, 3.051, -3.0763359
0.3597353, -0.0159457, 3.05775, -0.0758057, 3.05775, -0.9840698, 3.05775, -0.2802124, 3.05775, 3.519084, 3.05775, -1.2519084, 3.05775, -3.1068702
0.3605294, -0.0166171, 3.0645, -0.0750122, 3.0645, -0.9837036, 3.0645, -0.2781982, 3.0645, 3.1145039, 3.0645, -1.2900764, 3.0645, -2.9465649
0.3613235, -0.0142672, 3.07125, -0.0713501, 3.07125, -0.9865723, 3.07125, -0.2797852, 3.07125, 2.8778627, 3.07125, -0.9389313, 3.07125, -2.8015268
0.3621176, -0.0095674, 3.078, -0.0699463, 3.078, -0.9882202, 3.078, -0.2797241, 3.078, 2.7633588, 3.078, -0.8778626, 3.078, -2.740458
0.3629118, -0.0176242, 3.08475, -0.069397, 3.08475, -0.9892578, 3.08475, -0.2740479, 3.08475, 2.8396947, 3.08475, -0.5877863, 3.08475, -2.8625953
0.3637059, -0.0182956, 3.0915, -0.0768433, 3.0915, -0.987915, 3.0915, -0.2711182, 3.0915, 2.4274809, 3.0915, -0.7175573, 3.0915, -2.8549619
0.3645, -0.0140993, 3.09825, -0.0817261, 3.09825, -0.9866333, 3.09825, -0.2692871, 3.09825, 2.5496182, 3.09825, -0.5801527, 3.09825, -2.6335878
0.3652941, -0.0109102, 3.105, -0.0735474, 3.105, -0.9849854, 3.105, -0.2724609, 3.105, 2.4580152, 3.105, -0.3664122, 3.105, -2.5648854
0.3660882, -0.0104067, 3.11175, -0.0645752, 3.11175, -0.9887695, 3.11175, -0.2709961, 3.11175, 2.3053436, 3.11175, -0.4580153, 3.11175, -2.4274809
0.3668824, -0.0078889, 3.1185, -0.0653076, 3.1185, -0.9910889, 3.1185, -0.2642212, 3.1185, 2.389313, 3.1185, -0.1984733, 3.1185, -2.4732823
0.3676765, -0.0063783, 3.12525, -0.071106, 3.12525, -0.9880371, 3.12525, -0.2692261, 3.12525, 2.5267177, 3.12525, -0.2366412, 3.12525, -2.4885497
0.3684706, -0.0102388, 3.132, -0.0764771, 3.132, -0.9837036, 3.132, -0.2677002, 3.132, 2.778626, 3.132, -0.2900763, 3.132, -2.1755726
0.3692647, -0.0176242, 3.13875, -0.0751953, 3.13875, -0.9836426, 3.13875, -0.2699585, 3.13875, 2.4656489, 3.13875, -0.1679389, 3.13875, -2.1221373
0.3700588, -0.0162814, 3.1455, -0.0712891, 3.1455, -0.9833374, 3.1455, -0.2666016, 3.1455, 2.1145039, 3.1455, 0.0458015, 3.1455, -1.9923664
0.3708529, -0.008896, 3.15225, -0.0705566, 3.15225, -0.9875488, 3.15225, -0.2596436, 3.15225, 2, 3.15225, 0.3129771, 3.15225, -1.9847329
0.3716471, -0.0105745, 3.159, -0.0698853, 3.159, -0.9918213, 3.159, -0.2647705, 3.159, 1.9847329, 3.159, 0.1984733, 3.159, -1.908397
0.3724412, -0.01561, 3.16575, -0.0690918, 3.16575, -0.9876709, 3.16575, -0.270874, 3.16575, 1.6870229, 3.16575, 0.0305344, 3.16575, -2.129771
0.3732353, -0.0186313, 3.1725, -0.0657349, 3.1725, -0.9884644, 3.1725, -0.2688599, 3.1725, 1.7251909, 3.1725, 0.3587786, 3.1725, -1.9465649
0.3740294, -0.018967, 3.17925, -0.0655518, 3.17925, -0.9896851, 3.17925, -0.269104, 3.17925, 1.6564885, 3.17925, 0.870229, 3.17925, -1.5419847
0.3748235, -0.014435, 3.186, -0.069397, 3.186, -0.9866943, 3.186, -0.2729492, 3.186, 1.4885496, 3.186, 1.5801526, 3.186, -1.5648855
0.3756176, -0.0176242, 3.19275, -0.0776978, 3.19275, -0.9853516, 3.19275, -0.2744141, 3.19275, 1.4656489, 3.19275, 1.4885496, 3.19275, -1.4503816
0.3764118, -0.018967, 3.1995, -0.081665, 3.1995, -0.9841919, 3.1995, -0.2766724, 3.1995, 1.221374, 3.1995, 1.1984733, 3.1995, -1.8473282
0.3772059, -0.0162814, 3.20625, -0.0845337, 3.20625, -0.9865723, 3.20625, -0.2752075, 3.20625, 0.8625954, 3.20625, 0.9160305, 3.20625, -1.8015267
0.378, -0.0196384, 3.213, -0.0863037, 3.213, -0.9841309, 3.213, -0.2741089, 3.213, 1.0152671, 3.213, 0.7862595, 3.213, -2.038168
0.3787941, -0.0198062, 3.21975, -0.0830688, 3.21975, -0.9859009, 3.21975, -0.2804565, 3.21975, 1.259542, 3.21975, 1.1603054, 3.21975, -1.9160305
0.3795882, -0.018967, 3.2265, -0.0859985, 3.2265, -0.9894409, 3.2265, -0.2779541, 3.2265, 1.519084, 3.2265, 1.3816794, 3.2265, -1.9389313
0.3803824, -0.0176242, 3.23325, -0.083374, 3.23325, -0.9910889, 3.23325, -0.2796021, 3.23325, 1.6259542, 3.23325, 1.1450381, 3.23325, -1.7480916
0.3811765, -0.0135958, 3.24, -0.0841064, 3.24, -0.9902954, 3.24, -0.2794189, 3.24, 1.8244275, 3.24, 0.9770992, 3.24, -1.8015267
0.3819706, -0.01561, 3.24675, -0.0897217, 3.24675, -0.9863281, 3.24675, -0.2844238, 3.24675, 1.6641221, 3.24675, 0.610687, 3.24675, -2.038168
0.3827647, -0.0176242, 3.2535, -0.0842285, 3.2535, -0.9863281, 3.2535, -0.2780762, 3.2535, 1.908397, 3.2535, 0.4122137, 3.2535, -2.259542
0.3835588, -0.0102388, 3.26025, -0.0866699, 3.26025, -0.9864502, 3.26025, -0.2815552, 3.26025, 2.1145039, 3.26025, 0.1374046, 3.26025, -2.4045801
0.3843529, -0.0075532, 3.267, -0.0801392, 3.267, -0.9846191, 3.267, -0.2792358, 3.267, 2.1832061, 3.267, 0.129771, 3.267, -2.1984732
0.3851471, -0.0102388, 3.27375, -0.0812378, 3.27375, -0.9835815, 3.27375, -0.2801514, 3.27375, 2.1679389, 3.27375, 0.3206107, 3.27375, -2.4656489
0.3859412, -0.0119173, 3.2805, -0.0803833, 3.2805, -0.9848022, 3.2805, -0.2775269, 3.2805, 1.9236641, 3.2805, 0.1374046, 3.2805, -2.4732823
0.3867353, -0.0124208, 3.28725, -0.083313, 3.28725, -0.9868774, 3.28725, -0.2744751, 3.28725, 2.0305343, 3.28725, 0.4122137, 3.28725, -2.3969467
0.3875294, -0.0162814, 3.294, -0.0880737, 3.294, -0.9866333, 3.294, -0.2767334, 3.294, 2.3129771, 3.294, 0.6335878, 3.294, -2.3282442
0.3883235, -0.0216526, 3.30075, -0.0845337, 3.30075, -0.9855347, 3.30075, -0.2771606, 3.30075, 2.0839694, 3.30075, 0.2824427, 3.30075, -2.6259542
0.3891176, -0.0256809, 3.3075, -0.0824585, 3.3075, -0.9879761, 3.3075, -0.2738647, 3.3075, 2.2977099, 3.3075, 0.1908397, 3.3075, -2.5496182
0.3899118, -0.0219883, 3.31425, -0.085022, 3.31425, -0.9893799, 3.31425, -0.2759399, 3.31425, 2.5267177, 3.31425, 0.4732825, 3.31425, -2.7480917
0.3907059, -0.0184634, 3.321, -0.0819092, 3.321, -0.9918823, 3.321, -0.2763062, 3.321, 2.6870229, 3.321, 0.2900763, 3.321, -2.7251909
0.3915, -0.0102388, 3.32775, -0.078125, 3.32775, -0.9887695, 3.32775, -0.2698364, 3.32775, 2.5572519, 3.32775, 0.221374, 3.32775, -2.7557251
0.3922941, -0.0058747, 3.3345, -0.0820923, 3.3345, -0.9909668, 3.3345, -0.2697754, 3.3345, 2.610687, 3.3345, 0.1679389, 3.3345, -2.6030533
0.3930882, 0.0030213, 3.34125, -0.0819092, 3.34125, -0.9872437, 3.34125, -0.272522, 3.34125, 2.4198472, 3.34125, 0.3969466, 3.34125, -2.8015268
0.3938824, 0.0038605, 3.348, -0.086731, 3.348, -0.991333, 3.348, -0.2720947, 3.348, 2.8473282, 3.348, 0.1755725, 3.348, -2.7633588
0.3946765, 0.0006714, 3.35475, -0.085022, 3.35475, -0.9845581, 3.35475, -0.2773438, 3.35475, 2.6183207, 3.35475, 0.0610687, 3.35475, -2.6030533
0.3954706, -0.0095674, 3.3615, -0.0830688, 3.3615, -0.9886475, 3.3615, -0.2741089, 3.3615, 2.5114503, 3.3615, 0.1068702, 3.3615, -2.740458
0.3962647, -0.0182956, 3.36825, -0.081543, 3.36825, -0.9896851, 3.36825, -0.2722168, 3.36825, 2.0687022, 3.36825, 0.0763359, 3.36825, -2.8091602
0.3970588, -0.018967, 3.375, -0.0858154, 3.375, -0.9904175, 3.375, -0.2686768, 3.375, 2.129771, 3.375, -0.1374046, 3.375, -2.9389312
0.3978529, -0.0169528, 3.38175, -0.0841064, 3.38175, -0.9869995, 3.38175, -0.263855, 3.38175, 2.091603, 3.38175, -0.5572519, 3.38175, -3.0610688
0.3986471, -0.0162814, 3.3885, -0.0774536, 3.3885, -0.9886475, 3.3885, -0.2639771, 3.3885, 2.2900763, 3.3885, -0.9236641, 3.3885, -3.1221373
0.3994412, -0.0115816, 3.39525, -0.0760498, 3.39525, -0.9871826, 3.39525, -0.2666626, 3.39525, 2.3969467, 3.39525, -0.6412213, 3.39525, -2.961832
0.4002353, -0.0082246, 3.402, -0.0761108, 3.402, -0.9858398, 3.402, -0.265625, 3.402, 2.4198472, 3.402, -0.5267175, 3.402, -2.8473282
0.4010294, -0.0105745, 3.40875, -0.0789795, 3.40875, -0.9882812, 3.40875, -0.2675781, 3.40875, 2.2061069, 3.40875, -0.5038168, 3.40875, -2.8931298
0.4018235, -0.0125887, 3.4155, -0.0800171, 3.4155, -0.9887085, 3.4155, -0.2623291, 3.4155, 2.1221373, 3.4155, -0.5038168, 3.4155, -2.9770992
0.4026176, -0.0109102, 3.42225, -0.0821533, 3.42225, -0.9890747, 3.42225, -0.2622681, 3.42225, 2.3969467, 3.42225, -0.2900763, 3.42225, -2.9923663
0.4034118, -0.0068818, 3.429, -0.0790405, 3.429, -0.9831543, 3.429, -0.2625732, 3.429, 2.3053436, 3.429, 0.0305344, 3.429, -2.9465649
0.4042059, -0.0129244, 3.43575, -0.0811157, 3.43575, -0.9823608, 3.43575, -0.2610474, 3.43575, 2.1984732, 3.43575, -0.0992366, 3.43575, -2.9770992
0.405, -0.0193027, 3.4425, -0.0817261, 3.4425, -0.9846191, 3.4425, -0.2615967, 3.4425, 1.9007634, 3.4425, -0.2519084, 3.4425, -2.9541984
0.4057941, -0.0196384, 3.44925, -0.0838623, 3.44925, -0.9864502, 3.44925, -0.2664795, 3.44925, 2, 3.44925, -0.129771, 3.44925, -2.9389312
0.4065882, -0.0172885, 3.456, -0.0820923, 3.456, -0.9871826, 3.456, -0.2664795, 3.456, 2.0534351, 3.456, 0.1832061, 3.456, -2.9847329
0.4073824, -0.01561, 3.46275, -0.0831299, 3.46275, -0.9864502, 3.46275, -0.2661743, 3.46275, 2.0763359, 3.46275, 0.389313, 3.46275, -3.1068702
0.4081765, -0.0149386, 3.4695, -0.0817871, 3.4695, -0.9862671, 3.4695, -0.267334, 3.4695, 1.961832, 3.4695, 0.1984733, 3.4695, -3.1374047
0.4089706, -0.0213169, 3.47625, -0.0812378, 3.47625, -0.9862061, 3.47625, -0.2698975, 3.47625, 2.0076337, 3.47625, 0.4045801, 3.47625, -3.038168
0.4097647, -0.0246738, 3.483, -0.0872803, 3.483, -0.9854736, 3.483, -0.2669678, 3.483, 1.9541985, 3.483, 0.4732825, 3.483, -2.9236641
0.4105588, -0.01561, 3.48975, -0.0860596, 3.48975, -0.9827271, 3.48975, -0.2720337, 3.48975, 1.7633588, 3.48975, 0.0534351, 3.48975, -3.2519083
0.4113529, -0.01561, 3.4965, -0.0806274, 3.4965, -0.9880371, 3.4965, -0.2735596, 3.4965, 1.5419847, 3.4965, 0.0763359, 3.4965, -3.3053436
0.4121471, -0.0191348, 3.50325, -0.0844116, 3.50325, -0.9889526, 3.50325, -0.2705078, 3.50325, 1.4351145, 3.50325, 0.1526718, 3.50325, -3.4503818
0.4129412, -0.0149386, 3.51, -0.0870972, 3.51, -0.9833374, 3.51, -0.2706909, 3.51, 1.8320611, 3.51, 0.6564885, 3.51, -3.3969467
0.4137353, -0.0206455, 3.51675, -0.0876465, 3.51675, -0.9874268, 3.51675, -0.2713623, 3.51675, 1.6793894, 3.51675, 0.6564885, 3.51675, -3.3053436
0.4145294, -0.0209812, 3.5235, -0.086792, 3.5235, -0.9873047, 3.5235, -0.2684326, 3.5235, 1.5343511, 3.5235, 0.4961832, 3.5235, -3.4198472
0.4153235, -0.0172885, 3.53025, -0.0865479, 3.53025, -0.9894409, 3.53025, -0.2637939, 3.53025, 1.6641221, 3.53025, 0.778626, 3.53025, -3.4961832
0.4161176, -0.0139315, 3.537, -0.0861816, 3.537, -0.9885864, 3.537, -0.2643433, 3.537, 1.4961832, 3.537, 0.6412213, 3.537, -3.778626
0.4169118, -0.0082246, 3.54375, -0.085144, 3.54375, -0.987854, 3.54375, -0.2647705, 3.54375, 1.221374, 3.54375, 0.6641222, 3.54375, -3.8625953
0.4177059, -0.0082246, 3.5505, -0.0826416, 3.5505, -0.9859619, 3.5505, -0.2695923, 3.5505, 1.091603, 3.5505, 0.5572519, 3.5505, -3.7938931
0.4185, -0.0119173, 3.55725, -0.0794678, 3.55725, -0.9838257, 3.55725, -0.2636719, 3.55725, 1.1450381, 3.55725, 0.7633588, 3.55725, -3.8396947
0.4192941, -0.0119173, 3.564, -0.0802612, 3.564, -0.9866333, 3.564, -0.263855, 3.564, 0.9389313, 3.564, 0.6030535, 3.564, -3.961832
0.4200882, -0.0129244, 3.57075, -0.079834, 3.57075, -0.9841309, 3.57075, -0.2624512, 3.57075, 0.7175573, 3.57075, 0.6183206, 3.57075, -3.9465649
0.4208824, -0.0146029, 3.5775, -0.0805054, 3.5775, -0.9863281, 3.5775, -0.2609253, 3.5775, 0.7633588, 3.5775, 0.7251908, 3.5775, -3.8244274
0.4216765, -0.0137636, 3.58425, -0.079895, 3.58425, -0.9865723, 3.58425, -0.262085, 3.58425, 0.8396947, 3.58425, 0.8931298, 3.58425, -3.8549619
0.4224706, -0.0129244, 3.591, -0.0792847, 3.591, -0.986145, 3.591, -0.2642212, 3.591, 0.9847328, 3.591, 1.0763359, 3.591, -3.8854961
0.4232647, -0.0166171, 3.59775, -0.0772095, 3.59775, -0.9863281, 3.59775, -0.2667847, 3.59775, 1.091603, 3.59775, 1.2290076, 3.59775, -3.740458
0.4240588, -0.0179599, 3.6045, -0.076355, 3.6045, -0.9880371, 3.6045, -0.2642212, 3.6045, 1.2900764, 3.6045, 1.7099236, 3.6045, -3.8015268
0.4248529, -0.0179599, 3.61125, -0.0772705, 3.61125, -0.9848633, 3.61125, -0.265564, 3.61125, 1.2442749, 3.61125, 1.9770992, 3.61125, -3.7099237
0.4256471, -0.0182956, 3.618, -0.0792236, 3.618, -0.9867554, 3.618, -0.2694702, 3.618, 1, 3.618, 2.1450381, 3.618, -3.7175572
0.4264412, -0.0162814, 3.62475, -0.0797729, 3.62475, -0.9854736, 3.62475, -0.2670898, 3.62475, 0.9541985, 3.62475, 1.8320611, 3.62475, -3.7099237
0.4272353, -0.0142672, 3.6315, -0.0848999, 3.6315, -0.9885864, 3.6315, -0.2626343, 3.6315, 0.908397, 3.6315, 1.8396946, 3.6315, -3.7480917
0.4280294, -0.0115816, 3.63825, -0.0828247, 3.63825, -0.9900513, 3.63825, -0.2663574, 3.63825, 1.3587786, 3.63825, 1.8320611, 3.63825, -3.5725191
0.4288235, -0.012253, 3.645, -0.0894165, 3.645, -0.9855957, 3.645, -0.2681274, 3.645, 1.3740458, 3.645, 1.5572519, 3.645, -3.8244274
0.4296176, -0.014435, 3.65175, -0.0847778, 3.65175, -0.9834595, 3.65175, -0.269104, 3.65175, 1.3206106, 3.65175, 1.1908396, 3.65175, -3.9541984
0.4304118, -0.0112459, 3.6585, -0.0836182, 3.6585, -0.9876709, 3.6585, -0.2672729, 3.6585, 1.1450381, 3.6585, 1.2366412, 3.6585, -3.908397
0.4312059, -0.0099031, 3.66525, -0.0817261, 3.66525, -0.989624, 3.66525, -0.2674561, 3.66525, 1.0152671, 3.66525, 1.1221374, 3.66525, -3.8167939
0.432, -0.0176242, 3.672, -0.083252, 3.672, -0.9898682, 3.672, -0.2694702, 3.672, 1.091603, 3.672, 1.0229008, 3.672, -4.0610685
0.4327941, -0.0258488, 3.67875, -0.0783691, 3.67875, -0.9886475, 3.67875, -0.2667236, 3.67875, 1.1832061, 3.67875, 0.8625954, 3.67875, -4.0534353
0.4335882, -0.0196384, 3.6855, -0.0828857, 3.6855, -0.9868774, 3.6855, -0.267395, 3.6855, 0.961832, 3.6855, 1.0763359, 3.6855, -4.2442746
0.4343824, -0.0135958, 3.69225, -0.0789795, 3.69225, -0.9855347, 3.69225, -0.2727051, 3.69225, 0.9389313, 3.69225, 0.9389313, 3.69225, -3.9847329
0.4351765, -0.0149386, 3.699, -0.078186, 3.699, -0.9841309, 3.699, -0.2683105, 3.699, 0.6335878, 3.699, 1.091603, 3.699, -3.908397
0.4359706, -0.0176242, 3.70575, -0.0775757, 3.70575, -0.984375, 3.70575, -0.270752, 3.70575, 0.7251908, 3.70575, 0.7557252, 3.70575, -4.1297708
0.4367647, -0.0142672, 3.7125, -0.0802002, 3.7125, -0.9866943, 3.7125, -0.2667847, 3.7125, 0.7099237, 3.7125, 0.7709923, 3.7125, -4.0534353
0.4375588, -0.0159457, 3.71925, -0.0792236, 3.71925, -0.9855347, 3.71925, -0.2678223, 3.71925, 0.8244275, 3.71925, 0.5801527, 3.71925, -4.2061067
0.4383529, -0.0176242, 3.726, -0.0769653, 3.726, -0.987915, 3.726, -0.2717896, 3.726, 0.6412213, 3.726, 0.5496183, 3.726, -4.1374044
0.4391471, -0.0157778, 3.73275, -0.0734863, 3.73275, -0.987854, 3.73275, -0.2723389, 3.73275, 0.8244275, 3.73275, 0.4732825, 3.73275, -3.9236641
0.4399412, -0.014435, 3.7395, -0.0789795, 3.7395, -0.9873657, 3.7395, -0.2653809, 3.7395, 1.0839695, 3.7395, 0.5267175, 3.7395, -3.9770992
0.4407353, -0.0159457, 3.74625, -0.0803223, 3.74625, -0.9915161, 3.74625, -0.2657471, 3.74625, 1.0076336, 3.74625, 0.351145, 3.74625, -4.0458016
0.4415294, -0.0162814, 3.753, -0.083252, 3.753, -0.9898682, 3.753, -0.2661133, 3.753, 1.038168, 3.753, 0.4961832, 3.753, -3.9465649
0.4423235, -0.0226596, 3.75975, -0.0759277, 3.75975, -0.9902954, 3.75975, -0.2675171, 3.75975, 1.259542, 3.75975, 0.7633588, 3.75975, -3.9236641
0.4431176, -0.026688, 3.7665, -0.0820923, 3.7665, -0.9882202, 3.7665, -0.2661743, 3.7665, 1.259542, 3.7665, 0.7709923, 3.7665, -3.8625953
0.4439118, -0.0236667, 3.77325, -0.0780029, 3.77325, -0.9854736, 3.77325, -0.2692871, 3.77325, 1.1221374, 3.77325, 0.7328244, 3.77325, -3.6259542
0.4447059, -0.0159457, 3.78, -0.0745239, 3.78, -0.9881592, 3.78, -0.2703857, 3.78, 1.0534351, 3.78, 0.8625954, 3.78, -3.6870229
0.4455, -0.0142672, 3.78675, -0.0739746, 3.78675, -0.987854, 3.78675, -0.2718506, 3.78675, 0.8549618, 3.78675, 0.5801527, 3.78675, -3.740458
0.4462941, -0.0132601, 3.7935, -0.0769653, 3.7935, -0.9890137, 3.7935, -0.2692261, 3.7935, 0.9770992, 3.7935, 0.4503817, 3.7935, -3.7938931
0.4470882, -0.0062104, 3.80025, -0.0755615, 3.80025, -0.9903564, 3.80025, -0.265625, 3.80025, 0.961832, 3.80025, 0.4732825, 3.80025, -3.6946564
0.4478824, -0.0092317, 3.807, -0.0714722, 3.807, -0.9871216, 3.807, -0.2689819, 3.807, 0.9770992, 3.807, 0.259542, 3.807, -3.6641221
0.4486765, -0.0199741, 3.81375, -0.0749512, 3.81375, -0.9847412, 3.81375, -0.2677612, 3.81375, 0.9236641, 3.81375, 0.221374, 3.81375, -3.6183207
0.4494706, -0.0203098, 3.8205, -0.0754395, 3.8205, -0.9828491, 3.8205, -0.2664185, 3.8205, 0.6259542, 3.8205, 0.4503817, 3.8205, -3.5954199
0.4502647, -0.0099031, 3.82725, -0.0704346, 3.82725, -0.9834595, 3.82725, -0.2661743, 3.82725, 0.5648855, 3.82725, 0.2748092, 3.82725, -3.4580152
0.4510588, -0.0005035, 3.834, -0.0767822, 3.834, -0.9876099, 3.834, -0.2632446, 3.834, 0.5648855, 3.834, 0.3358779, 3.834, -3.3282442
0.4518529, -0.0005035, 3.84075, -0.0790405, 3.84075, -0.9906616, 3.84075, -0.2655029, 3.84075, 0.8854962, 3.84075, 0.2977099, 3.84075, -3.3435113
0.4526471, -0.0072175, 3.8475, -0.0770264, 3.8475, -0.982605, 3.8475, -0.270752, 3.8475, 0.740458, 3.8475, 0.1603053, 3.8475, -3.4045801
0.4534412, -0.008896, 3.85425, -0.0772705, 3.85425, -0.9806519, 3.85425, -0.2684937, 3.85425, 0.6793893, 3.85425, 0.1145038, 3.85425, -3.4274809
0.4542353, -0.0102388, 3.861, -0.072937, 3.861, -0.9836426, 3.861, -0.2709961, 3.861, 0.5572519, 3.861, 0.3358779, 3.861, -3.5877862
0.4550294, -0.0115816, 3.86775, -0.081543, 3.86775, -0.9869385, 3.86775, -0.2701416, 3.86775, 0.4198473, 3.86775, 0.221374, 3.86775, -3.5801528
0.4558235, -0.0172885, 3.8745, -0.0808105, 3.8745, -0.9898071, 3.8745, -0.2697754, 3.8745, 0.5496183, 3.8745, 0.2519084, 3.8745, -3.4885497
0.4566176, -0.0162814, 3.88125, -0.0775757, 3.88125, -0.9872437, 3.88125, -0.2721558, 3.88125, 0.3435115, 3.88125, 0.1526718, 3.88125, -3.5801528
0.4574118, -0.0169528, 3.888, -0.0806274, 3.888, -0.9912109, 3.888, -0.2692871, 3.888, 0.610687, 3.888, 0.0381679, 3.888, -3.4351146
0.4582059, -0.0179599, 3.89475, -0.074707, 3.89475, -0.9873657, 3.89475, -0.2772827, 3.89475, 0.4656489, 3.89475, 0.0916031, 3.89475, -3.5496182
0.459, -0.0142672, 3.9015, -0.0787354, 3.9015, -0.992981, 3.9015, -0.2786255, 3.9015, 0.2977099, 3.9015, -0.0687023, 3.9015, -3.4961832
0.4597941, -0.0127565, 3.90825, -0.081543, 3.90825, -0.9920044, 3.90825, -0.2787476, 3.90825, 0.5038168, 3.90825, 0.0839695, 3.90825, -3.389313
0.4605882, -0.0139315, 3.915, -0.079895, 3.915, -0.9900513, 3.915, -0.2797852, 3.915, 0.0458015, 3.915, 0.5801527, 3.915, -3.389313
0.4613824, -0.0159457, 3.92175, -0.0811157, 3.92175, -0.9879761, 3.92175, -0.2791138, 3.92175, 0.0381679, 3.92175, 0.2061069, 3.92175, -3.4045801
0.4621765, -0.0166171, 3.9285, -0.0821533, 3.9285, -0.9875488, 3.9285, -0.2780762, 3.9285, 0.351145, 3.9285, 0.2748092, 3.9285, -3.5267177
0.4629706, -0.0159457, 3.93525, -0.0809326, 3.93525, -0.9884033, 3.93525, -0.2791138, 3.93525, 0.6030535, 3.93525, 0.4274809, 3.93525, -3.6793892
0.4637647, -0.0125887, 3.942, -0.078186, 3.942, -0.9882812, 3.942, -0.2785645, 3.942, 0.7251908, 3.942, 0.4427481, 3.942, -3.4122138
0.4645588, -0.0125887, 3.94875, -0.0769653, 3.94875, -0.9868774, 3.94875, -0.2780151, 3.94875, 1.2061069, 3.94875, 0.4656489, 3.94875, -3.7099237
0.4653529, -0.0117494, 3.9555, -0.0727539, 3.9555, -0.9837036, 3.9555, -0.2719116, 3.9555, 0.9236641, 3.9555, 0.6030535, 3.9555, -3.7022901
0.4661471, -0.0142672, 3.96225, -0.0722046, 3.96225, -0.9863892, 3.96225, -0.2724609, 3.96225, 1.1908396, 3.96225, 0.8473282, 3.96225, -3.5572519
0.4669412, -0.012253, 3.969, -0.069397, 3.969, -0.9901733, 3.969, -0.2715454, 3.969, 1.129771, 3.969, 0.8854962, 3.969, -3.5954199
0.4677353, -0.0112459, 3.97575, -0.0730591, 3.97575, -0.9854736, 3.97575, -0.2670288, 3.97575, 1.1145039, 3.97575, 0.870229, 3.97575, -3.6030533
0.4685294, -0.0075532, 3.9825, -0.074585, 3.9825, -0.9866943, 3.9825, -0.267395, 3.9825, 1.1755725, 3.9825, 1, 3.9825, -3.5343511
0.4693235, -0.0062104, 3.98925, -0.0761108, 3.98925, -0.9829712, 3.98925, -0.2679443, 3.98925, 1.2748091, 3.98925, 1.0076336, 3.98925, -3.4427481
0.4701176, -0.0068818, 3.996, -0.0757446, 3.996, -0.984436, 3.996, -0.2717896, 3.996, 1.0458015, 3.996, 0.961832, 3.996, -3.4122138
0.4709118, -0.0112459, 4.00275, -0.0779419, 4.00275, -0.986084, 4.00275, -0.2703857, 4.00275, 1.038168, 4.00275, 0.6793893, 4.00275, -3.5877862
0.4717059, -0.0129244, 4.0095, -0.0803833, 4.0095, -0.9885254, 4.0095, -0.2654419, 4.0095, 1.3358779, 4.0095, 0.7709923, 4.0095, -3.3969467
0.4725, -0.0135958, 4.01625, -0.0803223, 4.01625, -0.9876099, 4.01625, -0.2689819, 4.01625, 1.0076336, 4.01625, 0.3129771, 4.01625, -3.480916
0.4732941, -0.0149386, 4.023, -0.0830688, 4.023, -0.9873657, 4.023, -0.2699585, 4.023, 1.0229008, 4.023, 0.1221374, 4.023, -3.6030533
0.4740882, -0.0146029, 4.02975, -0.0780029, 4.02975, -0.9880981, 4.02975, -0.270752, 4.02975, 1.1679389, 4.02975, -0.0305344, 4.02975, -3.6946564
0.4748824, -0.0115816, 4.0365, -0.0720215, 4.0365, -0.9869995, 4.0365, -0.274231, 4.0365, 1.4885496, 4.0365, 0.2824427, 4.0365, -3.648855
0.4756765, -0.0115816, 4.04325, -0.0724487, 4.04325, -0.9845581, 4.04325, -0.2757568, 4.04325, 1.389313, 4.04325, 0.4656489, 4.04325, -3.4580152
0.4764706, -0.01561, 4.05, -0.0735474, 4.05, -0.9882812, 4.05, -0.2735596, 4.05, 1.7938931, 4.05, 0.7709923, 4.05, -3.3282442
0.4772647, -0.0169528, 4.05675, -0.0758057, 4.05675, -0.9866333, 4.05675, -0.2740479, 4.05675, 1.7175573, 4.05675, 0.9923664, 4.05675, -3.4885497
0.4780588, -0.0159457, 4.0635, -0.0748901, 4.0635, -0.9851685, 4.0635, -0.2737427, 4.0635, 1.7099236, 4.0635, 1.4122137, 4.0635, -3.2824428
0.4788529, -0.0166171, 4.07025, -0.0742798, 4.07025, -0.9898682, 4.07025, -0.2722168, 4.07025, 1.5801526, 4.07025, 1.1450381, 4.07025, -3.3740458
0.4796471, -0.0219883, 4.077, -0.0727539, 4.077, -0.9907227, 4.077, -0.2717896, 4.077, 1.4045801, 4.077, 0.9847328, 4.077, -3.389313
0.4804412, -0.0159457, 4.08375, -0.0734863, 4.08375, -0.9898071, 4.08375, -0.2734985, 4.08375, 1.4122137, 4.08375, 1.259542, 4.08375, -3.0992367
0.4812353, -0.0109102, 4.0905, -0.0740967, 4.0905, -0.9880371, 4.0905, -0.2698975, 4.0905, 1.778626, 4.0905, 1.4351145, 4.0905, -2.961832
0.4820294, -0.0135958, 4.09725, -0.0739746, 4.09725, -0.9885864, 4.09725, -0.2682495, 4.09725, 1.7099236, 4.09725, 1.3282443, 4.09725, -2.9770992
0.4828235, -0.0119173, 4.104, -0.0767212, 4.104, -0.9900513, 4.104, -0.2683105, 4.104, 1.6717557, 4.104, 1.4503816, 4.104, -2.8625953
0.4836176, -0.0109102, 4.11075, -0.0771484, 4.11075, -0.9884644, 4.11075, -0.2678833, 4.11075, 1.3053435, 4.11075, 1.5419847, 4.11075, -3.0687022
0.4844118, -0.0102388, 4.1175, -0.0806885, 4.1175, -0.993042, 4.1175, -0.2667236, 4.1175, 1.3129771, 4.1175, 2.0839694, 4.1175, -3.0152671
0.4852059, -0.0097353, 4.12425, -0.0776978, 4.12425, -0.9835205, 4.12425, -0.2716064, 4.12425, 0.8625954, 4.12425, 1.9007634, 4.12425, -3.0763359
0.486, -0.0102388, 4.131, -0.0777588, 4.131, -0.9847412, 4.131, -0.2778931, 4.131, 0.8091603, 4.131, 1.4427481, 4.131, -3.1145039
0.4867941, -0.0139315, 4.13775, -0.0788574, 4.13775, -0.9866333, 4.13775, -0.2744751, 4.13775, 1.1068702, 4.13775, 1.6030535, 4.13775, -3.0992367
0.4875882, -0.012253, 4.1445, -0.0751953, 4.1445, -0.9874268, 4.1445, -0.2734375, 4.1445, 1, 4.1445, 1.5648855, 4.1445, -3.259542
0.4883824, -0.0159457, 4.15125, -0.0726929, 4.15125, -0.9887085, 4.15125, -0.2667847, 4.15125, 1.0610687, 4.15125, 1.740458, 4.15125, -3.3206108
0.4891765, -0.0226596, 4.158, -0.0782471, 4.158, -0.9896851, 4.158, -0.2684937, 4.158, 1.038168, 4.158, 1.351145, 4.158, -3.1603053
0.4899706, -0.018967, 4.16475, -0.0758667, 4.16475, -0.9894409, 4.16475, -0.2719116, 4.16475, 1.0687023, 4.16475, 1.0458015, 4.16475, -3.2900763
0.4907647, -0.0203098, 4.1715, -0.079895, 4.1715, -0.9852295, 4.1715, -0.2710571, 4.1715, 1.0839695, 4.1715, 1.1832061, 4.1715, -3.2519083
0.4915588, -0.023331, 4.17825, -0.0789185, 4.17825, -0.9876099, 4.17825, -0.2680664, 4.17825, 0.9312977, 4.17825, 1.038168, 4.17825, -3.351145
0.4923529, -0.017792, 4.185, -0.0789185, 4.185, -0.9864502, 4.185, -0.2665405, 4.185, 1.0229008, 4.185, 0.9923664, 4.185, -3.2824428
0.4931471, -0.0159457, 4.19175, -0.0739746, 4.19175, -0.9887695, 4.19175, -0.2702026, 4.19175, 1.0076336, 4.19175, 0.9541985, 4.19175, -3.2137403
0.4939412, -0.0149386, 4.1985, -0.0722046, 4.1985, -0.9890137, 4.1985, -0.2679443, 4.1985, 1.1603054, 4.1985, 1.1679389, 4.1985, -3.129771
0.4947353, -0.0151064, 4.20525, -0.0716553, 4.20525, -0.9855347, 4.20525, -0.2689209, 4.20525, 1.2977099, 4.20525, 1.0076336, 4.20525, -3.0076337
0.4955294, -0.0169528, 4.212, -0.0738525, 4.212, -0.9834595, 4.212, -0.2685547, 4.212, 1.389313, 4.212, 1.1068702, 4.212, -3.2061069
0.4963235, -0.0115816, 4.21875, -0.0762939, 4.21875, -0.9832764, 4.21875, -0.269165, 4.21875, 1.4045801, 4.21875, 1.2290076, 4.21875, -3.1450381
0.4971176, -0.0092317, 4.2255, -0.0758667, 4.2255, -0.984436, 4.2255, -0.2698364, 4.2255, 1.5114504, 4.2255, 1.2748091, 4.2255, -2.9770992
0.4979118, -0.0142672, 4.23225, -0.0744019, 4.23225, -0.9844971, 4.23225, -0.2730713, 4.23225, 1.6564885, 4.23225, 1.2900764, 4.23225, -2.9389312
0.4987059, -0.0184634, 4.239, -0.072937, 4.239, -0.9873047, 4.239, -0.2702637, 4.239, 1.740458, 4.239, 1.221374, 4.239, -3.0305343
0.4995, -0.0159457, 4.24575, -0.0740356, 4.24575, -0.9849243, 4.24575, -0.2716675, 4.24575, 1.7099236, 4.24575, 1.1603054, 4.24575, -3.1145039
0.5002941, -0.0125887, 4.2525, -0.0795288, 4.2525, -0.9848022, 4.2525, -0.2749023, 4.2525, 1.8931298, 4.2525, 1.2366412, 4.2525, -3.1145039
0.5010882, -0.0109102, 4.25925, -0.0784302, 4.25925, -0.9881592, 4.25925, -0.2720947, 4.25925, 1.8320611, 4.25925, 1.2748091, 4.25925, -2.9389312
0.5018824, -0.0104067, 4.266, -0.0824585, 4.266, -0.9899292, 4.266, -0.2761841, 4.266, 1.778626, 4.266, 1.1374046, 4.266, -3.0992367
0.5026765, -0.0130922, 4.27275, -0.0810547, 4.27275, -0.9899902, 4.27275, -0.2740479, 4.27275, 1.8854961, 4.27275, 1.389313, 4.27275, -3.0992367
0.5034706, -0.0169528, 4.2795, -0.0801392, 4.2795, -0.9882202, 4.2795, -0.2727661, 4.2795, 1.6335878, 4.2795, 1.2519084, 4.2795, -3.0839694
0.5042647, -0.0223239, 4.28625, -0.0787354, 4.28625, -0.9870605, 4.28625, -0.2722168, 4.28625, 1.6793894, 4.28625, 1.1221374, 4.28625, -3.038168
0.5050588, -0.0238346, 4.293, -0.0767212, 4.293, -0.9898071, 4.293, -0.2740479, 4.293, 1.6564885, 4.293, 0.908397, 4.293, -3.1068702
0.5058529, -0.0209812, 4.29975, -0.0770874, 4.29975, -0.9874878, 4.29975, -0.2755127, 4.29975, 1.2748091, 4.29975, 0.7099237, 4.29975, -3.2824428
0.5066471, -0.0157778, 4.3065, -0.0773315, 4.3065, -0.9855957, 4.3065, -0.2732544, 4.3065, 1.1679389, 4.3065, 0.5267175, 4.3065, -3.1145039
0.5074412, -0.0132601, 4.31325, -0.0756226, 4.31325, -0.9862671, 4.31325, -0.2717896, 4.31325, 0.8931298, 4.31325, 0.4961832, 4.31325, -3.2824428
0.5082353, -0.0157778, 4.32, -0.0712891, 4.32, -0.9883423, 4.32, -0.2703247, 4.32, 1.0839695, 4.32, 0.4427481, 4.32, -3.0839694
0.5090294, -0.0182956, 4.32675, -0.069519, 4.32675, -0.9873047, 4.32675, -0.2659912, 4.32675, 1.0763359, 4.32675, 0.480916, 4.32675, -3.038168
0.5098235, -0.0162814, 4.3335, -0.0681763, 4.3335, -0.9898071, 4.3335, -0.2636719, 4.3335, 1.0763359, 4.3335, 0.3282443, 4.3335, -2.8778627
0.5106176, -0.0137636, 4.34025, -0.0742798, 4.34025, -0.9841309, 4.34025, -0.2651367, 4.34025, 0.9847328, 4.34025, 0.5419847, 4.34025, -2.8549619
0.5114118, -0.0176242, 4.347, -0.0744629, 4.347, -0.9870605, 4.347, -0.2646484, 4.347, 0.8320611, 4.347, 0.5954198, 4.347, -2.7862597
0.5122059, -0.018967, 4.35375, -0.074707, 4.35375, -0.9883423, 4.35375, -0.2668457, 4.35375, 1.0076336, 4.35375, 0.5954198, 4.35375, -2.7938931
0.513, -0.0179599, 4.3605, -0.0755005, 4.3605, -0.9864502, 4.3605, -0.2672729, 4.3605, 0.9541985, 4.3605, 0.8244275, 4.3605, -2.6946564
0.5137941, -0.0164492, 4.36725, -0.0794067, 4.36725, -0.9846802, 4.36725, -0.2642212, 4.36725, 0.870229, 4.36725, 0.519084, 4.36725, -2.5801528
0.5145882, -0.0149386, 4.374, -0.0809326, 4.374, -0.9868774, 4.374, -0.2650757, 4.374, 0.8778626, 4.374, 0.4351145, 4.374, -2.8091602
0.5153824, -0.0152743, 4.38075, -0.0803833, 4.38075, -0.9853516, 4.38075, -0.269104, 4.38075, 0.9694657, 4.38075, 0.1526718, 4.38075, -2.7251909
0.5161765, -0.0102388, 4.3875, -0.0767212, 4.3875, -0.9863281, 4.3875, -0.2733765, 4.3875, 0.9923664, 4.3875, 0.1526718, 4.3875, -2.7557251
0.5169706, -0.0072175, 4.39425, -0.0778809, 4.39425, -0.9901733, 4.39425, -0.270813, 4.39425, 1.0687023, 4.39425, 0.2366412, 4.39425, -2.778626
0.5177647, -0.0077211, 4.401, -0.0802002, 4.401, -0.9873047, 4.401, -0.2705688, 4.401, 0.8854962, 4.401, 0.1679389, 4.401, -2.8244274
0.5185588, -0.0082246, 4.40775, -0.0801392, 4.40775, -0.9866333, 4.40775, -0.2712402, 4.40775, 1.0534351, 4.40775, 0.1145038, 4.40775, -2.6717558
0.5193529, -0.0073854, 4.4145, -0.0803833, 4.4145, -0.9862671, 4.4145, -0.2720337, 4.4145, 1.1068702, 4.4145, 0.0381679, 4.4145, -2.7938931
0.5201471, -0.0072175, 4.42125, -0.0829468, 4.42125, -0.9860229, 4.42125, -0.2709351, 4.42125, 1.0763359, 4.42125, 0.0687023, 4.42125, -2.8396947
0.5209412, -0.008896, 4.428, -0.0800781, 4.428, -0.9866943, 4.428, -0.2703247, 4.428, 1.2366412, 4.428, 0.3206107, 4.428, -2.8167939
0.5217353, -0.0130922, 4.43475, -0.0747681, 4.43475, -0.9890747, 4.43475, -0.2727051, 4.43475, 0.9770992, 4.43475, 0.4045801, 4.43475, -2.8091602
0.5225294, -0.0120851, 4.4415, -0.0772705, 4.4415, -0.9885254, 4.4415, -0.2713623, 4.4415, 1.038168, 4.4415, 0.2977099, 4.4415, -2.9312978
0.5233235, -0.0112459, 4.44825, -0.0808105, 4.44825, -0.9868774, 4.44825, -0.2741699, 4.44825, 1.1450381, 4.44825, 0.3129771, 4.44825, -2.9312978
0.5241176, -0.0151064, 4.455, -0.0819092, 4.455, -0.9856567, 4.455, -0.2719116, 4.455, 1.0992366, 4.455, 0.1908397, 4.455, -2.8549619
0.5249118, -0.0186313, 4.46175, -0.079834, 4.46175, -0.9851685, 4.46175, -0.2700195, 4.46175, 1.4045801, 4.46175, 0.259542, 4.46175, -2.8473282
0.5257059, -0.0172885, 4.4685, -0.0777588, 4.4685, -0.9894409, 4.4685, -0.269165, 4.4685, 1.2748091, 4.4685, 0.4198473, 4.4685, -2.8167939
0.5265, -0.01561, 4.47525, -0.076355, 4.47525, -0.9880981, 4.47525, -0.2719727, 4.47525, 1.4122137, 4.47525, 0.5419847, 4.47525, -2.7862597
0.5272941, -0.0186313, 4.482, -0.079895, 4.482, -0.987915, 4.482, -0.2667236, 4.482, 1.6793894, 4.482, 0.4122137, 4.482, -3.038168
0.5280882, -0.0224918, 4.48875, -0.0788574, 4.48875, -0.9907837, 4.48875, -0.2702637, 4.48875, 1.5801526, 4.48875, 0.389313, 4.48875, -3.0610688
0.5288824, -0.018967, 4.4955, -0.0819702, 4.4955, -0.9886475, 4.4955, -0.2727661, 4.4955, 1.5267175, 4.4955, 0.2137405, 4.4955, -3.038168
0.5296765, -0.0182956, 4.50225, -0.0784912, 4.50225, -0.984436, 4.50225, -0.2719116, 4.50225, 1.2366412, 4.50225, 0.4961832, 4.50225, -2.908397
0.5304706, -0.0135958, 4.509, -0.0768433, 4.509, -0.9885864, 4.509, -0.2669678, 4.509, 1.2366412, 4.509, 0.7175573, 4.509, -3.0458016
0.5312647, -0.0140993, 4.51575, -0.0811157, 4.51575, -0.9918823, 4.51575, -0.2719727, 4.51575, 1.4122137, 4.51575, 0.5572519, 4.51575, -3.1145039
0.5320588, -0.0162814, 4.5225, -0.0827637, 4.5225, -0.9855347, 4.5225, -0.2722168, 4.5225, 1.1908396, 4.5225, 0.5877863, 4.5225, -3.1145039
0.5328529, -0.0193027, 4.52925, -0.0802612, 4.52925, -0.9866943, 4.52925, -0.2719116, 4.52925, 1.038168, 4.52925, 0.6030535, 4.52925, -3.1145039
0.5336471, -0.0169528, 4.536, -0.0786743, 4.536, -0.9881592, 4.536, -0.2693481, 4.536, 1.1832061, 4.536, 0.5801527, 4.536, -3.2748091
0.5344412, -0.012253, 4.54275, -0.076416, 4.54275, -0.9873047, 4.54275, -0.2711182, 4.54275, 1.1221374, 4.54275, 0.5725191, 4.54275, -3.0763359
0.5352353, -0.0095674, 4.5495, -0.0748291, 4.5495, -0.9854736, 4.5495, -0.2727051, 4.5495, 0.9923664, 4.5495, 0.3816794, 4.5495, -3.0839694
0.5360294, -0.0104067, 4.55625, -0.0757446, 4.55625, -0.9872437, 4.55625, -0.270752, 4.55625, 0.8931298, 4.55625, 0.5572519, 4.55625, -3.1984732
0.5368235, -0.0102388, 4.563, -0.0784302, 4.563, -0.987915, 4.563, -0.2709351, 4.563, 0.908397, 4.563, 0.5801527, 4.563, -3.1068702
0.5376176, -0.0097353, 4.56975, -0.0784302, 4.56975, -0.9889526, 4.56975, -0.2728882, 4.56975, 1.1755725, 4.56975, 0.6030535, 4.56975, -3.2366412
0.5384118, -0.0112459, 4.5765, -0.0780029, 4.5765, -0.9867554, 4.5765, -0.2695312, 4.5765, 0.9770992, 4.5765, 0.8167939, 4.5765, -3.0305343
0.5392059, -0.012253, 4.58325, -0.0768433, 4.58325, -0.9884033, 4.58325, -0.2688599, 4.58325, 1.0152671, 4.58325, 0.3816794, 4.58325, -3.1603053
0.54, -0.0135958, 4.59, -0.079895, 4.59, -0.9880371, 4.59, -0.2665405, 4.59, 1.1526718, 4.59, 0.6870229, 4.59, -2.9236641
0.5407941, -0.0162814, 4.59675, -0.0744629, 4.59675, -0.9884644, 4.59675, -0.265564, 4.59675, 0.9541985, 4.59675, 0.8778626, 4.59675, -2.9465649
0.5415882, -0.0169528, 4.6035, -0.0764771, 4.6035, -0.9846802, 4.6035, -0.2636108, 4.6035, 0.9770992, 4.6035, 0.8091603, 4.6035, -3.0839694
0.5423824, -0.0167849, 4.61025, -0.0806885, 4.61025, -0.9852295, 4.61025, -0.2663574, 4.61025, 1.1221374, 4.61025, 0.7709923, 4.61025, -3.0534351
0.5431765, -0.0152743, 4.617, -0.0772095, 4.617, -0.9853516, 4.617, -0.2687988, 4.617, 1.0152671, 4.617, 0.6870229, 4.617, -2.7862597
0.5439706, -0.0152743, 4.62375, -0.074585, 4.62375, -0.9872437, 4.62375, -0.2706909, 4.62375, 0.6564885, 4.62375, 0.9770992, 4.62375, -2.7862597
0.5447647, -0.01561, 4.6305, -0.0703125, 4.6305, -0.9873047, 4.6305, -0.2693481, 4.6305, 0.961832, 4.6305, 0.8854962, 4.6305, -2.8244274
0.5455588, -0.014435, 4.63725, -0.0774536, 4.63725, -0.9853516, 4.63725, -0.270752, 4.63725, 0.8396947, 4.63725, 0.9770992, 4.63725, -2.9312978
0.5463529, -0.0142672, 4.644, -0.0787964, 4.644, -0.9851685, 4.644, -0.2739868, 4.644, 0.8396947, 4.644, 1.1755725, 4.644, -2.648855
0.5471471, -0.0196384, 4.65075, -0.0777588, 4.65075, -0.9884033, 4.65075, -0.2723999, 4.65075, 0.6335878, 4.65075, 1.1221374, 4.65075, -2.7022901
0.5479412, -0.0179599, 4.6575, -0.0836792, 4.6575, -0.9900513, 4.6575, -0.2667236, 4.6575, 0.8854962, 4.6575, 1.519084, 4.6575, -2.7175572
0.5487353, -0.012253, 4.66425, -0.0830688, 4.66425, -0.9875488, 4.66425, -0.2703857, 4.66425, 0.7557252, 4.66425, 1.3969465, 4.66425, -2.6564887
0.5495294, -0.0075532, 4.671, -0.0822754, 4.671, -0.9917603, 4.671, -0.2692261, 4.671, 0.5572519, 4.671, 1.3129771, 4.671, -2.6717558
0.5503235, -0.0058747, 4.67775, -0.078125, 4.67775, -0.9899292, 4.67775, -0.2706299, 4.67775, 0.6335878, 4.67775, 1.1603054, 4.67775, -2.9007633
0.5511176, -0.0041962, 4.6845, -0.078186, 4.6845, -0.9910889, 4.6845, -0.2697754, 4.6845, 0.610687, 4.6845, 1.0229008, 4.6845, -2.8931298
0.5519118, -0.0082246, 4.69125, -0.0817871, 4.69125, -0.987793, 4.69125, -0.2683716, 4.69125, 0.5496183, 4.69125, 1.0152671, 4.69125, -2.7328243
0.5527059, -0.0132601, 4.698, -0.0808105, 4.698, -0.9876099, 4.698, -0.2694702, 4.698, 0.6870229, 4.698, 0.7022901, 4.698, -2.8015268
0.5535, -0.0154421, 4.70475, -0.0773926, 4.70475, -0.9876099, 4.70475, -0.2773438, 4.70475, 0.5038168, 4.70475, 0.5114504, 4.70475, -2.8015268
0.5542941, -0.0176242, 4.7115, -0.0753784, 4.7115, -0.9863892, 4.7115, -0.276001, 4.7115, 0.5114504, 4.7115, 0.8625954, 4.7115, -2.870229
0.5550882, -0.0176242, 4.71825, -0.0774536, 4.71825, -0.9805298, 4.71825, -0.272583, 4.71825, 0.7099237, 4.71825, 0.8931298, 4.71825, -2.8396947
0.5558824, -0.0169528, 4.725, -0.079834, 4.725, -0.9900513, 4.725, -0.269165, 4.725, 0.778626, 4.725, 1.0534351, 4.725, -2.7175572
0.5566765, -0.0193027, 4.73175, -0.0825806, 4.73175, -0.9846191, 4.73175, -0.2752075, 4.73175, 0.778626, 4.73175, 0.8854962, 4.73175, -2.8091602
0.5574706, -0.0250095, 4.7385, -0.0831299, 4.7385, -0.9837646, 4.7385, -0.2789307, 4.7385, 0.6564885, 4.7385, 0.5496183, 4.7385, -2.9923663
0.5582647, -0.0224918, 4.74525, -0.0805664, 4.74525, -0.9865112, 4.74525, -0.2747192, 4.74525, 0.8091603, 4.74525, 0.7557252, 4.74525, -2.8396947
0.5590588, -0.0166171, 4.752, -0.0806274, 4.752, -0.9862671, 4.752, -0.2747803, 4.752, 1.0305344, 4.752, 0.610687, 4.752, -3.0076337
0.5598529, -0.0169528, 4.75875, -0.0855713, 4.75875, -0.9891968, 4.75875, -0.2713623, 4.75875, 0.8778626, 4.75875, 0.4198473, 4.75875, -3.038168
0.5606471, -0.018967, 4.7655, -0.0827637, 4.7655, -0.9882812, 4.7655, -0.2717896, 4.7655, 0.9312977, 4.7655, 0.0534351, 4.7655, -3.1450381
0.5614412, -0.0213169, 4.77225, -0.0825806, 4.77225, -0.9873657, 4.77225, -0.2702637, 4.77225, 1.1755725, 4.77225, 0.3206107, 4.77225, -3.0229008
0.5622353, -0.0223239, 4.779, -0.0817871, 4.779, -0.9899902, 4.779, -0.2693481, 4.779, 1.1450381, 4.779, 0.6183206, 4.779, -3.1068702
0.5630294, -0.012253, 4.78575, -0.0819092, 4.78575, -0.9880981, 4.78575, -0.2717896, 4.78575, 1.1908396, 4.78575, 0.870229, 4.78575, -3.2061069
0.5638235, -0.012253, 4.7925, -0.083374, 4.7925, -0.9890747, 4.7925, -0.2729492, 4.7925, 1.1068702, 4.7925, 0.961832, 4.7925, -3.1068702
0.5646176, -0.0124208, 4.79925, -0.0817871, 4.79925, -0.9909058, 4.79925, -0.269043, 4.79925, 1.1068702, 4.79925, 0.9694657, 4.79925, -3.038168
0.5654118, -0.0104067, 4.806, -0.0809326, 4.806, -0.9898071, 4.806, -0.2704468, 4.806, 1.1908396, 4.806, 0.8778626, 4.806, -3.0610688
0.5662059, -0.0109102, 4.81275, -0.0809326, 4.81275, -0.9906006, 4.81275, -0.2720947, 4.81275, 1.0763359, 4.81275, 0.7022901, 4.81275, -3.0534351
0.567, -0.0092317, 4.8195, -0.0747681, 4.8195, -0.9880371, 4.8195, -0.2728882, 4.8195, 1.0458015, 4.8195, 0.7175573, 4.8195, -3.0610688
0.5677941, -0.0109102, 4.82625, -0.0762939, 4.82625, -0.991394, 4.82625, -0.2723999, 4.82625, 1.0763359, 4.82625, 0.7862595, 4.82625, -2.8625953
0.5685882, -0.0166171, 4.833, -0.078125, 4.833, -0.9901733, 4.833, -0.2739258, 4.833, 1.2290076, 4.833, 1.1068702, 4.833, -2.8549619
0.5693824, -0.0115816, 4.83975, -0.0780029, 4.83975, -0.9868774, 4.83975, -0.2748413, 4.83975, 1.0305344, 4.83975, 0.8778626, 4.83975, -2.9465649
0.5701765, -0.008896, 4.8465, -0.0762329, 4.8465, -0.9855347, 4.8465, -0.2753906, 4.8465, 0.7099237, 4.8465, 0.6335878, 4.8465, -2.9160306
0.5709706, -0.0070497, 4.85325, -0.0780029, 4.85325, -0.9840088, 4.85325, -0.2749634, 4.85325, 0.8396947, 4.85325, 0.9847328, 4.85325, -2.8854961
0.5717647, -0.0102388, 4.86, -0.0810547, 4.86, -0.9888306, 4.86, -0.277832, 4.86, 0.7633588, 4.86, 1.1526718, 4.86, -2.9465649
0.5725588, -0.0172885, 4.86675, -0.086792, 4.86675, -0.9840088, 4.86675, -0.2731323, 4.86675, 0.7862595, 4.86675, 0.9465649, 4.86675, -2.9389312
0.5733529, -0.0231632, 4.8735, -0.0880737, 4.8735, -0.9810791, 4.8735, -0.2751465, 4.8735, 0.648855, 4.8735, 0.8167939, 4.8735, -2.870229
0.5741471, -0.0243381, 4.88025, -0.0803833, 4.88025, -0.9873657, 4.88025, -0.2722778, 4.88025, 0.519084, 4.88025, 0.7328244, 4.88025, -3.0458016
0.5749412, -0.0240024, 4.887, -0.0817261, 4.887, -0.9868164, 4.887, -0.2694092, 4.887, 0.6412213, 4.887, 0.8625954, 4.887, -3.0763359
0.5757353, -0.0236667, 4.89375, -0.083252, 4.89375, -0.9857178, 4.89375, -0.2748413, 4.89375, 0.6412213, 4.89375, 0.5419847, 4.89375, -3.091603
0.5765294, -0.0199741, 4.9005, -0.0811768, 4.9005, -0.9860229, 4.9005, -0.2729492, 4.9005, 0.6564885, 4.9005, 0.6030535, 4.9005, -3.0305343
0.5773235, -0.0142672, 4.90725, -0.0785522, 4.90725, -0.9868164, 4.90725, -0.274353, 4.90725, 0.908397, 4.90725, 0.8244275, 4.90725, -3.1068702
0.5781176, -0.0075532, 4.914, -0.0789795, 4.914, -0.9890747, 4.914, -0.2778931, 4.914, 0.9770992, 4.914, 0.7557252, 4.914, -3.1526718
0.5789118, -0.0050355, 4.92075, -0.0790405, 4.92075, -0.9873657, 4.92075, -0.276123, 4.92075, 1.2061069, 4.92075, 1.0992366, 4.92075, -2.9694657
0.5797059, -0.0035248, 4.9275, -0.0813599, 4.9275, -0.9865723, 4.9275, -0.2734375, 4.9275, 1.1755725, 4.9275, 1.0534351, 4.9275, -3
0.5805, -0.006714, 4.93425, -0.0808716, 4.93425, -0.9891357, 4.93425, -0.2716064, 4.93425, 1.2519084, 4.93425, 1.2137405, 4.93425, -2.9389312
0.5812941, -0.0062104, 4.941, -0.079834, 4.941, -0.9867554, 4.941, -0.2755127, 4.941, 1.0229008, 4.941, 1.1374046, 4.941, -2.908397
0.5820882, -0.0114137, 4.94775, -0.0780029, 4.94775, -0.9864502, 4.94775, -0.2720947, 4.94775, 0.9160305, 4.94775, 1.259542, 4.94775, -3
0.5828824, -0.0127565, 4.9545, -0.0782471, 4.9545, -0.9891968, 4.9545, -0.2749634, 4.9545, 1.0763359, 4.9545, 1.2977099, 4.9545, -3
0.5836765, -0.0104067, 4.96125, -0.0784302, 4.96125, -0.9863892, 4.96125, -0.2711792, 4.96125, 1.0687023, 4.96125, 1.3664122, 4.96125, -2.8396947
0.5844706, -0.0125887, 4.968, -0.0791016, 4.968, -0.9872437, 4.968, -0.2723389, 4.968, 1.0763359, 4.968, 1.3206106, 4.968, -2.7938931
0.5852647, -0.0125887, 4.97475, -0.0818481, 4.97475, -0.9889526, 4.97475, -0.2756348, 4.97475, 0.8778626, 4.97475, 1.1755725, 4.97475, -3.0229008
0.5860588, -0.0082246, 4.9815, -0.0822754, 4.9815, -0.9871826, 4.9815, -0.2755127, 4.9815, 0.9236641, 4.9815, 1.038168, 4.9815, -2.9465649
0.5868529, -0.008896, 4.98825, -0.0769653, 4.98825, -0.9850464, 4.98825, -0.2749634, 4.98825, 0.5419847, 4.98825, 1.0534351, 4.98825, -3.0152671
0.5876471, -0.0112459, 4.995, -0.0774536, 4.995, -0.9848633, 4.995, -0.2739258, 4.995, 0.480916, 4.995, 0.9389313, 4.995, -3.1068702
0.5884412, -0.0072175, 5.00175, -0.0793457, 5.00175, -0.9849854, 5.00175, -0.2698975, 5.00175, 0.4427481, 5.00175, 0.7938932, 5.00175, -2.9389312
0.5892353, -0.005539, 5.0085, -0.0825195, 5.0085, -0.9869995, 5.0085, -0.2739258, 5.0085, 0.5343512, 5.0085, 0.6641222, 5.0085, -3.0839694
0.5900294, -0.0129244, 5.01525, -0.0842896, 5.01525, -0.9871826, 5.01525, -0.2797241, 5.01525, 0.610687, 5.01525, 0.4885496, 5.01525, -3.2442749
0.5908235, -0.0191348, 5.022, -0.0829468, 5.022, -0.9807129, 5.022, -0.2782593, 5.022, 0.7251908, 5.022, 0.5801527, 5.022, -3
0.5916176, -0.0191348, 5.02875, -0.0771484, 5.02875, -0.9860229, 5.02875, -0.2782593, 5.02875, 0.5572519, 5.02875, 0.7328244, 5.02875, -3.1832061
0.5924118, -0.0193027, 5.0355, -0.081665, 5.0355, -0.9882202, 5.0355, -0.2744751, 5.0355, 0.7022901, 5.0355, 0.5419847, 5.0355, -3.1145039
0.5932059, -0.0152743, 5.04225, -0.0800781, 5.04225, -0.9886475, 5.04225, -0.2761841, 5.04225, 0.8167939, 5.04225, 0.5648855, 5.04225, -3.0839694
0.594, -0.0146029, 5.049, -0.0807495, 5.049, -0.9848633, 5.049, -0.2785034, 5.049, 1.0076336, 5.049, 0.4198473, 5.049, -3.1755726
0.5947941, -0.0193027, 5.05575, -0.0808716, 5.05575, -0.9891968, 5.05575, -0.2752686, 5.05575, 0.8854962, 5.05575, 0.3587786, 5.05575, -3.1603053
0.5955882, -0.0229953, 5.0625, -0.0817261, 5.0625, -0.9830933, 5.0625, -0.274353, 5.0625, 1.0534351, 5.0625, 0.870229, 5.0625, -3.1450381
0.5963824, -0.0229953, 5.06925, -0.0819702, 5.06925, -0.9859619, 5.06925, -0.2753906, 5.06925, 0.9847328, 5.06925, 0.6793893, 5.06925, -2.961832
0.5971765, -0.0203098, 5.076, -0.0838013, 5.076, -0.9868164, 5.076, -0.2785034, 5.076, 1.1145039, 5.076, 0.648855, 5.076, -3.0992367
0.5979706, -0.0169528, 5.08275, -0.0817261, 5.08275, -0.989624, 5.08275, -0.277832, 5.08275, 1.1374046, 5.08275, 0.6641222, 5.08275, -3.1221373
0.5987647, -0.0186313, 5.0895, -0.0814209, 5.0895, -0.9858398, 5.0895, -0.2781372, 5.0895, 1.2519084, 5.0895, 0.6717557, 5.0895, -3.1755726
0.5995588, -0.0142672, 5.09625, -0.0812378, 5.09625, -0.9860229, 5.09625, -0.2758789, 5.09625, 1.1832061, 5.09625, 0.6259542, 5.09625, -3.1145039
0.6003529, -0.0129244, 5.103, -0.0819702, 5.103, -0.9886475, 5.103, -0.2736816, 5.103, 1.4198474, 5.103, 0.6946565, 5.103, -3.1755726
0.6011471, -0.0157778, 5.10975, -0.0761108, 5.10975, -0.9906616, 5.10975, -0.2788086, 5.10975, 1.2671756, 5.10975, 0.9847328, 5.10975, -3.1374047
0.6019412, -0.0157778, 5.1165, -0.078125, 5.1165, -0.9901733, 5.1165, -0.2772827, 5.1165, 1.389313, 5.1165, 0.8854962, 5.1165, -3.0839694
0.6027353, -0.0102388, 5.12325, -0.0801392, 5.12325, -0.9894409, 5.12325, -0.2752686, 5.12325, 1.4885496, 5.12325, 0.778626, 5.12325, -3.1374047
0.6035294, -0.0068818, 5.13, -0.081543, 5.13, -0.9901733, 5.13, -0.2737427, 5.13, 1.5343511, 5.13, 0.778626, 5.13, -2.9847329
0.6043235, -0.0172885, 5.13675, -0.0819092, 5.13675, -0.9885864, 5.13675, -0.2790527, 5.13675, 1.5648855, 5.13675, 0.8625954, 5.13675, -3.1450381
0.6051176, -0.0223239, 5.1435, -0.0796509, 5.1435, -0.9868164, 5.1435, -0.2752075, 5.1435, 1.5954199, 5.1435, 0.8091603, 5.1435, -3.259542
0.6059118, -0.0204776, 5.15025, -0.0814819, 5.15025, -0.9871826, 5.15025, -0.2753296, 5.15025, 1.5343511, 5.15025, 0.8320611, 5.15025, -3.2824428
0.6067059, -0.0149386, 5.157, -0.0849609, 5.157, -0.9874268, 5.157, -0.2763672, 5.157, 1.5114504, 5.157, 0.8320611, 5.157, -3.2061069
0.6075, -0.0149386, 5.16375, -0.0779419, 5.16375, -0.9850464, 5.16375, -0.2736816, 5.16375, 1.8549619, 5.16375, 0.8167939, 5.16375, -3.0076337
0.6082941, -0.017792, 5.1705, -0.0790405, 5.1705, -0.9846191, 5.1705, -0.2730713, 5.1705, 1.8396946, 5.1705, 0.9694657, 5.1705, -3.2442749
0.6090882, -0.0184634, 5.17725, -0.0768433, 5.17725, -0.9830933, 5.17725, -0.2741089, 5.17725, 1.6870229, 5.17725, 1.0305344, 5.17725, -3.0763359
0.6098824, -0.0206455, 5.184, -0.0793457, 5.184, -0.9832764, 5.184, -0.2765503, 5.184, 1.5114504, 5.184, 1.1603054, 5.184, -3.0305343
0.6106765, -0.0206455, 5.19075, -0.0821533, 5.19075, -0.9876099, 5.19075, -0.2761841, 5.19075, 1.6564885, 5.19075, 1.1603054, 5.19075, -3.3282442
0.6114706, -0.017792, 5.1975, -0.0787354, 5.1975, -0.9851685, 5.1975, -0.269104, 5.1975, 1.5801526, 5.1975, 0.9847328, 5.1975, -3.129771
0.6122647, -0.0125887, 5.20425, -0.0784302, 5.20425, -0.9858398, 5.20425, -0.2727661, 5.20425, 1.5801526, 5.20425, 1.091603, 5.20425, -3.2061069
0.6130588, -0.0129244, 5.211, -0.0792236, 5.211, -0.9856567, 5.211, -0.2772827, 5.211, 1.7633588, 5.211, 1.038168, 5.211, -2.9312978
0.6138529, -0.0115816, 5.21775, -0.076416, 5.21775, -0.9863892, 5.21775, -0.2722168, 5.21775, 1.8167939, 5.21775, 0.961832, 5.21775, -2.9236641
0.6146471, -0.008896, 5.2245, -0.0804443, 5.2245, -0.9853516, 5.2245, -0.2755737, 5.2245, 1.8015267, 5.2245, 1.091603, 5.2245, -2.8854961
0.6154412, -0.0082246, 5.23125, -0.0824585, 5.23125, -0.9865723, 5.23125, -0.2750854, 5.23125, 1.6412214, 5.23125, 1.2748091, 5.23125, -3.1755726
0.6162353, -0.0115816, 5.238, -0.081604, 5.238, -0.9874878, 5.238, -0.2717285, 5.238, 1.5801526, 5.238, 1.129771, 5.238, -2.9236641
0.6170294, -0.0130922, 5.24475, -0.081604, 5.24475, -0.9865723, 5.24475, -0.2709961, 5.24475, 1.519084, 5.24475, 1.1450381, 5.24475, -2.9694657
0.6178235, -0.0112459, 5.2515, -0.0836792, 5.2515, -0.9866943, 5.2515, -0.2697754, 5.2515, 1.2366412, 5.2515, 0.9389313, 5.2515, -2.9923663
0.6186176, -0.0082246, 5.25825, -0.0834351, 5.25825, -0.9884033, 5.25825, -0.2706299, 5.25825, 1.2366412, 5.25825, 0.8549618, 5.25825, -2.8244274
0.6194118, -0.0085603, 5.265, -0.0830688, 5.265, -0.9857178, 5.265, -0.2731323, 5.265, 1.0839695, 5.265, 0.9389313, 5.265, -3.1526718
0.6202059, -0.0112459, 5.27175, -0.0831299, 5.27175, -0.987915, 5.27175, -0.2705688, 5.27175, 1.1908396, 5.27175, 0.7709923, 5.27175, -2.9160306
0.621, -0.012253, 5.2785, -0.0782471, 5.2785, -0.9857788, 5.2785, -0.2705078, 5.2785, 1.2442749, 5.2785, 0.8244275, 5.2785, -3.1908398
0.6217941, -0.0109102, 5.28525, -0.0811768, 5.28525, -0.9841919, 5.28525, -0.2749023, 5.28525, 1.1221374, 5.28525, 0.9236641, 5.28525, -3.0992367
0.6225882, -0.0090639, 5.292, -0.0813599, 5.292, -0.9899902, 5.292, -0.2741699, 5.292, 1.2366412, 5.292, 0.7862595, 5.292, -3.129771
0.6233824, -0.011078, 5.29875, -0.0827026, 5.29875, -0.9850464, 5.29875, -0.2731934, 5.29875, 1.4885496, 5.29875, 0.870229, 5.29875, -3.2137403
0.6241765, -0.008896, 5.3055, -0.0774536, 5.3055, -0.986145, 5.3055, -0.2724609, 5.3055, 1.6335878, 5.3055, 0.9770992, 5.3055, -3.0687022
0.6249706, -0.0119173, 5.31225, -0.079895, 5.31225, -0.9863892, 5.31225, -0.2717896, 5.31225, 1.4656489, 5.31225, 0.648855, 5.31225, -3.1984732
0.6257647, -0.0209812, 5.319, -0.0858154, 5.319, -0.9884033, 5.319, -0.2709961, 5.319, 1.8167939, 5.319, 0.648855, 5.319, -3.1908398
0.6265588, -0.0216526, 5.32575, -0.0843506, 5.32575, -0.9887085, 5.32575, -0.2715454, 5.32575, 1.7709924, 5.32575, 0.8396947, 5.32575, -3.0229008
0.6273529, -0.0203098, 5.3325, -0.0780029, 5.3325, -0.9871216, 5.3325, -0.2735596, 5.3325, 1.6335878, 5.3325, 1.0992366, 5.3325, -3.0687022
0.6281471, -0.0219883, 5.33925, -0.0845337, 5.33925, -0.9885864, 5.33925, -0.2734985, 5.33925, 1.4580153, 5.33925, 0.5419847, 5.33925, -3.038168
0.6289412, -0.0231632, 5.346, -0.0809937, 5.346, -0.9891357, 5.346, -0.2687988, 5.346, 1.4732825, 5.346, 0.9312977, 5.346, -3.1526718
0.6297353, -0.0196384, 5.35275, -0.0792236, 5.35275, -0.986084, 5.35275, -0.2751465, 5.35275, 1.5343511, 5.35275, 0.8778626, 5.35275, -3.3053436
0.6305294, -0.0162814, 5.3595, -0.0789185, 5.3595, -0.9869385, 5.3595, -0.2727661, 5.3595, 1.4961832, 5.3595, 0.6259542, 5.3595, -3.1145039
0.6313235, -0.0135958, 5.36625, -0.079834, 5.36625, -0.9874878, 5.36625, -0.2736816, 5.36625, 1.3816794, 5.36625, 0.961832, 5.36625, -3.0305343
0.6321176, -0.011078, 5.373, -0.0817871, 5.373, -0.9855957, 5.373, -0.274353, 5.373, 1.3206106, 5.373, 0.8931298, 5.373, -3.221374
0.6329118, -0.0092317, 5.37975, -0.0824585, 5.37975, -0.9871216, 5.37975, -0.2745361, 5.37975, 1.1984733, 5.37975, 0.8167939, 5.37975, -3.1145039
0.6337059, -0.0082246, 5.3865, -0.0806274, 5.3865, -0.9865723, 5.3865, -0.2733154, 5.3865, 1.038168, 5.3865, 0.8931298, 5.3865, -3.0763359
0.6345, -0.0115816, 5.39325, -0.0823975, 5.39325, -0.9875488, 5.39325, -0.2750244, 5.39325, 1.0534351, 5.39325, 0.6641222, 5.39325, -3.2290077
0.6352941, -0.0115816, 5.4, -0.0838013, 5.4, -0.9846191, 5.4, -0.2737427, 5.4, 1.0305344, 5.4, 0.8396947, 5.4, -3.2519083
0.6360882, -0.0099031, 5.40675, -0.0838623, 5.40675, -0.9855347, 5.40675, -0.2739868, 5.40675, 1.038168, 5.40675, 0.870229, 5.40675, -3.1984732
0.6368824, -0.0135958, 5.4135, -0.0804443, 5.4135, -0.9849243, 5.4135, -0.2769775, 5.4135, 1.1526718, 5.4135, 0.9541985, 5.4135, -3.3129771
0.6376765, -0.0179599, 5.42025, -0.0830688, 5.42025, -0.9867554, 5.42025, -0.2734985, 5.42025, 1.1603054, 5.42025, 1.0839695, 5.42025, -3.221374
0.6384706, -0.0149386, 5.427, -0.0843506, 5.427, -0.9879761, 5.427, -0.2767334, 5.427, 1.259542, 5.427, 1.038168, 5.427, -3.129771
0.6392647, -0.0162814, 5.43375, -0.0829468, 5.43375, -0.9862671, 5.43375, -0.274292, 5.43375, 0.9923664, 5.43375, 1.1755725, 5.43375, -3.1450381
0.6400588, -0.0182956, 5.4405, -0.0823975, 5.4405, -0.9880981, 5.4405, -0.2705078, 5.4405, 1.0229008, 5.4405, 1.1984733, 5.4405, -3.0992367
0.6408529, -0.01561, 5.44725, -0.0838013, 5.44725, -0.9875488, 5.44725, -0.274292, 5.44725, 1.0152671, 5.44725, 0.7328244, 5.44725, -3.259542
0.6416471, -0.0135958, 5.454, -0.0854492, 5.454, -0.9868774, 5.454, -0.2762451, 5.454, 0.8854962, 5.454, 0.5801527, 5.454, -3.3664122
0.6424412, -0.0135958, 5.46075, -0.0860596, 5.46075, -0.984436, 5.46075, -0.2739258, 5.46075, 0.8549618, 5.46075, 0.4503817, 5.46075, -3.2442749
0.6432353, -0.0124208, 5.4675, -0.0837402, 5.4675, -0.9867554, 5.4675, -0.2722778, 5.4675, 0.8473282, 5.4675, 0.4045801, 5.4675, -3.2824428
0.6440294, -0.012253, 5.47425, -0.0811157, 5.47425, -0.9864502, 5.47425, -0.2722778, 5.47425, 1.0610687, 5.47425, 0.5419847, 5.47425, -3.3740458
0.6448235, -0.008896, 5.481, -0.0765991, 5.481, -0.9873657, 5.481, -0.2733154, 5.481, 0.9694657, 5.481, 0.6030535, 5.481, -3.2366412
0.6456176, -0.0135958, 5.48775, -0.0765991, 5.48775, -0.9871826, 5.48775, -0.274292, 5.48775, 1.1603054, 5.48775, 0.6412213, 5.48775, -3.3435113
0.6464118, -0.0186313, 5.4945, -0.0765991, 5.4945, -0.9867554, 5.4945, -0.2731934, 5.4945, 1.2290076, 5.4945, 0.8473282, 5.4945, -3.2061069
0.6472059, -0.0196384, 5.50125, -0.0807495, 5.50125, -0.9838867, 5.50125, -0.2711792, 5.50125, 1.0458015, 5.50125, 0.9923664, 5.50125, -3.3816793
0.648, -0.0255131, 5.508, -0.078125, 5.508, -0.9859619, 5.508, -0.2730713, 5.508, 1.091603, 5.508, 0.9770992, 5.508, -3.4274809
0.6487941, -0.0203098, 5.51475, -0.0795288, 5.51475, -0.9846191, 5.51475, -0.2702637, 5.51475, 0.8015267, 5.51475, 1.0763359, 5.51475, -3.2900763
0.6495882, -0.0139315, 5.5215, -0.0813599, 5.5215, -0.9849854, 5.5215, -0.2729492, 5.5215, 1.0229008, 5.5215, 0.9923664, 5.5215, -3.0687022
0.6503824, -0.0135958, 5.52825, -0.0834961, 5.52825, -0.9820557, 5.52825, -0.2692871, 5.52825, 0.8167939, 5.52825, 0.8244275, 5.52825, -3.2290077
0.6511765, -0.0142672, 5.535, -0.0845337, 5.535, -0.9856567, 5.535, -0.27771, 5.535, 1, 5.535, 0.5801527, 5.535, -3.3206108
0.6519706, -0.0125887, 5.54175, -0.085144, 5.54175, -0.9832153, 5.54175, -0.2749023, 5.54175, 0.908397, 5.54175, 0.740458, 5.54175, -3.2748091
0.6527647, -0.0090639, 5.5485, -0.081543, 5.5485, -0.9838257, 5.5485, -0.2733765, 5.5485, 1.0305344, 5.5485, 0.7862595, 5.5485, -3.2519083
0.6535588, -0.0097353, 5.55525, -0.081543, 5.55525, -0.9856567, 5.55525, -0.2736816, 5.55525, 0.9923664, 5.55525, 0.7328244, 5.55525, -3.3206108
0.6543529, -0.0142672, 5.562, -0.0831909, 5.562, -0.9848633, 5.562, -0.2724609, 5.562, 1.1832061, 5.562, 0.7022901, 5.562, -3.2290077
0.6551471, -0.0135958, 5.56875, -0.0830688, 5.56875, -0.991333, 5.56875, -0.274231, 5.56875, 1.1068702, 5.56875, 0.7328244, 5.56875, -3.2366412
0.6559412, -0.0132601, 5.5755, -0.0821533, 5.5755, -0.9926758, 5.5755, -0.2767334, 5.5755, 1.2824427, 5.5755, 0.6335878, 5.5755, -3.259542
0.6567353, -0.0152743, 5.58225, -0.0826416, 5.58225, -0.9907227, 5.58225, -0.2736206, 5.58225, 1.610687, 5.58225, 0.6259542, 5.58225, -3.2977099
0.6575294, -0.0142672, 5.589, -0.085083, 5.589, -0.9887085, 5.589, -0.2753296, 5.589, 1.4122137, 5.589, 0.648855, 5.589, -3.3129771
0.6583235, -0.0216526, 5.59575, -0.0824585, 5.59575, -0.9890137, 5.59575, -0.2761841, 5.59575, 1.2748091, 5.59575, 0.4961832, 5.59575, -3.2824428
0.6591176, -0.0169528, 5.6025, -0.0818481, 5.6025, -0.9880981, 5.6025, -0.2767334, 5.6025, 1.3206106, 5.6025, 0.7175573, 5.6025, -3.3816793
0.6599118, -0.0151064, 5.60925, -0.0819092, 5.60925, -0.9884644, 5.60925, -0.2752075, 5.60925, 1.3740458, 5.60925, 0.7328244, 5.60925, -3.4503818
0.6607059, -0.0135958, 5.616, -0.0800781, 5.616, -0.9887085, 5.616, -0.2711182, 5.616, 1.2519084, 5.616, 0.7633588, 5.616, -3.3969467
0.6615, -0.01561, 5.62275, -0.0789795, 5.62275, -0.9886475, 5.62275, -0.2694702, 5.62275, 1.4656489, 5.62275, 0.6030535, 5.62275, -3.4580152
0.6622941, -0.0139315, 5.6295, -0.0797119, 5.6295, -0.9883423, 5.6295, -0.2712402, 5.6295, 1.519084, 5.6295, 0.5572519, 5.6295, -3.3358779
0.6630882, -0.0112459, 5.63625, -0.0808716, 5.63625, -0.9898071, 5.63625, -0.2722778, 5.63625, 1.5801526, 5.63625, 0.7938932, 5.63625, -3.4351146
0.6638824, -0.012253, 5.643, -0.0793457, 5.643, -0.984436, 5.643, -0.2727051, 5.643, 1.4732825, 5.643, 0.908397, 5.643, -3.1755726
0.6646765, -0.0134279, 5.64975, -0.0792847, 5.64975, -0.9833984, 5.64975, -0.2721558, 5.64975, 1.5038168, 5.64975, 0.7251908, 5.64975, -3.1374047
0.6654706, -0.008896, 5.6565, -0.079895, 5.6565, -0.9868164, 5.6565, -0.2716064, 5.6565, 1.3816794, 5.6565, 0.9389313, 5.6565, -3.1450381
0.6662647, -0.0075532, 5.66325, -0.0813599, 5.66325, -0.9851074, 5.66325, -0.270752, 5.66325, 1.389313, 5.66325, 0.961832, 5.66325, -3.4885497
0.6670588, -0.0075532, 5.67, -0.0866089, 5.67, -0.984436, 5.67, -0.2723389, 5.67, 1.4732825, 5.67, 0.8625954, 5.67, -3.3664122
0.6678529, -0.008896, 5.67675, -0.0836792, 5.67675, -0.9845581, 5.67675, -0.2696533, 5.67675, 1.2748091, 5.67675, 0.5801527, 5.67675, -3.3129771
0.6686471, -0.0085603, 5.6835, -0.083374, 5.6835, -0.9829102, 5.6835, -0.2727661, 5.6835, 1.1832061, 5.6835, 0.6946565, 5.6835, -3.5114503
0.6694412, -0.0109102, 5.69025, -0.081604, 5.69025, -0.9851074, 5.69025, -0.2744141, 5.69025, 1.2748091, 5.69025, 0.4885496, 5.69025, -3.3664122
0.6702353, -0.0095674, 5.697, -0.0827637, 5.697, -0.987793, 5.697, -0.2750854, 5.697, 1.1221374, 5.697, 0.5496183, 5.697, -3.3282442
0.6710294, -0.0102388, 5.70375, -0.0791016, 5.70375, -0.9848633, 5.70375, -0.2717896, 5.70375, 1.2290076, 5.70375, 0.2977099, 5.70375, -3.519084
0.6718235, -0.0119173, 5.7105, -0.0789795, 5.7105, -0.9874268, 5.7105, -0.2741699, 5.7105, 1.1908396, 5.7105, 0.2366412, 5.7105, -3.3969467
0.6726176, -0.0146029, 5.71725, -0.0818481, 5.71725, -0.9838867, 5.71725, -0.2780762, 5.71725, 1.259542, 5.71725, 0.5954198, 5.71725, -3.3282442
0.6734118, -0.0196384, 5.724, -0.0777588, 5.724, -0.9877319, 5.724, -0.2770996, 5.724, 0.9007633, 5.724, 0.5267175, 5.724, -3.2824428
0.6742059, -0.0206455, 5.73075, -0.0790405, 5.73075, -0.986145, 5.73075, -0.2724609, 5.73075, 0.9847328, 5.73075, 0.4885496, 5.73075, -3.3816793
0.675, -0.0196384, 5.7375, -0.0812988, 5.7375, -0.9860229, 5.7375, -0.2709351, 5.7375, 1.0152671, 5.7375, 0.6259542, 5.7375, -3.1603053
