Application:, Trigno Discover (1.7.0)
Date/Time:, 2026/9/9 上午 11:36:35
Collection Length (seconds):, 40.5405
Avanti Sensor 11 (69574)
sensor mode: 50
EMG 1 Time Series (s), EMG 1 (mV), ACC X Time Series (s), ACC X (G), ACC Y Time Series (s), ACC Y (G), ACC Z Time Series (s), ACC Z (G), GYRO X Time Series (s), GYRO X (deg/s), GYRO Y Time Series (s), GYRO Y (deg/s), GYRO Z Time Series (s), GYRO Z (deg/s)
, 1259.2593 Hz, , 148.1481 Hz, , 148.1481 Hz, , 148.1481 Hz, , 148.1481 Hz, , 148.1481 Hz, , 148.1481 Hz
0, -0.0283665, 0, 0.0206299, 0, -1.0031128, 0, -0.1638184, 0, 2.259542, 0, 2.0839694, 0, -0.8931298
0.0007941, -0.0236667, 0.00675, 0.0143433, 0.00675, -1.0039062, 0.00675, -0.1660156, 0.00675, 2.0839694, 0.00675, 1.6946565, 0.00675, -0.9312977
0.0015882, -0.0157778, 0.0135, 0.0126953, 0.0135, -1.0036011, 0.0135, -0.164856, 0.0135, 2.0152671, 0.0135, 1.4274809, 0.0135, -1
0.0023824, -0.012253, 0.02025, 0.0134888, 0.02025, -1.0018921, 0.02025, -0.1638184, 0.02025, 1.9923664, 0.02025, 1.129771, 0.02025, -1.0839695
0.0031765, -0.008896, 0.027, 0.0177002, 0.027, -1.0054321, 0.027, -0.1681519, 0.027, 2.0458016, 0.027, 0.7099237, 0.027, -1.1526718
0.0039706, -0.0077211, 0.03375, 0.0255737, 0.03375, -1.0062866, 0.03375, -0.1713257, 0.03375, 2.0687022, 0.03375, 0.4580153, 0.03375, -1.1450381
0.0047647, -0.0065461, 0.0405, 0.0299072, 0.0405, -1.0025635, 0.0405, -0.1727295, 0.0405, 2.2748091, 0.0405, 0.8167939, 0.0405, -1.2900764
0.0055588, -0.0065461, 0.04725, 0.0300903, 0.04725, -1.0010986, 0.04725, -0.1687622, 0.04725, 2.3435113, 0.04725, 0.9923664, 0.04725, -1.3969465
0.0063529, -0.005539, 0.054, 0.0264893, 0.054, -1.0032349, 0.054, -0.1668091, 0.054, 2.1832061, 0.054, 1.0305344, 0.054, -1.2442749
0.0071471, -0.0028534, 0.06075, 0.0213013, 0.06075, -1.0015259, 0.06075, -0.1673584, 0.06075, 2.2061069, 0.06075, 0.8931298, 0.06075, -1.4274809
0.0079412, -0.0048676, 0.0675, 0.0219727, 0.0675, -0.9973755, 0.0675, -0.166626, 0.0675, 2.3664122, 0.0675, 0.1603053, 0.0675, -1.3816794
0.0087353, -0.0097353, 0.07425, 0.0250854, 0.07425, -0.9987183, 0.07425, -0.1720581, 0.07425, 2.2824428, 0.07425, -0.2061069, 0.07425, -1.4580153
0.0095294, -0.0083925, 0.081, 0.0345459, 0.081, -1.0001221, 0.081, -0.171814, 0.081, 2.351145, 0.081, -0.0152672, 0.081, -1.4122137
0.0103235, -0.0068818, 0.08775, 0.0333252, 0.08775, -1.0030518, 0.08775, -0.1699829, 0.08775, 2.480916, 0.08775, 0.5725191, 0.08775, -1.4427481
0.0111176, -0.008896, 0.0945, 0.0272827, 0.0945, -1.0048828, 0.0945, -0.1660767, 0.0945, 2.3282442, 0.0945, 0.9389313, 0.0945, -1.3358779
0.0119118, -0.0105745, 0.10125, 0.0230103, 0.10125, -1.0067139, 0.10125, -0.1695557, 0.10125, 2.4732823, 0.10125, 0.6870229, 0.10125, -1.3282443
0.0127059, -0.012253, 0.108, 0.0252686, 0.108, -1.0007324, 0.108, -0.1693726, 0.108, 2.6030533, 0.108, 0.8854962, 0.108, -1.3053435
0.0135, -0.0162814, 0.11475, 0.0285645, 0.11475, -1.0087891, 0.11475, -0.1674194, 0.11475, 2.7709923, 0.11475, 1.0076336, 0.11475, -1.2671756
0.0142941, -0.0196384, 0.1215, 0.0247803, 0.1215, -1.0039062, 0.1215, -0.1674805, 0.1215, 2.7709923, 0.1215, 1, 0.1215, -1.3358779
0.0150882, -0.0203098, 0.12825, 0.0269775, 0.12825, -1.0059814, 0.12825, -0.1646729, 0.12825, 2.480916, 0.12825, 1.0076336, 0.12825, -1.3435115
0.0158824, -0.0164492, 0.135, 0.0262451, 0.135, -1.0101318, 0.135, -0.1660156, 0.135, 2.4885497, 0.135, 1.1984733, 0.135, -1.2442749
0.0166765, -0.0139315, 0.14175, 0.0258789, 0.14175, -1.0079346, 0.14175, -0.1638184, 0.14175, 2.6412213, 0.14175, 1.3358779, 0.14175, -1.3358779
0.0174706, -0.0176242, 0.1485, 0.0219116, 0.1485, -1.012085, 0.1485, -0.1599121, 0.1485, 2.5038168, 0.1485, 1.2977099, 0.1485, -1.2442749
0.0182647, -0.0157778, 0.15525, 0.0228882, 0.15525, -1.0100708, 0.15525, -0.1633301, 0.15525, 2.5801528, 0.15525, 1.2824427, 0.15525, -1.221374
0.0190588, -0.0169528, 0.162, 0.0234985, 0.162, -1.0091553, 0.162, -0.1636353, 0.162, 2.4580152, 0.162, 1.3053435, 0.162, -1.1374046
0.0198529, -0.0119173, 0.16875, 0.0215454, 0.16875, -1.0099487, 0.16875, -0.1608887, 0.16875, 2.4427481, 0.16875, 1.4274809, 0.16875, -1.1908396
0.0206471, -0.0124208, 0.1755, 0.0195923, 0.1755, -1.0054932, 0.1755, -0.1596069, 0.1755, 2.4122138, 0.1755, 1.4274809, 0.1755, -1.3816794
0.0214412, -0.0169528, 0.18225, 0.0227661, 0.18225, -1.0039673, 0.18225, -0.1551514, 0.18225, 2.5038168, 0.18225, 1.5419847, 0.18225, -1.038168
0.0222353, -0.0132601, 0.189, 0.022522, 0.189, -1.0055542, 0.189, -0.1568604, 0.189, 2.5648854, 0.189, 1.4198474, 0.189, -1.1145039
0.0230294, -0.0129244, 0.19575, 0.0169067, 0.19575, -1.0047607, 0.19575, -0.1546021, 0.19575, 2.2977099, 0.19575, 1.5267175, 0.19575, -1.0610687
0.0238235, -0.018967, 0.2025, 0.0150757, 0.2025, -1.0067139, 0.2025, -0.1546631, 0.2025, 2.3587787, 0.2025, 1.3587786, 0.2025, -1.1145039
0.0246176, -0.0203098, 0.20925, 0.0145264, 0.20925, -1.0062256, 0.20925, -0.159729, 0.20925, 2.4351146, 0.20925, 0.8549618, 0.20925, -1.3129771
0.0254118, -0.0196384, 0.216, 0.0134277, 0.216, -1.0080566, 0.216, -0.1604614, 0.216, 2.4274809, 0.216, 0.519084, 0.216, -1.480916
0.0262059, -0.0193027, 0.22275, 0.0149536, 0.22275, -1.0096436, 0.22275, -0.1588745, 0.22275, 2.2977099, 0.22275, 0.519084, 0.22275, -1.6412214
0.027, -0.023331, 0.2295, 0.0137329, 0.2295, -1.0095825, 0.2295, -0.1605835, 0.2295, 2.4198472, 0.2295, 0.389313, 0.2295, -1.5648855
0.0277941, -0.0251774, 0.23625, 0.0153198, 0.23625, -1.0083618, 0.23625, -0.1584473, 0.23625, 2.5267177, 0.23625, 0.480916, 0.23625, -1.6030535
0.0285882, -0.0276951, 0.243, 0.0174561, 0.243, -1.0048828, 0.243, -0.1590576, 0.243, 2.3053436, 0.243, 0.389313, 0.243, -1.4427481
0.0293824, -0.0250095, 0.24975, 0.0181274, 0.24975, -1.0031738, 0.24975, -0.1581421, 0.24975, 2.2900763, 0.24975, 0.3740458, 0.24975, -1.389313
0.0301765, -0.0240024, 0.2565, 0.0236206, 0.2565, -1.0056763, 0.2565, -0.1596069, 0.2565, 2.2442749, 0.2565, 0.4198473, 0.2565, -1.5954199
0.0309706, -0.0263523, 0.26325, 0.0213013, 0.26325, -1.0012817, 0.26325, -0.1588745, 0.26325, 2.221374, 0.26325, 0.6793893, 0.26325, -1.5725191
0.0317647, -0.0263523, 0.27, 0.0172729, 0.27, -1.0044556, 0.27, -0.1567383, 0.27, 2.091603, 0.27, 0.7938932, 0.27, -1.6793894
0.0325588, -0.023331, 0.27675, 0.0145264, 0.27675, -1.0040283, 0.27675, -0.1529541, 0.27675, 2.0687022, 0.27675, 0.7862595, 0.27675, -1.6183206
0.0333529, -0.0182956, 0.2835, 0.0147095, 0.2835, -1.0077515, 0.2835, -0.1516113, 0.2835, 2.1145039, 0.2835, 0.4732825, 0.2835, -1.7938931
0.0341471, -0.0193027, 0.29025, 0.0165405, 0.29025, -1.0032959, 0.29025, -0.1533203, 0.29025, 2.0992367, 0.29025, 0.0992366, 0.29025, -1.8625954
0.0349412, -0.0179599, 0.297, 0.0148926, 0.297, -1.0045776, 0.297, -0.1512451, 0.297, 1.6793894, 0.297, 0.1679389, 0.297, -1.908397
0.0357353, -0.0068818, 0.30375, 0.0092163, 0.30375, -1.005188, 0.30375, -0.1478271, 0.30375, 1.7709924, 0.30375, -0.1832061, 0.30375, -1.8549619
0.0365294, 0.0005035, 0.3105, 0.0108643, 0.3105, -1.0083008, 0.3105, -0.1519775, 0.3105, 1.5572519, 0.3105, -0.2519084, 0.3105, -1.9236641
0.0373235, 0.0011749, 0.31725, 0.012207, 0.31725, -1.0026245, 0.31725, -0.1497192, 0.31725, 1.4503816, 0.31725, -0.5954198, 0.31725, -1.9847329
0.0381176, 0.0011749, 0.324, 0.0107422, 0.324, -1.0004272, 0.324, -0.1499023, 0.324, 1.2442749, 0.324, -0.6717557, 0.324, -2.0839694
0.0389118, 0.0011749, 0.33075, 0.0171509, 0.33075, -1.0032959, 0.33075, -0.1520386, 0.33075, 1.0534351, 0.33075, -0.908397, 0.33075, -2.0076337
0.0397059, 0.0011749, 0.3375, 0.0199585, 0.3375, -1.0073853, 0.3375, -0.1550903, 0.3375, 0.9923664, 0.3375, -0.610687, 0.3375, -1.870229
0.0405, -0.0030213, 0.34425, 0.0195923, 0.34425, -1.0067749, 0.34425, -0.1557617, 0.34425, 1.0763359, 0.34425, -0.5801527, 0.34425, -1.8091604
0.0412941, -0.0050355, 0.351, 0.020813, 0.351, -1.0059204, 0.351, -0.1551514, 0.351, 0.9160305, 0.351, -0.480916, 0.351, -1.8549619
0.0420882, -0.008896, 0.35775, 0.0197754, 0.35775, -1.005249, 0.35775, -0.1615601, 0.35775, 0.9541985, 0.35775, -0.4503817, 0.35775, -1.9541985
0.0428824, -0.011078, 0.3645, 0.0217896, 0.3645, -1.0043335, 0.3645, -0.1619263, 0.3645, 0.7251908, 0.3645, -0.3129771, 0.3645, -1.8549619
0.0436765, -0.0130922, 0.37125, 0.0218506, 0.37125, -1.0060425, 0.37125, -0.1640015, 0.37125, 0.740458, 0.37125, -0.2290076, 0.37125, -1.9160305
0.0444706, -0.0172885, 0.378, 0.0217285, 0.378, -1.0072632, 0.378, -0.1604004, 0.378, 0.5496183, 0.378, -0.2137405, 0.378, -1.8320611
0.0452647, -0.0169528, 0.38475, 0.0200806, 0.38475, -1.0012817, 0.38475, -0.1619263, 0.38475, 0.7175573, 0.38475, -0.1984733, 0.38475, -1.9694656
0.0460588, -0.0176242, 0.3915, 0.0151978, 0.3915, -1.0002441, 0.3915, -0.161499, 0.3915, 0.7862595, 0.3915, -0.2366412, 0.3915, -1.9541985
0.0468529, -0.0223239, 0.39825, 0.0198975, 0.39825, -1.003479, 0.39825, -0.1627808, 0.39825, 0.7557252, 0.39825, -0.221374, 0.39825, -2.038168
0.0476471, -0.0219883, 0.405, 0.0166626, 0.405, -1.0039062, 0.405, -0.161377, 0.405, 0.7251908, 0.405, -0.3435115, 0.405, -1.9465649
0.0484412, -0.023331, 0.41175, 0.015625, 0.41175, -1.0055542, 0.41175, -0.1654663, 0.41175, 0.7175573, 0.41175, -0.2519084, 0.41175, -2.0610688
0.0492353, -0.0238346, 0.4185, 0.0145264, 0.4185, -1.0029907, 0.4185, -0.1625366, 0.4185, 0.8015267, 0.4185, -0.0992366, 0.4185, -1.908397
0.0500294, -0.0218204, 0.42525, 0.0157471, 0.42525, -1.0045166, 0.42525, -0.1627197, 0.42525, 0.8396947, 0.42525, 0.0229008, 0.42525, -1.8931298
0.0508235, -0.0223239, 0.432, 0.0168457, 0.432, -1.0067749, 0.432, -0.1644287, 0.432, 0.8396947, 0.432, 0.0839695, 0.432, -1.9770992
0.0516176, -0.0186313, 0.43875, 0.0181274, 0.43875, -1.0067139, 0.43875, -0.1643066, 0.43875, 0.6793893, 0.43875, 0.2366412, 0.43875, -1.9541985
0.0524118, -0.0146029, 0.4455, 0.019043, 0.4455, -1.0045166, 0.4455, -0.1633301, 0.4455, 0.740458, 0.4455, 0.5877863, 0.4455, -1.8625954
0.0532059, -0.0115816, 0.45225, 0.0202026, 0.45225, -1.0042725, 0.45225, -0.1630249, 0.45225, 0.7480916, 0.45225, 0.9923664, 0.45225, -1.8931298
0.054, -0.0095674, 0.459, 0.0148926, 0.459, -1.0074463, 0.459, -0.1607056, 0.459, 0.5572519, 0.459, 0.8778626, 0.459, -2.038168
0.0547941, -0.0063783, 0.46575, 0.0105591, 0.46575, -1.0085449, 0.46575, -0.1609497, 0.46575, 0.7022901, 0.46575, 0.7862595, 0.46575, -1.961832
0.0555882, -0.0030213, 0.4725, 0.0099487, 0.4725, -1.0044556, 0.4725, -0.1549683, 0.4725, 0.6717557, 0.4725, 0.648855, 0.4725, -2.0458016
0.0563824, 0.0008392, 0.47925, 0.0065308, 0.47925, -1.0059814, 0.47925, -0.1561279, 0.47925, 0.6946565, 0.47925, 0.3816794, 0.47925, -1.9160305
0.0571765, 0.0048676, 0.486, 0.006897, 0.486, -1.0070801, 0.486, -0.1556396, 0.486, 0.4961832, 0.486, -0.129771, 0.486, -2.0229008
0.0579706, -0.0011749, 0.49275, 0.0090942, 0.49275, -1.0048218, 0.49275, -0.1539307, 0.49275, 0.3206107, 0.49275, -0.5725191, 0.49275, -2.1603053
0.0587647, -0.0075532, 0.4995, 0.0136108, 0.4995, -1.00354, 0.4995, -0.1558838, 0.4995, 0.1832061, 0.4995, -0.5648855, 0.4995, -2.2671757
0.0595588, -0.0068818, 0.50625, 0.0123291, 0.50625, -1.0025024, 0.50625, -0.1572266, 0.50625, 0.2671756, 0.50625, -0.5419847, 0.50625, -2.2900763
0.0603529, -0.0149386, 0.513, 0.0127563, 0.513, -1.0031738, 0.513, -0.1592407, 0.513, 0.1374046, 0.513, -0.5954198, 0.513, -2.259542
0.0611471, -0.0203098, 0.51975, 0.0130615, 0.51975, -1.005188, 0.51975, -0.1610107, 0.51975, 0.0839695, 0.51975, -0.6259542, 0.51975, -2.3129771
0.0619412, -0.0203098, 0.5265, 0.0131226, 0.5265, -1.0054321, 0.5265, -0.1615601, 0.5265, 0.1221374, 0.5265, -0.8167939, 0.5265, -2.2748091
0.0627353, -0.0243381, 0.53325, 0.0132446, 0.53325, -1.0062256, 0.53325, -0.1611938, 0.53325, 0.129771, 0.53325, -0.8473282, 0.53325, -2.351145
0.0635294, -0.0283665, 0.54, 0.0150146, 0.54, -1.0016479, 0.54, -0.1653442, 0.54, 0.0610687, 0.54, -0.6946565, 0.54, -2.3740458
0.0643235, -0.0280308, 0.54675, 0.0093384, 0.54675, -1.0008545, 0.54675, -0.1662598, 0.54675, 0.0610687, 0.54675, -0.7328244, 0.54675, -2.5419848
0.0651176, -0.0297093, 0.5535, 0.0093384, 0.5535, -1.0046997, 0.5535, -0.1661987, 0.5535, 0.0305344, 0.5535, -0.6335878, 0.5535, -2.4274809
0.0659118, -0.027863, 0.56025, 0.0078735, 0.56025, -1.0077515, 0.56025, -0.166626, 0.56025, 0.0229008, 0.56025, -0.8091603, 0.56025, -2.5496182
0.0667059, -0.0213169, 0.567, 0.0083008, 0.567, -1.0061035, 0.567, -0.166687, 0.567, 0.3435115, 0.567, -0.6259542, 0.567, -2.6717558
0.0675, -0.026688, 0.57375, 0.0110474, 0.57375, -1.0023804, 0.57375, -0.1674805, 0.57375, 0.2900763, 0.57375, -0.8015267, 0.57375, -2.870229
0.0682941, -0.026688, 0.5805, 0.0088501, 0.5805, -1.0048828, 0.5805, -0.1705933, 0.5805, 0.0839695, 0.5805, -0.6030535, 0.5805, -2.648855
0.0690882, -0.0223239, 0.58725, 0.0089111, 0.58725, -1.0087891, 0.58725, -0.1716309, 0.58725, 0.3206107, 0.58725, -0.5419847, 0.58725, -2.7022901
0.0698824, -0.0208133, 0.594, 0.008606, 0.594, -1.0043945, 0.594, -0.1672363, 0.594, 0.389313, 0.594, -0.4351145, 0.594, -2.9236641
0.0706765, -0.0172885, 0.60075, 0.0088501, 0.60075, -1.0040894, 0.60075, -0.1655884, 0.60075, 0.351145, 0.60075, -0.4198473, 0.60075, -2.961832
0.0714706, -0.0092317, 0.6075, 0.0111694, 0.6075, -1.0031128, 0.6075, -0.1643066, 0.6075, 0.5267175, 0.6075, -0.4580153, 0.6075, -2.9770992
0.0722647, -0.0072175, 0.61425, 0.0092773, 0.61425, -1.0047607, 0.61425, -0.164978, 0.61425, 0.5038168, 0.61425, -0.4885496, 0.61425, -2.9694657
0.0730588, -0.0006714, 0.621, 0.0070801, 0.621, -1.0049438, 0.621, -0.1624146, 0.621, 0.519084, 0.621, -0.4961832, 0.621, -2.9694657
0.0738529, 0.0005035, 0.62775, 0.0081177, 0.62775, -1.0075073, 0.62775, -0.1610718, 0.62775, 0.4732825, 0.62775, -0.7328244, 0.62775, -3.0305343
0.0746471, 0.0015106, 0.6345, 0.0117188, 0.6345, -1.0072632, 0.6345, -0.1607056, 0.6345, 0.4427481, 0.6345, -0.9541985, 0.6345, -3.0152671
0.0754412, 0.0048676, 0.64125, 0.0140381, 0.64125, -1.0056763, 0.64125, -0.1636353, 0.64125, 0.4885496, 0.64125, -1.0458015, 0.64125, -3.1603053
0.0762353, 0.0015106, 0.648, 0.0123901, 0.648, -1.0037231, 0.648, -0.1658325, 0.648, 0.5343512, 0.648, -0.9541985, 0.648, -3.2900763
0.0770294, -0.0003357, 0.65475, 0.0143433, 0.65475, -1.0044556, 0.65475, -0.1671753, 0.65475, 0.7251908, 0.65475, -0.8167939, 0.65475, -3.2442749
0.0778235, -0.0041962, 0.6615, 0.012207, 0.6615, -1.0037842, 0.6615, -0.164917, 0.6615, 0.4656489, 0.6615, -0.908397, 0.6615, -3.1832061
0.0786176, -0.008896, 0.66825, 0.010498, 0.66825, -1.0031128, 0.66825, -0.1677856, 0.66825, 0.6259542, 0.66825, -0.9007633, 0.66825, -3.1603053
0.0794118, -0.0117494, 0.675, 0.010376, 0.675, -1.0066528, 0.675, -0.1679688, 0.675, 0.778626, 0.675, -0.961832, 0.675, -3.2290077
0.0802059, -0.0139315, 0.68175, 0.0102539, 0.68175, -1.0090332, 0.68175, -0.1691284, 0.68175, 0.7938932, 0.68175, -0.961832, 0.68175, -3.1832061
0.081, -0.0193027, 0.6885, 0.0105591, 0.6885, -1.0065918, 0.6885, -0.1677856, 0.6885, 0.6793893, 0.6885, -0.961832, 0.6885, -3.4045801
0.0817941, -0.0171206, 0.69525, 0.0101929, 0.69525, -1.007019, 0.69525, -0.1658325, 0.69525, 0.8549618, 0.69525, -0.6335878, 0.69525, -3.2442749
0.0825882, -0.0184634, 0.702, 0.0081787, 0.702, -1.0038452, 0.702, -0.1652222, 0.702, 0.9465649, 0.702, -0.4961832, 0.702, -3.1984732
0.0833824, -0.0203098, 0.70875, 0.0115356, 0.70875, -1.0054321, 0.70875, -0.1654053, 0.70875, 0.8473282, 0.70875, -0.3358779, 0.70875, -3.2442749
0.0841765, -0.0130922, 0.7155, 0.0128174, 0.7155, -1.0078125, 0.7155, -0.1653442, 0.7155, 1, 0.7155, -0.3129771, 0.7155, -3.0992367
0.0849706, -0.014435, 0.72225, 0.0132446, 0.72225, -1.0076904, 0.72225, -0.1654053, 0.72225, 0.961832, 0.72225, -0.1145038, 0.72225, -3.1068702
0.0857647, -0.0139315, 0.729, 0.0140381, 0.729, -1.0074463, 0.729, -0.1644287, 0.729, 1.0305344, 0.729, 0.351145, 0.729, -3.1603053
0.0865588, -0.011078, 0.73575, 0.0149536, 0.73575, -1.0042725, 0.73575, -0.1665649, 0.73575, 1.1068702, 0.73575, 0.3435115, 0.73575, -3.1068702
0.0873529, -0.0048676, 0.7425, 0.013855, 0.7425, -1.0039673, 0.7425, -0.1627808, 0.7425, 1.1068702, 0.7425, 0.3282443, 0.7425, -3.1908398
0.0881471, -0.0063783, 0.74925, 0.0118408, 0.74925, -1.0057373, 0.74925, -0.1669312, 0.74925, 0.9923664, 0.74925, 0.2900763, 0.74925, -3.1755726
0.0889412, -0.0048676, 0.756, 0.0117188, 0.756, -1.0077515, 0.756, -0.1645508, 0.756, 1.1755725, 0.756, 0.129771, 0.756, -3.2290077
0.0897353, -0.0048676, 0.76275, 0.0101929, 0.76275, -1.0073242, 0.76275, -0.1672363, 0.76275, 1.1603054, 0.76275, 0.2519084, 0.76275, -3.1832061
0.0905294, -0.0041962, 0.7695, 0.0089111, 0.7695, -1.0061646, 0.7695, -0.1658325, 0.7695, 1.2671756, 0.7695, 0.2671756, 0.7695, -3.2137403
0.0913235, -0.0082246, 0.77625, 0.0076904, 0.77625, -1.0032349, 0.77625, -0.1658936, 0.77625, 1.1221374, 0.77625, 0, 0.77625, -3.2977099
0.0921176, -0.0124208, 0.783, 0.0064697, 0.783, -1.0040894, 0.783, -0.1685181, 0.783, 1.1221374, 0.783, -0.4961832, 0.783, -3.5267177
0.0929118, -0.021149, 0.78975, 0.0090332, 0.78975, -1.0036011, 0.78975, -0.1676636, 0.78975, 1.1984733, 0.78975, -0.4427481, 0.78975, -3.3206108
0.0937059, -0.0243381, 0.7965, 0.0150757, 0.7965, -1.0045166, 0.7965, -0.1634521, 0.7965, 1.2137405, 0.7965, -0.1832061, 0.7965, -3.4656489
0.0945, -0.0250095, 0.80325, 0.0163574, 0.80325, -1.0027466, 0.80325, -0.1676025, 0.80325, 1.2824427, 0.80325, -0.0076336, 0.80325, -3.5343511
0.0952941, -0.0251774, 0.81, 0.0118408, 0.81, -1.00177, 0.81, -0.1681519, 0.81, 1.1603054, 0.81, 0.3816794, 0.81, -3.3587787
0.0960882, -0.0256809, 0.81675, 0.0148315, 0.81675, -1.005127, 0.81675, -0.1679688, 0.81675, 1.3587786, 0.81675, 0.8244275, 0.81675, -3.2442749
0.0968824, -0.0253452, 0.8235, 0.0105591, 0.8235, -1.0058594, 0.8235, -0.1670532, 0.8235, 1.4427481, 0.8235, 1.0610687, 0.8235, -3.2137403
0.0976765, -0.0246738, 0.83025, 0.0079956, 0.83025, -1.0063477, 0.83025, -0.1679077, 0.83025, 1.3740458, 0.83025, 1.4351145, 0.83025, -3.3053436
0.0984706, -0.0236667, 0.837, 0.0063477, 0.837, -1.0079346, 0.837, -0.1663208, 0.837, 1.4503816, 0.837, 1.4045801, 0.837, -3.3740458
0.0992647, -0.0297093, 0.84375, 0.0108643, 0.84375, -1.0032959, 0.84375, -0.1639404, 0.84375, 1.480916, 0.84375, 1.2519084, 0.84375, -3.4885497
0.1000588, -0.0310521, 0.8505, 0.006897, 0.8505, -1.0076904, 0.8505, -0.1651611, 0.8505, 1.351145, 0.8505, 1.1679389, 0.8505, -3.519084
0.1008529, -0.0243381, 0.85725, 0.0098877, 0.85725, -1.0076294, 0.85725, -0.1670532, 0.85725, 1.389313, 0.85725, 0.870229, 0.85725, -3.5877862
0.1016471, -0.0209812, 0.864, 0.012146, 0.864, -1.0037842, 0.864, -0.1652222, 0.864, 1.4045801, 0.864, 0.7633588, 0.864, -3.4503818
0.1024412, -0.01561, 0.87075, 0.0119629, 0.87075, -1.0047607, 0.87075, -0.1617432, 0.87075, 1.3358779, 0.87075, 0.5877863, 0.87075, -3.5496182
0.1032353, -0.0099031, 0.8775, 0.0148315, 0.8775, -1.0062866, 0.8775, -0.1625977, 0.8775, 1.2366412, 0.8775, 0.6870229, 0.8775, -3.7175572
0.1040294, -0.0082246, 0.88425, 0.012207, 0.88425, -1.005188, 0.88425, -0.1621094, 0.88425, 1.3129771, 0.88425, 0.8778626, 0.88425, -3.8091602
0.1048235, -0.0075532, 0.891, 0.0123901, 0.891, -1.0021362, 0.891, -0.161438, 0.891, 1.3358779, 0.891, 0.6793893, 0.891, -3.5572519
0.1056176, -0.0028534, 0.89775, 0.0129395, 0.89775, -1.005249, 0.89775, -0.1621704, 0.89775, 1.389313, 0.89775, 0.740458, 0.89775, -3.5114503
0.1064118, -0.0041962, 0.9045, 0.0114136, 0.9045, -1.0008545, 0.9045, -0.1591797, 0.9045, 1.351145, 0.9045, 0.6564885, 0.9045, -3.5343511
0.1072059, -0.0031891, 0.91125, 0.0078125, 0.91125, -1.0005493, 0.91125, -0.1600952, 0.91125, 1.1908396, 0.91125, 0.6870229, 0.91125, -3.5954199
0.108, -0.0062104, 0.918, 0.0084229, 0.918, -1.0006714, 0.918, -0.1572876, 0.918, 1.1755725, 0.918, 0.5038168, 0.918, -3.610687
0.1087941, -0.012253, 0.92475, 0.008728, 0.92475, -1.0058594, 0.92475, -0.161499, 0.92475, 1.1832061, 0.92475, 0.5419847, 0.92475, -3.6564887
0.1095882, -0.0142672, 0.9315, 0.0079346, 0.9315, -1.0040894, 0.9315, -0.1605225, 0.9315, 1.091603, 0.9315, 0.1603053, 0.9315, -3.6946564
0.1103824, -0.0149386, 0.93825, 0.0115967, 0.93825, -1.0054321, 0.93825, -0.1613159, 0.93825, 1.129771, 0.93825, 0.1450382, 0.93825, -3.6870229
0.1111765, -0.0179599, 0.945, 0.0136719, 0.945, -1.0060425, 0.945, -0.1621094, 0.945, 1.2137405, 0.945, 0.2290076, 0.945, -3.648855
0.1119706, -0.0209812, 0.95175, 0.0127563, 0.95175, -1.0080566, 0.95175, -0.1646118, 0.95175, 1.0687023, 0.95175, 0.2900763, 0.95175, -3.7709923
0.1127647, -0.0209812, 0.9585, 0.0140381, 0.9585, -1.0047607, 0.9585, -0.1611938, 0.9585, 0.9160305, 0.9585, 0.5801527, 0.9585, -3.6641221
0.1135588, -0.0172885, 0.96525, 0.0096436, 0.96525, -1.0038452, 0.96525, -0.161377, 0.96525, 0.9389313, 0.96525, 0.6793893, 0.96525, -3.7633588
0.1143529, -0.0164492, 0.972, 0.0131226, 0.972, -1.0046997, 0.972, -0.1608276, 0.972, 0.8625954, 0.972, 0.610687, 0.972, -3.7175572
0.1151471, -0.0184634, 0.97875, 0.0111694, 0.97875, -1.0050049, 0.97875, -0.1619263, 0.97875, 0.8549618, 0.97875, 0.7557252, 0.97875, -3.740458
0.1159412, -0.018967, 0.9855, 0.0115356, 0.9855, -1.0098267, 0.9855, -0.1621094, 0.9855, 0.8625954, 0.9855, 0.8244275, 0.9855, -3.6717558
0.1167353, -0.0137636, 0.99225, 0.012146, 0.99225, -1.0067139, 0.99225, -0.163269, 0.99225, 0.9236641, 0.99225, 0.7938932, 0.99225, -3.6870229
0.1175294, -0.0125887, 0.999, 0.0148315, 0.999, -1.0046387, 0.999, -0.1623535, 0.999, 0.8549618, 0.999, 0.7633588, 0.999, -3.6564887
0.1183235, -0.0151064, 1.00575, 0.0140991, 1.00575, -1.0077515, 1.00575, -0.1641846, 1.00575, 0.8931298, 1.00575, 0.7557252, 1.00575, -3.6717558
0.1191176, -0.0157778, 1.0125, 0.0112915, 1.0125, -1.0090332, 1.0125, -0.1620483, 1.0125, 0.7938932, 1.0125, 0.9312977, 1.0125, -3.6946564
0.1199118, -0.011078, 1.01925, 0.0128784, 1.01925, -1.0054932, 1.01925, -0.1628418, 1.01925, 0.908397, 1.01925, 0.7633588, 1.01925, -3.7480917
0.1207059, -0.0082246, 1.026, 0.0140381, 1.026, -1.0036621, 1.026, -0.1635132, 1.026, 0.778626, 1.026, 0.8091603, 1.026, -3.5725191
0.1215, -0.0075532, 1.03275, 0.0157471, 1.03275, -1.0072632, 1.03275, -0.1662598, 1.03275, 0.8167939, 1.03275, 0.6717557, 1.03275, -3.610687
0.1222941, -0.005539, 1.0395, 0.0137329, 1.0395, -1.0044556, 1.0395, -0.1615601, 1.0395, 0.7251908, 1.0395, 0.778626, 1.0395, -3.7633588
0.1230882, -0.0068818, 1.04625, 0.0125122, 1.04625, -1.0040283, 1.04625, -0.163269, 1.04625, 0.7480916, 1.04625, 0.6717557, 1.04625, -3.6793892
0.1238824, -0.0072175, 1.053, 0.0107422, 1.053, -1.0042114, 1.053, -0.1637573, 1.053, 0.7862595, 1.053, 0.610687, 1.053, -3.6641221
0.1246765, -0.0058747, 1.05975, 0.0115967, 1.05975, -1.00354, 1.05975, -0.1689453, 1.05975, 0.5801527, 1.05975, 0.5648855, 1.05975, -3.6564887
0.1254706, -0.0105745, 1.0665, 0.0137939, 1.0665, -1.003479, 1.0665, -0.1651611, 1.0665, 0.6641222, 1.0665, 0.5725191, 1.0665, -3.7862597
0.1262647, -0.0162814, 1.07325, 0.0130005, 1.07325, -1.0026245, 1.07325, -0.1645508, 1.07325, 0.519084, 1.07325, 0.6641222, 1.07325, -3.6946564
0.1270588, -0.0208133, 1.08, 0.0130005, 1.08, -1.0036621, 1.08, -0.1657715, 1.08, 0.740458, 1.08, 0.6870229, 1.08, -3.8244274
0.1278529, -0.0243381, 1.08675, 0.0110474, 1.08675, -1.0040894, 1.08675, -0.1641846, 1.08675, 0.6335878, 1.08675, 0.6793893, 1.08675, -3.8473282
0.1286471, -0.0251774, 1.0935, 0.0115967, 1.0935, -1.0031738, 1.0935, -0.1643066, 1.0935, 0.7175573, 1.0935, 0.6030535, 1.0935, -3.9312978
0.1294412, -0.0263523, 1.10025, 0.0116577, 1.10025, -1.0062866, 1.10025, -0.1626587, 1.10025, 0.5877863, 1.10025, 0.4122137, 1.10025, -3.7862597
0.1302353, -0.0231632, 1.107, 0.0132446, 1.107, -1.0059204, 1.107, -0.1636963, 1.107, 0.4961832, 1.107, 0.610687, 1.107, -3.870229
0.1310294, -0.0250095, 1.11375, 0.0123291, 1.11375, -1.0054321, 1.11375, -0.1615601, 1.11375, 0.4274809, 1.11375, 0.6793893, 1.11375, -3.778626
0.1318235, -0.0223239, 1.1205, 0.0136719, 1.1205, -1.0075073, 1.1205, -0.1609497, 1.1205, 0.4122137, 1.1205, 0.6564885, 1.1205, -3.7709923
0.1326176, -0.0234989, 1.12725, 0.0143433, 1.12725, -1.0065308, 1.12725, -0.1618652, 1.12725, 0.3664122, 1.12725, 0.5114504, 1.12725, -3.6793892
0.1334118, -0.0268559, 1.134, 0.0116577, 1.134, -1.0067139, 1.134, -0.166687, 1.134, 0.4427481, 1.134, 0.5038168, 1.134, -3.7022901
0.1342059, -0.0226596, 1.14075, 0.0155029, 1.14075, -1.0038452, 1.14075, -0.1693726, 1.14075, 0.2824427, 1.14075, 0.2137405, 1.14075, -3.6946564
0.135, -0.0191348, 1.1475, 0.0180664, 1.1475, -1.0057983, 1.1475, -0.1679077, 1.1475, 0.4580153, 1.1475, 0.3358779, 1.1475, -3.6641221
0.1357941, -0.0162814, 1.15425, 0.0162354, 1.15425, -1.0062866, 1.15425, -0.1712646, 1.15425, 0.4198473, 1.15425, 0.3435115, 1.15425, -3.6259542
0.1365882, -0.0142672, 1.161, 0.0181885, 1.161, -1.0033569, 1.161, -0.1665039, 1.161, 0.5801527, 1.161, 0.2137405, 1.161, -3.778626
0.1373824, -0.0130922, 1.16775, 0.015686, 1.16775, -0.9998169, 1.16775, -0.1694336, 1.16775, 0.5114504, 1.16775, 0.0992366, 1.16775, -3.8854961
0.1381765, -0.0085603, 1.1745, 0.0140381, 1.1745, -1.0013428, 1.1745, -0.1721191, 1.1745, 0.7175573, 1.1745, -0.0076336, 1.1745, -3.648855
0.1389706, -0.005539, 1.18125, 0.0153198, 1.18125, -1.0031128, 1.18125, -0.1693115, 1.18125, 0.6717557, 1.18125, 0.2366412, 1.18125, -3.6412213
0.1397647, -0.0062104, 1.188, 0.0116577, 1.188, -1.0044556, 1.188, -0.1708984, 1.188, 0.8015267, 1.188, 0.4351145, 1.188, -3.6717558
0.1405588, -0.0065461, 1.19475, 0.0141602, 1.19475, -1.0050049, 1.19475, -0.1713257, 1.19475, 0.8244275, 1.19475, 0.2290076, 1.19475, -3.6564887
0.1413529, -0.0030213, 1.2015, 0.0125732, 1.2015, -1.0028076, 1.2015, -0.1694946, 1.2015, 0.9770992, 1.2015, 0.2061069, 1.2015, -3.8473282
0.1421471, -0.0018463, 1.20825, 0.0133057, 1.20825, -1.0053711, 1.20825, -0.1677246, 1.20825, 0.778626, 1.20825, 0.1679389, 1.20825, -3.8320611
0.1429412, -0.0028534, 1.215, 0.0167236, 1.215, -1.0064697, 1.215, -0.164917, 1.215, 0.9007633, 1.215, 0.0687023, 1.215, -3.6793892
0.1437353, -0.0065461, 1.22175, 0.0167847, 1.22175, -1.0056152, 1.22175, -0.1646118, 1.22175, 0.9694657, 1.22175, 0.4274809, 1.22175, -3.6183207
0.1445294, -0.0075532, 1.2285, 0.0163574, 1.2285, -1.0078735, 1.2285, -0.1629639, 1.2285, 0.8167939, 1.2285, 0.480916, 1.2285, -3.4732823
0.1453235, -0.0139315, 1.23525, 0.0164795, 1.23525, -1.0053711, 1.23525, -0.1658325, 1.23525, 1.1374046, 1.23525, 0.4656489, 1.23525, -3.519084
0.1461176, -0.0169528, 1.242, 0.0222168, 1.242, -1.0046387, 1.242, -0.1645508, 1.242, 1.0458015, 1.242, 0.7633588, 1.242, -3.389313
0.1469118, -0.0194705, 1.24875, 0.0228271, 1.24875, -1.0049438, 1.24875, -0.1608276, 1.24875, 1.1603054, 1.24875, 1.0992366, 1.24875, -3.2061069
0.1477059, -0.0263523, 1.2555, 0.0176392, 1.2555, -1.0054321, 1.2555, -0.1635132, 1.2555, 1.0763359, 1.2555, 1.0458015, 1.2555, -3.1374047
0.1485, -0.0258488, 1.26225, 0.0094604, 1.26225, -1.0064087, 1.26225, -0.1678467, 1.26225, 0.8931298, 1.26225, 0.740458, 1.26225, -3.2900763
0.1492941, -0.0198062, 1.269, 0.0075073, 1.269, -1.0041504, 1.269, -0.166626, 1.269, 0.8549618, 1.269, 0.2671756, 1.269, -3.5572519
0.1500882, -0.018967, 1.27575, 0.0148315, 1.27575, -1.0053711, 1.27575, -0.1673584, 1.27575, 0.8854962, 1.27575, -0.1145038, 1.27575, -3.4198472
0.1508824, -0.0204776, 1.2825, 0.0186157, 1.2825, -1.0053101, 1.2825, -0.171875, 1.2825, 0.9694657, 1.2825, 0.2748092, 1.2825, -3.3053436
0.1516765, -0.0238346, 1.28925, 0.019104, 1.28925, -1.0032959, 1.28925, -0.1708374, 1.28925, 1.0534351, 1.28925, 0.4351145, 1.28925, -3.3053436
0.1524706, -0.0209812, 1.296, 0.0167847, 1.296, -1.0023193, 1.296, -0.170105, 1.296, 0.9923664, 1.296, 0.6946565, 1.296, -3.4122138
0.1532647, -0.0129244, 1.30275, 0.0157471, 1.30275, -1.0043335, 1.30275, -0.1705933, 1.30275, 0.908397, 1.30275, 0.8778626, 1.30275, -3.2977099
0.1540588, -0.0105745, 1.3095, 0.0170288, 1.3095, -1.0032959, 1.3095, -0.1654053, 1.3095, 0.9847328, 1.3095, 1.2748091, 1.3095, -3.2748091
0.1548529, -0.0036927, 1.31625, 0.015625, 1.31625, -1.0028076, 1.31625, -0.1642456, 1.31625, 1.038168, 1.31625, 1.2977099, 1.31625, -3
0.1556471, 0.0011749, 1.323, 0.012207, 1.323, -1.00354, 1.323, -0.1651611, 1.323, 1.0763359, 1.323, 1.5038168, 1.323, -3.2290077
0.1564412, 0.0011749, 1.32975, 0.0095825, 1.32975, -1.00354, 1.32975, -0.1676025, 1.32975, 1.0305344, 1.32975, 1.3816794, 1.32975, -3
0.1572353, -0.0031891, 1.3365, 0.0139771, 1.3365, -1.0024414, 1.3365, -0.1680908, 1.3365, 1.1526718, 1.3365, 1.0610687, 1.3365, -3.2061069
0.1580294, -0.0046998, 1.34325, 0.0165405, 1.34325, -1.0036621, 1.34325, -0.1678467, 1.34325, 1.1221374, 1.34325, 0.8091603, 1.34325, -3.2442749
0.1588235, -0.005539, 1.35, 0.0195312, 1.35, -1.003479, 1.35, -0.1696777, 1.35, 0.9694657, 1.35, 1.038168, 1.35, -3.4351146
0.1596176, -0.0105745, 1.35675, 0.0182495, 1.35675, -1.0065308, 1.35675, -0.1689453, 1.35675, 1.0305344, 1.35675, 1.3435115, 1.35675, -3.259542
0.1604118, -0.0115816, 1.3635, 0.0160522, 1.3635, -1.0050049, 1.3635, -0.1694336, 1.3635, 1.1755725, 1.3635, 1.5648855, 1.3635, -3.2748091
0.1612059, -0.0146029, 1.37025, 0.0162354, 1.37025, -1.0043335, 1.37025, -0.168457, 1.37025, 1.1221374, 1.37025, 1.6793894, 1.37025, -3.2748091
0.162, -0.0152743, 1.377, 0.0158691, 1.377, -1.0053101, 1.377, -0.1672974, 1.377, 1.1832061, 1.377, 1.3969465, 1.377, -3.0992367
0.1627941, -0.0196384, 1.38375, 0.0164795, 1.38375, -1.0020752, 1.38375, -0.1697998, 1.38375, 1.2977099, 1.38375, 1.3435115, 1.38375, -3.0839694
0.1635882, -0.0238346, 1.3905, 0.0159912, 1.3905, -1.0046997, 1.3905, -0.1702271, 1.3905, 1.3435115, 1.3905, 1.1603054, 1.3905, -3.1832061
0.1643824, -0.0256809, 1.39725, 0.0149536, 1.39725, -1.0048218, 1.39725, -0.1746826, 1.39725, 1.259542, 1.39725, 1.0687023, 1.39725, -3.1221373
0.1651765, -0.0303807, 1.404, 0.0171509, 1.404, -1.0054932, 1.404, -0.173645, 1.404, 1.3587786, 1.404, 1.221374, 1.404, -3.2671757
0.1659706, -0.0287022, 1.41075, 0.020874, 1.41075, -1.0023193, 1.41075, -0.1734009, 1.41075, 1.5877863, 1.41075, 1.4503816, 1.41075, -3.0458016
0.1667647, -0.027863, 1.4175, 0.0223389, 1.4175, -1.0031128, 1.4175, -0.1712646, 1.4175, 1.4656489, 1.4175, 1.7709924, 1.4175, -3.0763359
0.1675588, -0.0303807, 1.42425, 0.0170288, 1.42425, -1.0046387, 1.42425, -0.1721802, 1.42425, 1.4732825, 1.42425, 1.9770992, 1.42425, -3.0305343
0.1683529, -0.0258488, 1.431, 0.0130005, 1.431, -1.00177, 1.431, -0.1729736, 1.431, 1.648855, 1.431, 1.961832, 1.431, -2.8320611
0.1691471, -0.0221561, 1.43775, 0.0153198, 1.43775, -1.0032959, 1.43775, -0.1713867, 1.43775, 1.6564885, 1.43775, 1.908397, 1.43775, -2.9541984
0.1699412, -0.0203098, 1.4445, 0.015625, 1.4445, -1.0037842, 1.4445, -0.1705322, 1.4445, 1.5419847, 1.4445, 1.9312977, 1.4445, -3.0458016
0.1707353, -0.0127565, 1.45125, 0.0150146, 1.45125, -1.0078735, 1.45125, -0.1708984, 1.45125, 1.4656489, 1.45125, 1.8320611, 1.45125, -3.0305343
0.1715294, -0.0041962, 1.458, 0.0170288, 1.458, -1.0076904, 1.458, -0.1668091, 1.458, 1.5419847, 1.458, 1.8931298, 1.458, -3.2900763
0.1723235, -0.0015106, 1.46475, 0.0167236, 1.46475, -1.0055542, 1.46475, -0.1687622, 1.46475, 1.5419847, 1.46475, 1.8473282, 1.46475, -3.2061069
0.1731176, 0.0038605, 1.4715, 0.0137329, 1.4715, -1.003418, 1.4715, -0.1676636, 1.4715, 1.6412214, 1.4715, 1.8625954, 1.4715, -3.0534351
0.1739118, 0.0057069, 1.47825, 0.0117798, 1.47825, -1.0065308, 1.47825, -0.1625977, 1.47825, 1.6030535, 1.47825, 1.6793894, 1.47825, -3.1603053
0.1747059, 0.0025177, 1.485, 0.0131836, 1.485, -1.0062866, 1.485, -0.1663208, 1.485, 1.5267175, 1.485, 1.5801526, 1.485, -3.2061069
0.1755, -0.0015106, 1.49175, 0.0130615, 1.49175, -1.0040894, 1.49175, -0.1640625, 1.49175, 1.5114504, 1.49175, 1.4961832, 1.49175, -3
0.1762941, -0.0048676, 1.4985, 0.0177612, 1.4985, -1.005249, 1.4985, -0.1646118, 1.4985, 1.5572519, 1.4985, 1.2137405, 1.4985, -3.0152671
0.1770882, -0.0109102, 1.50525, 0.0135498, 1.50525, -1.0028687, 1.50525, -0.1629028, 1.50525, 1.4198474, 1.50525, 1.0763359, 1.50525, -3.2137403
0.1778824, -0.011078, 1.512, 0.0137329, 1.512, -1.0047607, 1.512, -0.1657104, 1.512, 1.2977099, 1.512, 1.0305344, 1.512, -3
0.1786765, -0.0115816, 1.51875, 0.0123901, 1.51875, -1.0029907, 1.51875, -0.1618652, 1.51875, 1.4580153, 1.51875, 1.1526718, 1.51875, -3.0076337
0.1794706, -0.0109102, 1.5255, 0.0159912, 1.5255, -1.0043335, 1.5255, -0.1672974, 1.5255, 1.519084, 1.5255, 1.2061069, 1.5255, -3.1068702
0.1802647, -0.0171206, 1.53225, 0.0162964, 1.53225, -1.0036011, 1.53225, -0.1679077, 1.53225, 1.4580153, 1.53225, 1.1832061, 1.53225, -3.0687022
0.1810588, -0.0179599, 1.539, 0.0155029, 1.539, -1.0021973, 1.539, -0.164856, 1.539, 1.4732825, 1.539, 0.9847328, 1.539, -2.8931298
0.1818529, -0.0169528, 1.54575, 0.0169678, 1.54575, -1.0005493, 1.54575, -0.1677856, 1.54575, 1.2900764, 1.54575, 1.091603, 1.54575, -3.038168
0.1826471, -0.0179599, 1.5525, 0.0159302, 1.5525, -1.003479, 1.5525, -0.1679077, 1.5525, 1.4656489, 1.5525, 1.1526718, 1.5525, -3.0992367
0.1834412, -0.0171206, 1.55925, 0.0137939, 1.55925, -1.0022583, 1.55925, -0.1675415, 1.55925, 1.2977099, 1.55925, 1.1145039, 1.55925, -2.8320611
0.1842353, -0.0162814, 1.566, 0.0139771, 1.566, -1.0061646, 1.566, -0.1675415, 1.566, 1.4427481, 1.566, 0.8854962, 1.566, -2.9923663
0.1850294, -0.0099031, 1.57275, 0.0136108, 1.57275, -1.0078735, 1.57275, -0.1715088, 1.57275, 1.5954199, 1.57275, 0.7938932, 1.57275, -2.9694657
0.1858235, -0.0092317, 1.5795, 0.0142212, 1.5795, -1.00354, 1.5795, -0.1668701, 1.5795, 1.5877863, 1.5795, 0.6717557, 1.5795, -3.1145039
0.1866176, -0.0129244, 1.58625, 0.0143433, 1.58625, -1.0059814, 1.58625, -0.1651611, 1.58625, 1.4656489, 1.58625, 0.9847328, 1.58625, -2.9847329
0.1874118, -0.0102388, 1.593, 0.0140991, 1.593, -1.0078735, 1.593, -0.1650391, 1.593, 1.5496184, 1.593, 1.0992366, 1.593, -2.9465649
0.1882059, -0.0062104, 1.59975, 0.0169067, 1.59975, -1.0063477, 1.59975, -0.1656494, 1.59975, 1.5267175, 1.59975, 1.2061069, 1.59975, -2.9007633
0.189, -0.0058747, 1.6065, 0.0177002, 1.6065, -1.0060425, 1.6065, -0.1646118, 1.6065, 1.5496184, 1.6065, 1.389313, 1.6065, -2.908397
0.1897941, -0.0062104, 1.61325, 0.0167236, 1.61325, -1.0036621, 1.61325, -0.1658936, 1.61325, 1.4732825, 1.61325, 1.519084, 1.61325, -2.870229
0.1905882, -0.010071, 1.62, 0.0114136, 1.62, -1.0059204, 1.62, -0.1668091, 1.62, 1.5725191, 1.62, 1.6717557, 1.62, -2.9465649
0.1913824, -0.0129244, 1.62675, 0.0130615, 1.62675, -1.0037231, 1.62675, -0.1662598, 1.62675, 1.5801526, 1.62675, 1.480916, 1.62675, -3
0.1921765, -0.0102388, 1.6335, 0.012146, 1.6335, -1.0059204, 1.6335, -0.1685791, 1.6335, 1.5267175, 1.6335, 1.1068702, 1.6335, -2.8091602
0.1929706, -0.0075532, 1.64025, 0.0155029, 1.64025, -1.0067749, 1.64025, -0.1644897, 1.64025, 1.4198474, 1.64025, 1.1068702, 1.64025, -3
0.1937647, -0.0124208, 1.647, 0.0169678, 1.647, -1.0064087, 1.647, -0.1697998, 1.647, 1.6259542, 1.647, 0.9770992, 1.647, -2.9465649
0.1945588, -0.014435, 1.65375, 0.0155029, 1.65375, -1.0060425, 1.65375, -0.1713867, 1.65375, 1.6259542, 1.65375, 0.519084, 1.65375, -2.961832
0.1953529, -0.0169528, 1.6605, 0.0153198, 1.6605, -1.0037842, 1.6605, -0.1691895, 1.6605, 1.7022901, 1.6605, 0.7862595, 1.6605, -2.870229
0.1961471, -0.0226596, 1.66725, 0.0148926, 1.66725, -1.0031738, 1.66725, -0.1657104, 1.66725, 1.6412214, 1.66725, 0.9694657, 1.66725, -2.908397
0.1969412, -0.0221561, 1.674, 0.0158081, 1.674, -1.0046997, 1.674, -0.1633911, 1.674, 1.5648855, 1.674, 0.9923664, 1.674, -2.8473282
0.1977353, -0.0196384, 1.68075, 0.0111694, 1.68075, -1.0031128, 1.68075, -0.1647339, 1.68075, 1.6870229, 1.68075, 1.0152671, 1.68075, -2.8473282
0.1985294, -0.017792, 1.6875, 0.0176392, 1.6875, -1.0014648, 1.6875, -0.1593628, 1.6875, 1.5954199, 1.6875, 1, 1.6875, -2.9312978
0.1993235, -0.0186313, 1.69425, 0.0158691, 1.69425, -1.0038452, 1.69425, -0.1574707, 1.69425, 1.4580153, 1.69425, 1.3435115, 1.69425, -2.7099237
0.2001176, -0.023331, 1.701, 0.0153809, 1.701, -1.0066528, 1.701, -0.1554565, 1.701, 1.4274809, 1.701, 1.5038168, 1.701, -2.5648854
0.2009118, -0.0243381, 1.70775, 0.0115356, 1.70775, -1.0060425, 1.70775, -0.1573486, 1.70775, 1.4656489, 1.70775, 1.4732825, 1.70775, -2.4427481
0.2017059, -0.0186313, 1.7145, 0.0122681, 1.7145, -1.0063477, 1.7145, -0.1575317, 1.7145, 1.5954199, 1.7145, 1.221374, 1.7145, -2.4274809
0.2025, -0.0203098, 1.72125, 0.0131226, 1.72125, -1.0044556, 1.72125, -0.1578979, 1.72125, 1.3587786, 1.72125, 0.740458, 1.72125, -2.3282442
0.2032941, -0.0172885, 1.728, 0.0109253, 1.728, -1.0053711, 1.728, -0.1600952, 1.728, 1.2824427, 1.728, 0.3053435, 1.728, -2.5954199
0.2040882, -0.0149386, 1.73475, 0.0114746, 1.73475, -1.0027466, 1.73475, -0.1633911, 1.73475, 1.1832061, 1.73475, 0.2824427, 1.73475, -2.5954199
0.2048824, -0.0129244, 1.7415, 0.0122681, 1.7415, -1.0040283, 1.7415, -0.1610107, 1.7415, 1.1374046, 1.7415, 0.3053435, 1.7415, -2.648855
0.2056765, -0.0082246, 1.74825, 0.0079346, 1.74825, -1.005249, 1.74825, -0.1625977, 1.74825, 1.0687023, 1.74825, 0.1908397, 1.74825, -2.6183207
0.2064706, -0.0058747, 1.755, 0.0078125, 1.755, -1.0039673, 1.755, -0.1657104, 1.755, 1.1221374, 1.755, 0.1221374, 1.755, -2.6793892
0.2072647, -0.0045319, 1.76175, 0.0083618, 1.76175, -1.0043335, 1.76175, -0.1596069, 1.76175, 0.9007633, 1.76175, 0.1679389, 1.76175, -2.8167939
0.2080588, -0.0028534, 1.7685, 0.0119629, 1.7685, -1.003418, 1.7685, -0.1623535, 1.7685, 0.8931298, 1.7685, 0.3053435, 1.7685, -2.7862597
0.2088529, -0.0041962, 1.77525, 0.012146, 1.77525, -1.0042725, 1.77525, -0.1638184, 1.77525, 0.648855, 1.77525, 0.3435115, 1.77525, -2.8931298
0.2096471, -0.0109102, 1.782, 0.0148315, 1.782, -1.0078125, 1.782, -0.1623535, 1.782, 0.7709923, 1.782, 0.610687, 1.782, -2.7480917
0.2104412, -0.0206455, 1.78875, 0.013916, 1.78875, -1.0094604, 1.78875, -0.1608887, 1.78875, 0.610687, 1.78875, 0.8549618, 1.78875, -2.778626
0.2112353, -0.0223239, 1.7955, 0.0095215, 1.7955, -1.0053711, 1.7955, -0.1625366, 1.7955, 0.5954198, 1.7955, 0.870229, 1.7955, -2.7557251
0.2120294, -0.0243381, 1.80225, 0.0064697, 1.80225, -1.0073242, 1.80225, -0.163269, 1.80225, 0.5954198, 1.80225, 0.8244275, 1.80225, -2.8396947
0.2128235, -0.0280308, 1.809, 0.0098877, 1.809, -1.0043335, 1.809, -0.1635132, 1.809, 0.4656489, 1.809, 0.5343512, 1.809, -2.8473282
0.2136176, -0.0283665, 1.81575, 0.0136719, 1.81575, -1.0065308, 1.81575, -0.1615601, 1.81575, 0.351145, 1.81575, 0.5801527, 1.81575, -2.9541984
0.2144118, -0.0236667, 1.8225, 0.0112915, 1.8225, -1.005127, 1.8225, -0.1695557, 1.8225, 0.1450382, 1.8225, 0.7328244, 1.8225, -2.8473282
0.2152059, -0.0226596, 1.82925, 0.0150146, 1.82925, -1.0009766, 1.82925, -0.1677246, 1.82925, 0.2900763, 1.82925, 0.5648855, 1.82925, -2.7862597
0.216, -0.0229953, 1.836, 0.0094604, 1.836, -1.0050659, 1.836, -0.1660767, 1.836, 0.1984733, 1.836, 0.8549618, 1.836, -2.8396947
0.2167941, -0.0219883, 1.84275, 0.0118408, 1.84275, -1.0043945, 1.84275, -0.1655273, 1.84275, 0.0458015, 1.84275, 0.9541985, 1.84275, -3.1603053
0.2175882, -0.0224918, 1.8495, 0.0130005, 1.8495, -1.0044556, 1.8495, -0.166626, 1.8495, 0.0763359, 1.8495, 1.2366412, 1.8495, -2.8167939
0.2183824, -0.0209812, 1.85625, 0.0096436, 1.85625, -1.0026245, 1.85625, -0.1654053, 1.85625, 0.1221374, 1.85625, 1.0992366, 1.85625, -3.0458016
0.2191765, -0.014435, 1.863, 0.0085449, 1.863, -1.0031128, 1.863, -0.1608276, 1.863, 0.1145038, 1.863, 1.0763359, 1.863, -3.1068702
0.2199706, -0.0095674, 1.86975, 0.0076294, 1.86975, -1.0053101, 1.86975, -0.1651001, 1.86975, -0.0992366, 1.86975, 1.0610687, 1.86975, -3.1603053
0.2207647, -0.0109102, 1.8765, 0.0075684, 1.8765, -1.001709, 1.8765, -0.1624756, 1.8765, -0.0610687, 1.8765, 0.7709923, 1.8765, -3.129771
0.2215588, -0.0082246, 1.88325, 0.0085449, 1.88325, -1.0004272, 1.88325, -0.1657715, 1.88325, 0.0305344, 1.88325, 0.6946565, 1.88325, -3.1221373
0.2223529, -0.0058747, 1.89, 0.0117798, 1.89, -1.0057983, 1.89, -0.1657715, 1.89, -0.0229008, 1.89, 0.5648855, 1.89, -3.1221373
0.2231471, -0.0001678, 1.89675, 0.0140381, 1.89675, -1.0057983, 1.89675, -0.1665649, 1.89675, -0.2824427, 1.89675, 0.610687, 1.89675, -3.221374
0.2239412, -0.0015106, 1.9035, 0.0159302, 1.9035, -1.0022583, 1.9035, -0.1675415, 1.9035, -0.1603053, 1.9035, 0.7557252, 1.9035, -3.1603053
0.2247353, -0.0057069, 1.91025, 0.015625, 1.91025, -1.0022583, 1.91025, -0.1721191, 1.91025, -0.1755725, 1.91025, 0.9847328, 1.91025, -3.0687022
0.2255294, -0.0031891, 1.917, 0.0166626, 1.917, -1.0031738, 1.917, -0.1703491, 1.917, -0.2519084, 1.917, 1.129771, 1.917, -3.0839694
0.2263235, -0.005539, 1.92375, 0.0136719, 1.92375, -1.0056763, 1.92375, -0.1739502, 1.92375, -0.2824427, 1.92375, 1.0687023, 1.92375, -3.0229008
0.2271176, -0.012253, 1.9305, 0.0166016, 1.9305, -1.0053711, 1.9305, -0.1712036, 1.9305, 0.0152672, 1.9305, 1.2366412, 1.9305, -3.0305343
0.2279118, -0.0204776, 1.93725, 0.0123901, 1.93725, -1.0042725, 1.93725, -0.1727905, 1.93725, 0.0534351, 1.93725, 1.259542, 1.93725, -3.129771
0.2287059, -0.0214847, 1.944, 0.0100708, 1.944, -1.0024414, 1.944, -0.1743774, 1.944, -0.1374046, 1.944, 1.2442749, 1.944, -3.0763359
0.2295, -0.0256809, 1.95075, 0.0122681, 1.95075, -1.0049438, 1.95075, -0.1751099, 1.95075, 0.129771, 1.95075, 1.1145039, 1.95075, -3.1145039
0.2302941, -0.0283665, 1.9575, 0.0098267, 1.9575, -1.0048828, 1.9575, -0.1713257, 1.9575, 0.0763359, 1.9575, 1.0152671, 1.9575, -3.0687022
0.2310882, -0.0307164, 1.96425, 0.0101318, 1.96425, -1.0054932, 1.96425, -0.1734619, 1.96425, 0.0916031, 1.96425, 0.8473282, 1.96425, -2.9770992
0.2318824, -0.030045, 1.971, 0.0134888, 1.971, -1.0030518, 1.971, -0.1738892, 1.971, 0.1526718, 1.971, 0.7862595, 1.971, -3.038168
0.2326765, -0.0250095, 1.97775, 0.0144653, 1.97775, -1.0064087, 1.97775, -0.1757812, 1.97775, 0.2824427, 1.97775, 0.870229, 1.97775, -2.9923663
0.2334706, -0.0260166, 1.9845, 0.0154419, 1.9845, -1.0025635, 1.9845, -0.1727905, 1.9845, 0.3206107, 1.9845, 1.0229008, 1.9845, -2.8396947
0.2342647, -0.0317235, 1.99125, 0.013916, 1.99125, -1.0028076, 1.99125, -0.1756592, 1.99125, 0.3740458, 1.99125, 1.221374, 1.99125, -3.0305343
0.2350588, -0.0271916, 1.998, 0.0128784, 1.998, -1.0024414, 1.998, -0.1734619, 1.998, 0.4580153, 1.998, 1.3587786, 1.998, -3.1603053
0.2358529, -0.0236667, 2.00475, 0.013916, 2.00475, -1.0023804, 2.00475, -0.1739502, 2.00475, 0.480916, 2.00475, 1.4274809, 2.00475, -2.9847329
0.2366471, -0.0224918, 2.0115, 0.012207, 2.0115, -1.0039062, 2.0115, -0.1749268, 2.0115, 0.6412213, 2.0115, 0.870229, 2.0115, -2.9847329
0.2374412, -0.0199741, 2.01825, 0.0078125, 2.01825, -1.0043335, 2.01825, -0.175415, 2.01825, 0.6946565, 2.01825, 0.9007633, 2.01825, -3.0152671
0.2382353, -0.0099031, 2.025, 0.0073853, 2.025, -1.0053101, 2.025, -0.1709595, 2.025, 0.7099237, 2.025, 0.6335878, 2.025, -3.0687022
0.2390294, -0.0043641, 2.03175, 0.0120239, 2.03175, -1.0054932, 2.03175, -0.1714478, 2.03175, 0.7938932, 2.03175, 0.1908397, 2.03175, -2.9694657
0.2398235, -0.0028534, 2.0385, 0.0130005, 2.0385, -1.0058594, 2.0385, -0.1731567, 2.0385, 0.8167939, 2.0385, 0.4045801, 2.0385, -3.1679389
0.2406176, 0.0018463, 2.04525, 0.015686, 2.04525, -1.0067139, 2.04525, -0.1716309, 2.04525, 0.7251908, 2.04525, 0.5419847, 2.04525, -3.2442749
0.2414118, 0.0073854, 2.052, 0.0153198, 2.052, -1.0039062, 2.052, -0.1707764, 2.052, 0.8396947, 2.052, 0.5343512, 2.052, -3.0152671
0.2422059, 0.0052033, 2.05875, 0.0168457, 2.05875, -1.0016479, 2.05875, -0.1695557, 2.05875, 0.8931298, 2.05875, 0.7099237, 2.05875, -3.1374047
0.243, -0.0005035, 2.0655, 0.0131836, 2.0655, -1.0061035, 2.0655, -0.1695557, 2.0655, 0.8854962, 2.0655, 0.8396947, 2.0655, -3.0839694
0.2437941, -0.0028534, 2.07225, 0.0134888, 2.07225, -1.006897, 2.07225, -0.1679077, 2.07225, 0.9770992, 2.07225, 1.0152671, 2.07225, -3
0.2445882, -0.0052033, 2.079, 0.0093384, 2.079, -1.0053711, 2.079, -0.1679077, 2.079, 0.7175573, 2.079, 1.038168, 2.079, -3.0076337
0.2453824, -0.0135958, 2.08575, 0.010498, 2.08575, -1.0063477, 2.08575, -0.1658325, 2.08575, 0.7557252, 2.08575, 0.7328244, 2.08575, -2.9694657
0.2461765, -0.0135958, 2.0925, 0.008667, 2.0925, -1.00354, 2.0925, -0.1679688, 2.0925, 0.8549618, 2.0925, 0.6183206, 2.0925, -3.2366412
0.2469706, -0.0171206, 2.09925, 0.0078125, 2.09925, -1.0042114, 2.09925, -0.1665039, 2.09925, 0.6412213, 2.09925, 0.5343512, 2.09925, -3.1221373
0.2477647, -0.0236667, 2.106, 0.0098877, 2.106, -1.0009766, 2.106, -0.1674805, 2.106, 0.5648855, 2.106, 0.389313, 2.106, -3.1374047
0.2485588, -0.0213169, 2.11275, 0.0140381, 2.11275, -1.0057983, 2.11275, -0.1690063, 2.11275, 0.5114504, 2.11275, 0.4656489, 2.11275, -3.1450381
0.2493529, -0.0186313, 2.1195, 0.0153198, 2.1195, -1.0028687, 2.1195, -0.1714478, 2.1195, 0.5267175, 2.1195, 0.5801527, 2.1195, -3.1984732
0.2501471, -0.0236667, 2.12625, 0.0139771, 2.12625, -1.0037842, 2.12625, -0.1721191, 2.12625, 0.6335878, 2.12625, 0.961832, 2.12625, -3.1374047
0.2509412, -0.0176242, 2.133, 0.0092773, 2.133, -1.003479, 2.133, -0.171875, 2.133, 0.5114504, 2.133, 1.351145, 2.133, -3.0992367
0.2517353, -0.0120851, 2.13975, 0.0097656, 2.13975, -1.0037231, 2.13975, -0.1710205, 2.13975, 0.5648855, 2.13975, 1.3129771, 2.13975, -3.091603
0.2525294, -0.0058747, 2.1465, 0.0097656, 2.1465, -1.0064697, 2.1465, -0.1704712, 2.1465, 0.6030535, 2.1465, 1.2824427, 2.1465, -2.7862597
0.2533235, -0.002182, 2.15325, 0.0093994, 2.15325, -1.0083008, 2.15325, -0.1742554, 2.15325, 0.8015267, 2.15325, 1.1374046, 2.15325, -2.961832
0.2541176, -0.0015106, 2.16, 0.0117798, 2.16, -1.0072021, 2.16, -0.1772461, 2.16, 0.6793893, 2.16, 1.0076336, 2.16, -3.0610688
0.2549118, -0.005539, 2.16675, 0.0150146, 2.16675, -1.0045776, 2.16675, -0.1763306, 2.16675, 0.8091603, 2.16675, 1.0610687, 2.16675, -3.0305343
0.2557059, -0.0041962, 2.1735, 0.0142212, 2.1735, -1.0022583, 2.1735, -0.1766357, 2.1735, 0.9312977, 2.1735, 1.0687023, 2.1735, -3.0992367
0.2565, -0.0025177, 2.18025, 0.0150146, 2.18025, -1.0020752, 2.18025, -0.178833, 2.18025, 0.9007633, 2.18025, 1.0534351, 2.18025, -2.908397
0.2572941, -0.0040284, 2.187, 0.0112915, 2.187, -1.0049438, 2.187, -0.1773071, 2.187, 1.0610687, 2.187, 1.2900764, 2.187, -2.8244274
0.2580882, -0.0065461, 2.19375, 0.0115967, 2.19375, -1.0012817, 2.19375, -0.1743774, 2.19375, 1.1603054, 2.19375, 1.1526718, 2.19375, -3.0152671
0.2588824, -0.008896, 2.2005, 0.0133057, 2.2005, -0.9989014, 2.2005, -0.1738892, 2.2005, 1.091603, 2.2005, 0.961832, 2.2005, -2.961832
0.2596765, -0.0109102, 2.20725, 0.0119629, 2.20725, -0.9997559, 2.20725, -0.1732788, 2.20725, 1.2442749, 2.20725, 1.129771, 2.20725, -3.0534351
0.2604706, -0.0142672, 2.214, 0.010376, 2.214, -1.0026855, 2.214, -0.1693726, 2.214, 1.2977099, 2.214, 1.0458015, 2.214, -2.9694657
0.2612647, -0.0172885, 2.22075, 0.0057983, 2.22075, -1.0040894, 2.22075, -0.1676025, 2.22075, 1.1984733, 2.22075, 0.7938932, 2.22075, -3.0687022
0.2620588, -0.0169528, 2.2275, 0.0054321, 2.2275, -1.0067749, 2.2275, -0.1677246, 2.2275, 1.2366412, 2.2275, 0.3206107, 2.2275, -3
0.2628529, -0.0172885, 2.23425, 0.0036011, 2.23425, -1.0050659, 2.23425, -0.1677856, 2.23425, 1.2366412, 2.23425, -0.2900763, 2.23425, -3.1145039
0.2636471, -0.0229953, 2.241, 0.0081177, 2.241, -1.0064087, 2.241, -0.1687012, 2.241, 1.1755725, 2.241, -0.610687, 2.241, -3.2519083
0.2644412, -0.0258488, 2.24775, 0.0098267, 2.24775, -1.0068359, 2.24775, -0.1703491, 2.24775, 1.259542, 2.24775, -0.9847328, 2.24775, -3.3358779
0.2652353, -0.0256809, 2.2545, 0.0102539, 2.2545, -1.0067749, 2.2545, -0.1702881, 2.2545, 1.1145039, 2.2545, -1.0687023, 2.2545, -3.2061069
0.2660294, -0.0224918, 2.26125, 0.0097046, 2.26125, -1.0045776, 2.26125, -0.1721191, 2.26125, 1.0839695, 2.26125, -1.3358779, 2.26125, -3.351145
0.2668235, -0.0219883, 2.268, 0.0106201, 2.268, -1.0033569, 2.268, -0.1694336, 2.268, 1.0152671, 2.268, -1.389313, 2.268, -3.5954199
0.2676176, -0.0263523, 2.27475, 0.0090332, 2.27475, -1.0047607, 2.27475, -0.1707153, 2.27475, 0.961832, 2.27475, -1.4885496, 2.27475, -3.5343511
0.2684118, -0.0218204, 2.2815, 0.0085449, 2.2815, -1.0025024, 2.2815, -0.1700439, 2.2815, 0.8778626, 2.2815, -1.5801526, 2.2815, -3.3664122
0.2692059, -0.0184634, 2.28825, 0.0068359, 2.28825, -1.0006104, 2.28825, -0.1697388, 2.28825, 0.9312977, 2.28825, -1.4045801, 2.28825, -3.4427481
0.27, -0.0146029, 2.295, 0.0122681, 2.295, -1.0008545, 2.295, -0.1702271, 2.295, 0.7633588, 2.295, -1.4732825, 2.295, -3.5343511
0.2707941, -0.0119173, 2.30175, 0.010498, 2.30175, -1.0031738, 2.30175, -0.1659546, 2.30175, 0.7938932, 2.30175, -1.519084, 2.30175, -3.5801528
0.2715882, -0.0099031, 2.3085, 0.0098267, 2.3085, -1.0029297, 2.3085, -0.1721191, 2.3085, 0.8396947, 2.3085, -1.5267175, 2.3085, -3.4961832
0.2723824, -0.0075532, 2.31525, 0.0075073, 2.31525, -1.0012207, 2.31525, -0.1708984, 2.31525, 0.7022901, 2.31525, -1.4961832, 2.31525, -3.5801528
0.2731765, -0.0052033, 2.322, 0.005127, 2.322, -1.0031738, 2.322, -0.1669922, 2.322, 0.480916, 2.322, -1.8854961, 2.322, -3.519084
0.2739706, -0.0095674, 2.32875, 0.0092163, 2.32875, -1.0043945, 2.32875, -0.1700439, 2.32875, 0.6259542, 2.32875, -2.0763359, 2.32875, -3.778626
0.2747647, -0.012253, 2.3355, 0.0092163, 2.3355, -1.006958, 2.3355, -0.1710815, 2.3355, 0.6030535, 2.3355, -2.4656489, 2.3355, -3.5648854
0.2755588, -0.0162814, 2.34225, 0.0131836, 2.34225, -1.005188, 2.34225, -0.170166, 2.34225, 0.5496183, 2.34225, -2.3969467, 2.34225, -3.648855
0.2763529, -0.0149386, 2.349, 0.0136108, 2.349, -1.0042725, 2.349, -0.1740723, 2.349, 0.6183206, 2.349, -2.2442749, 2.349, -3.648855
0.2771471, -0.0218204, 2.35575, 0.0097046, 2.35575, -1.0021973, 2.35575, -0.1723022, 2.35575, 0.5114504, 2.35575, -2.0076337, 2.35575, -3.7251909
0.2779412, -0.0260166, 2.3625, 0.0117798, 2.3625, -1.0041504, 2.3625, -0.1702881, 2.3625, 0.4885496, 2.3625, -2.2290077, 2.3625, -3.5648854
0.2787353, -0.0209812, 2.36925, 0.0136719, 2.36925, -1.0064697, 2.36925, -0.1741333, 2.36925, 0.7251908, 2.36925, -2.221374, 2.36925, -3.5801528
0.2795294, -0.0199741, 2.376, 0.0171509, 2.376, -1.003479, 2.376, -0.175293, 2.376, 0.5725191, 2.376, -2.129771, 2.376, -3.5496182
0.2803235, -0.026688, 2.38275, 0.0177612, 2.38275, -1.0054932, 2.38275, -0.1712036, 2.38275, 0.7862595, 2.38275, -1.5343511, 2.38275, -3.5343511
0.2811176, -0.024506, 2.3895, 0.0164185, 2.3895, -1.0053711, 2.3895, -0.1738281, 2.3895, 0.8625954, 2.3895, -1.3435115, 2.3895, -3.5038168
0.2819118, -0.0240024, 2.39625, 0.0113525, 2.39625, -1.0036011, 2.39625, -0.1751709, 2.39625, 0.8625954, 2.39625, -0.7633588, 2.39625, -3.5343511
0.2827059, -0.0179599, 2.403, 0.0098267, 2.403, -1.0015869, 2.403, -0.1755371, 2.403, 0.7938932, 2.403, -0.6412213, 2.403, -3.389313
0.2835, -0.0140993, 2.40975, 0.0084229, 2.40975, -1.0047607, 2.40975, -0.1732178, 2.40975, 0.8625954, 2.40975, -0.8854962, 2.40975, -3.6717558
0.2842941, -0.0137636, 2.4165, 0.0041504, 2.4165, -1.0056152, 2.4165, -0.1705933, 2.4165, 0.9236641, 2.4165, -1.091603, 2.4165, -3.5725191
0.2850882, -0.0135958, 2.42325, 0.0078735, 2.42325, -1.0063477, 2.42325, -0.1702271, 2.42325, 0.8473282, 2.42325, -1.4961832, 2.42325, -3.5419848
0.2858824, -0.0092317, 2.43, 0.0109863, 2.43, -1.0088501, 2.43, -0.1740723, 2.43, 0.8854962, 2.43, -1.6793894, 2.43, -3.7022901
0.2866765, -0.0068818, 2.43675, 0.0133667, 2.43675, -1.0075073, 2.43675, -0.1703491, 2.43675, 1.0076336, 2.43675, -1.4732825, 2.43675, -3.519084
0.2874706, -0.0038605, 2.4435, 0.0101929, 2.4435, -1.0087891, 2.4435, -0.1708984, 2.4435, 0.9770992, 2.4435, -1.5038168, 2.4435, -3.5954199
0.2882647, -0.0048676, 2.45025, 0.0095215, 2.45025, -1.0064697, 2.45025, -0.1702881, 2.45025, 0.8396947, 2.45025, -1.5648855, 2.45025, -3.5877862
0.2890588, -0.0041962, 2.457, 0.0122681, 2.457, -1.0067139, 2.457, -0.1705933, 2.457, 0.6412213, 2.457, -1.6641221, 2.457, -3.5267177
0.2898529, 0.0015106, 2.46375, 0.0133057, 2.46375, -1.0050659, 2.46375, -0.1712646, 2.46375, 0.8244275, 2.46375, -1.5496184, 2.46375, -3.480916
0.2906471, -0.0025177, 2.4705, 0.0131226, 2.4705, -1.0056763, 2.4705, -0.1706543, 2.4705, 0.8473282, 2.4705, -1.7938931, 2.4705, -3.7480917
0.2914412, -0.003357, 2.47725, 0.0126343, 2.47725, -1.0033569, 2.47725, -0.1704102, 2.47725, 0.6946565, 2.47725, -2.038168, 2.47725, -3.740458
0.2922353, -0.005539, 2.484, 0.0106201, 2.484, -1.0062866, 2.484, -0.1690063, 2.484, 0.778626, 2.484, -2.1450381, 2.484, -3.6870229
0.2930294, -0.011078, 2.49075, 0.0113525, 2.49075, -1.0065918, 2.49075, -0.1714478, 2.49075, 0.6030535, 2.49075, -1.8396946, 2.49075, -3.6717558
0.2938235, -0.0135958, 2.4975, 0.0062866, 2.4975, -1.0108032, 2.4975, -0.1688232, 2.4975, 0.6946565, 2.4975, -2.0458016, 2.4975, -3.7251909
0.2946176, -0.0152743, 2.50425, 0.0047607, 2.50425, -1.0083618, 2.50425, -0.171875, 2.50425, 0.4427481, 2.50425, -2.3816793, 2.50425, -3.9312978
0.2954118, -0.0203098, 2.511, 0.0046997, 2.511, -1.0053711, 2.511, -0.1671753, 2.511, 0.3358779, 2.511, -2.7022901, 2.511, -3.9770992
0.2962059, -0.0224918, 2.51775, 0.0119629, 2.51775, -1.0078125, 2.51775, -0.1764526, 2.51775, 0.4656489, 2.51775, -2.6030533, 2.51775, -4.1221375
0.297, -0.0240024, 2.5245, 0.0130615, 2.5245, -1.0001831, 2.5245, -0.1690063, 2.5245, 0.2671756, 2.5245, -2.129771, 2.5245, -4.0687022
0.2977941, -0.030045, 2.53125, 0.008606, 2.53125, -1, 2.53125, -0.1654053, 2.53125, 0.2748092, 2.53125, -1.8320611, 2.53125, -4.1832061
0.2985882, -0.0285344, 2.538, 0.0032349, 2.538, -1.0009155, 2.538, -0.1642456, 2.538, 0.0305344, 2.538, -2.1450381, 2.538, -4.0076337
0.2993824, -0.026688, 2.54475, 0.0019531, 2.54475, -1.0021973, 2.54475, -0.1643066, 2.54475, 0.0610687, 2.54475, -2.221374, 2.54475, -4.2519083
0.3001765, -0.0223239, 2.5515, 0.003479, 2.5515, -1.0031128, 2.5515, -0.1663208, 2.5515, -0.1068702, 2.5515, -2.3816793, 2.5515, -4.2748094
0.3009706, -0.0218204, 2.55825, 0.0090332, 2.55825, -1.0053101, 2.55825, -0.1615601, 2.55825, -0.2824427, 2.55825, -2.6564887, 2.55825, -4.5267177
0.3017647, -0.0203098, 2.565, 0.0168457, 2.565, -1.0072021, 2.565, -0.1661987, 2.565, -0.4274809, 2.565, -2.6946564, 2.565, -4.4122138
0.3025588, -0.0179599, 2.57175, 0.0193481, 2.57175, -1.0089722, 2.57175, -0.168457, 2.57175, -0.4961832, 2.57175, -2.5877862, 2.57175, -4.3282442
0.3033529, -0.0109102, 2.5785, 0.0189209, 2.5785, -1.0090942, 2.5785, -0.1708984, 2.5785, -0.5801527, 2.5785, -1.9770992, 2.5785, -4.3511453
0.3041471, -0.0062104, 2.58525, 0.0153809, 2.58525, -1.0045776, 2.58525, -0.1698608, 2.58525, -0.610687, 2.58525, -1.6030535, 2.58525, -4.5954199
0.3049412, -0.0068818, 2.592, 0.0127563, 2.592, -1.003418, 2.592, -0.1738281, 2.592, -0.8473282, 2.592, -1.5267175, 2.592, -4.5419846
0.3057353, -0.0082246, 2.59875, 0.0102539, 2.59875, -1.0015869, 2.59875, -0.1734009, 2.59875, -0.778626, 2.59875, -1.1068702, 2.59875, -4.4732823
0.3065294, -0.008896, 2.6055, 0.0087891, 2.6055, -1.0037842, 2.6055, -0.1727905, 2.6055, -0.7938932, 2.6055, -1.038168, 2.6055, -4.5572519
0.3073235, -0.0085603, 2.61225, 0.0059204, 2.61225, -1.0018921, 2.61225, -0.1734619, 2.61225, -0.5954198, 2.61225, -0.6793893, 2.61225, -4.5954199
0.3081176, -0.0011749, 2.619, 0.006958, 2.619, -1.0029907, 2.619, -0.177063, 2.619, -0.6030535, 2.619, -0.5801527, 2.619, -4.5496182
0.3089118, -0.002182, 2.62575, 0.0091553, 2.62575, -1.0015869, 2.62575, -0.1792603, 2.62575, -0.7328244, 2.62575, -0.1603053, 2.62575, -4.6946564
0.3097059, -0.0078889, 2.6325, 0.0041504, 2.6325, -1.0083618, 2.6325, -0.1796875, 2.6325, -0.5419847, 2.6325, 0.3587786, 2.6325, -4.7709923
0.3105, -0.0095674, 2.63925, 0.0032349, 2.63925, -1.010498, 2.63925, -0.1801758, 2.63925, -0.5954198, 2.63925, 0.8778626, 2.63925, -4.9312978
0.3112941, -0.0124208, 2.646, 0.0063477, 2.646, -1.0111084, 2.646, -0.1813354, 2.646, -0.5572519, 2.646, 1.0610687, 2.646, -4.9007635
0.3120882, -0.0157778, 2.65275, 0.0103149, 2.65275, -1.0111084, 2.65275, -0.1818237, 2.65275, -0.5038168, 2.65275, 1.3435115, 2.65275, -4.9007635
0.3128824, -0.0213169, 2.6595, 0.0150757, 2.6595, -1.0106201, 2.6595, -0.178833, 2.6595, -0.4198473, 2.6595, 1.8473282, 2.6595, -4.961832
0.3136765, -0.0223239, 2.66625, 0.017395, 2.66625, -1.0116577, 2.66625, -0.1806641, 2.66625, -0.3664122, 2.66625, 2.4656489, 2.66625, -4.778626
0.3144706, -0.0273594, 2.673, 0.0193481, 2.673, -1.0078125, 2.673, -0.1808472, 2.673, -0.2519084, 2.673, 2.8473282, 2.673, -4.961832
0.3152647, -0.0261845, 2.67975, 0.0209351, 2.67975, -1.0056763, 2.67975, -0.1849365, 2.67975, -0.1755725, 2.67975, 3.2137403, 2.67975, -5.0687022
0.3160588, -0.0229953, 2.6865, 0.0168457, 2.6865, -1.0055542, 2.6865, -0.1821899, 2.6865, -0.259542, 2.6865, 3.3129771, 2.6865, -5.0534353
0.3168529, -0.0203098, 2.69325, 0.015686, 2.69325, -1.0046387, 2.69325, -0.1851807, 2.69325, -0.0687023, 2.69325, 3.8015268, 2.69325, -5.1755724
0.3176471, -0.0219883, 2.7, 0.012085, 2.7, -1.0048218, 2.7, -0.1836548, 2.7, -0.0152672, 2.7, 4, 2.7, -5.1450381
0.3184412, -0.0213169, 2.70675, 0.0087891, 2.70675, -1.0046387, 2.70675, -0.18573, 2.70675, 0.0152672, 2.70675, 4.2137403, 2.70675, -5.1755724
0.3192353, -0.0176242, 2.7135, 0.0058594, 2.7135, -1.0027466, 2.7135, -0.182312, 2.7135, 0.1679389, 2.7135, 4.0992365, 2.7135, -5.2671757
0.3200294, -0.0151064, 2.72025, 0.0102539, 2.72025, -0.9961548, 2.72025, -0.1854248, 2.72025, 0.2748092, 2.72025, 3.9389312, 2.72025, -5.1984735
0.3208235, -0.0142672, 2.727, 0.0126953, 2.727, -0.9908447, 2.727, -0.1835938, 2.727, 0.2671756, 2.727, 4.1145039, 2.727, -5.5038166
0.3216176, -0.0062104, 2.73375, 0.0119629, 2.73375, -0.9944458, 2.73375, -0.1848145, 2.73375, 0.5267175, 2.73375, 3.9465649, 2.73375, -5.5648856
0.3224118, -0.0046998, 2.7405, 0.0105591, 2.7405, -0.9954224, 2.7405, -0.182251, 2.7405, 0.5343512, 2.7405, 4.2824426, 2.7405, -5.5954199
0.3232059, -0.0035248, 2.74725, 0.0098877, 2.74725, -0.9978027, 2.74725, -0.1768799, 2.74725, 0.6259542, 2.74725, 4.4427481, 2.74725, -5.7175574
0.324, -0.0025177, 2.754, 0.0083008, 2.754, -1.0002441, 2.754, -0.1774292, 2.754, 0.5801527, 2.754, 4.3740458, 2.754, -5.778626
0.3247941, -0.0068818, 2.76075, 0.0067139, 2.76075, -1.0046387, 2.76075, -0.1765137, 2.76075, 0.610687, 2.76075, 4.3206105, 2.76075, -5.7251906
0.3255882, -0.0068818, 2.7675, 0.0103149, 2.7675, -1.0095825, 2.7675, -0.1713867, 2.7675, 0.4351145, 2.7675, 4.038168, 2.7675, -5.8091602
0.3263824, -0.0035248, 2.77425, 0.0079346, 2.77425, -1.0072632, 2.77425, -0.1674194, 2.77425, 0.389313, 2.77425, 4.1145039, 2.77425, -6.0152674
0.3271765, -0.0018463, 2.781, 0.0092773, 2.781, -1.0058594, 2.781, -0.166626, 2.781, 0.3206107, 2.781, 3.7862597, 2.781, -6.0687022
0.3279706, -0.0043641, 2.78775, 0.0101318, 2.78775, -1.0054321, 2.78775, -0.1638184, 2.78775, 0.2137405, 2.78775, 3.4732823, 2.78775, -6.0992365
0.3287647, -0.0115816, 2.7945, 0.012207, 2.7945, -1.0040894, 2.7945, -0.1657715, 2.7945, 0, 2.7945, 3.129771, 2.7945, -6.3282442
0.3295588, -0.0171206, 2.80125, 0.0113525, 2.80125, -1.0039673, 2.80125, -0.164917, 2.80125, -0.1984733, 2.80125, 2.3206108, 2.80125, -6.3587785
0.3303529, -0.0169528, 2.808, 0.0140381, 2.808, -1.0072632, 2.808, -0.1668091, 2.808, -0.2671756, 2.808, 2.038168, 2.808, -6.4580154
0.3311471, -0.0209812, 2.81475, 0.0141602, 2.81475, -1.0061646, 2.81475, -0.1678467, 2.81475, -0.4274809, 2.81475, 1.5419847, 2.81475, -6.6335878
0.3319412, -0.023331, 2.8215, 0.0144043, 2.8215, -1.0097046, 2.8215, -0.1719971, 2.8215, -0.6412213, 2.8215, 1.0610687, 2.8215, -6.8244276
0.3327353, -0.0243381, 2.82825, 0.0171509, 2.82825, -1.0100098, 2.82825, -0.1723022, 2.82825, -0.5954198, 2.82825, 0.2748092, 2.82825, -6.7862597
0.3335294, -0.0256809, 2.835, 0.0197144, 2.835, -1.0059204, 2.835, -0.1734009, 2.835, -0.7251908, 2.835, 0.1984733, 2.835, -6.7862597
0.3343235, -0.0243381, 2.84175, 0.0235596, 2.84175, -1.0048828, 2.84175, -0.1764526, 2.84175, -0.8091603, 2.84175, -0.0076336, 2.84175, -7.0458016
0.3351176, -0.0181277, 2.8485, 0.0297852, 2.8485, -1.0039062, 2.8485, -0.18396, 2.8485, -0.8091603, 2.8485, -0.3435115, 2.8485, -7.0763359
0.3359118, -0.01561, 2.85525, 0.0299683, 2.85525, -1.0011597, 2.85525, -0.1867676, 2.85525, -0.8473282, 2.85525, -0.1755725, 2.85525, -6.9160304
0.3367059, -0.0102388, 2.862, 0.0308228, 2.862, -1.0010376, 2.862, -0.1852417, 2.862, -0.8778626, 2.862, 0.1679389, 2.862, -6.9160304
0.3375, -0.0082246, 2.86875, 0.0231934, 2.86875, -1.0006104, 2.86875, -0.1872559, 2.86875, -0.7557252, 2.86875, 0.6030535, 2.86875, -6.9312978
0.3382941, -0.005539, 2.8755, 0.0214844, 2.8755, -1.0002441, 2.8755, -0.1867065, 2.8755, -0.8396947, 2.8755, 0.7328244, 2.8755, -7.1450381
0.3390882, -0.0048676, 2.88225, 0.0177612, 2.88225, -1.0025635, 2.88225, -0.1842651, 2.88225, -0.648855, 2.88225, 0.7709923, 2.88225, -6.9312978
0.3398824, -0.0046998, 2.889, 0.0198364, 2.889, -1.0031738, 2.889, -0.1824951, 2.889, -0.6870229, 2.889, 0.3206107, 2.889, -6.9847326
0.3406765, -0.0099031, 2.89575, 0.020813, 2.89575, -1.0013428, 2.89575, -0.1804199, 2.89575, -0.4656489, 2.89575, 0.1526718, 2.89575, -7.0458016
0.3414706, -0.0099031, 2.9025, 0.026001, 2.9025, -1.0022583, 2.9025, -0.1819458, 2.9025, -0.5954198, 2.9025, 0.2519084, 2.9025, -7.038168
0.3422647, -0.0115816, 2.90925, 0.0265503, 2.90925, -1, 2.90925, -0.1787109, 2.90925, -0.4274809, 2.90925, 0.1603053, 2.90925, -6.961832
0.3430588, -0.0146029, 2.916, 0.0280151, 2.916, -1.0007324, 2.916, -0.180481, 2.916, -0.6870229, 2.916, -0.0916031, 2.916, -7.0229006
0.3438529, -0.0115816, 2.92275, 0.0317993, 2.92275, -1.0041504, 2.92275, -0.1790161, 2.92275, -0.7633588, 2.92275, -0.2748092, 2.92275, -7.0305343
0.3446471, -0.0125887, 2.9295, 0.0325928, 2.9295, -1.0046997, 2.9295, -0.1776123, 2.9295, -0.7633588, 2.9295, -0.3282443, 2.9295, -7.0687022
0.3454412, -0.0203098, 2.93625, 0.0335083, 2.93625, -1.0060425, 2.93625, -0.1760864, 2.93625, -0.8473282, 2.93625, -0.4427481, 2.93625, -6.9541984
0.3462353, -0.0216526, 2.943, 0.0338745, 2.943, -1.0032959, 2.943, -0.1744385, 2.943, -1.0458015, 2.943, -0.5954198, 2.943, -7.0152674
0.3470294, -0.0194705, 2.94975, 0.0354004, 2.94975, -1.0025024, 2.94975, -0.1796265, 2.94975, -1.038168, 2.94975, -1.1374046, 2.94975, -7.0916033
0.3478235, -0.0229953, 2.9565, 0.0388794, 2.9565, -1.0024414, 2.9565, -0.1835327, 2.9565, -1.0458015, 2.9565, -1.2137405, 2.9565, -6.8549619
0.3486176, -0.0280308, 2.96325, 0.0361938, 2.96325, -0.998291, 2.96325, -0.1845703, 2.96325, -0.9541985, 2.96325, -1.0305344, 2.96325, -7.0305343
0.3494118, -0.0283665, 2.97, 0.0378418, 2.97, -1.0002441, 2.97, -0.1868896, 2.97, -1.2366412, 2.97, -1.1603054, 2.97, -6.8702292
0.3502059, -0.0256809, 2.97675, 0.0352783, 2.97675, -1.0014038, 2.97675, -0.1914673, 2.97675, -1.0534351, 2.97675, -0.8396947, 2.97675, -6.8549619
0.351, -0.0236667, 2.9835, 0.0360107, 2.9835, -1.0025635, 2.9835, -0.1921997, 2.9835, -0.9923664, 2.9835, -0.6259542, 2.9835, -6.6183205
0.3517941, -0.0243381, 2.99025, 0.0350952, 2.99025, -1.0030518, 2.99025, -0.1973877, 2.99025, -0.740458, 2.99025, -0.3969466, 2.99025, -6.6717558
0.3525882, -0.0209812, 2.997, 0.0363159, 2.997, -0.9995117, 2.997, -0.1954346, 2.997, -0.778626, 2.997, -0.3587786, 2.997, -6.5877862
0.3533824, -0.0184634, 3.00375, 0.0407104, 3.00375, -0.996521, 3.00375, -0.1997681, 3.00375, -0.5114504, 3.00375, 0.0763359, 3.00375, -6.3740458
0.3541765, -0.0152743, 3.0105, 0.0413818, 3.0105, -0.9978027, 3.0105, -0.199585, 3.0105, -0.4885496, 3.0105, 0.5572519, 3.0105, -6.221374
0.3549706, -0.0102388, 3.01725, 0.0431519, 3.01725, -1.0043945, 3.01725, -0.1959229, 3.01725, -0.2290076, 3.01725, 1.1450381, 3.01725, -6.3358779
0.3557647, -0.0072175, 3.024, 0.0393066, 3.024, -1.0050049, 3.024, -0.1963501, 3.024, 0.0992366, 3.024, 1.3435115, 3.024, -6.2366414
0.3565588, -0.0041962, 3.03075, 0.0423584, 3.03075, -1.0031738, 3.03075, -0.1973267, 3.03075, 0.0763359, 3.03075, 1.3282443, 3.03075, -6.0992365
0.3573529, -0.0063783, 3.0375, 0.0424805, 3.0375, -1.0031738, 3.0375, -0.1937256, 3.0375, 0.3206107, 3.0375, 1.1908396, 3.0375, -5.9923663
0.3581471, -0.0045319, 3.04425, 0.0430298, 3.04425, -1.0044556, 3.04425, -0.1949463, 3.04425, 0.4885496, 3.04425, 1.0610687, 3.04425, -5.7099237
0.3589412, -0.005539, 3.051, 0.0435791, 3.051, -1.0050049, 3.051, -0.194397, 3.051, 0.5801527, 3.051, 0.8320611, 3.051, -5.8625956
0.3597353, -0.0058747, 3.05775, 0.0411987, 3.05775, -1.0036621, 3.05775, -0.1932373, 3.05775, 0.4961832, 3.05775, 0.6030535, 3.05775, -5.9847326
0.3605294, -0.0099031, 3.0645, 0.0418091, 3.0645, -1.0015259, 3.0645, -0.1912231, 3.0645, 0.610687, 3.0645, 0.5038168, 3.0645, -5.8015265
0.3613235, -0.0196384, 3.07125, 0.041626, 3.07125, -0.9997559, 3.07125, -0.1901855, 3.07125, 0.6412213, 3.07125, 0.3053435, 3.07125, -5.7328243
0.3621176, -0.0203098, 3.078, 0.0447998, 3.078, -0.9987183, 3.078, -0.1873779, 3.078, 0.7557252, 3.078, 0.0687023, 3.078, -5.740458
0.3629118, -0.0213169, 3.08475, 0.0431519, 3.08475, -0.9962769, 3.08475, -0.1881714, 3.08475, 0.8549618, 3.08475, -0.1374046, 3.08475, -5.7175574
0.3637059, -0.0303807, 3.0915, 0.0432739, 3.0915, -0.9985352, 3.0915, -0.1867065, 3.0915, 0.7862595, 3.0915, -0.2290076, 3.0915, -5.6259542
0.3645, -0.0283665, 3.09825, 0.0396729, 3.09825, -1.0014038, 3.09825, -0.1867065, 3.09825, 0.7557252, 3.09825, 0.0076336, 3.09825, -5.5801525
0.3652941, -0.0250095, 3.105, 0.0372314, 3.105, -0.9995117, 3.105, -0.1870728, 3.105, 0.7099237, 3.105, -0.0687023, 3.105, -5.5496182
0.3660882, -0.0229953, 3.11175, 0.0400391, 3.11175, -1.0011597, 3.11175, -0.189209, 3.11175, 0.7022901, 3.11175, -0.221374, 3.11175, -5.7862597
0.3668824, -0.0182956, 3.1185, 0.0471802, 3.1185, -1.0073853, 3.1185, -0.1888428, 3.1185, 0.7709923, 3.1185, -0.1908397, 3.1185, -5.3893127
0.3676765, -0.0149386, 3.12525, 0.0454102, 3.12525, -1.0066528, 3.12525, -0.1899414, 3.12525, 0.740458, 3.12525, -0.0534351, 3.12525, -5.2900763
0.3684706, -0.0115816, 3.132, 0.0467529, 3.132, -1.0028687, 3.132, -0.1904907, 3.132, 0.5343512, 3.132, 0.1450382, 3.132, -5.3587785
0.3692647, -0.0095674, 3.13875, 0.0431519, 3.13875, -0.9986572, 3.13875, -0.1884155, 3.13875, 0.7633588, 3.13875, 0.3206107, 3.13875, -5.2290077
0.3700588, -0.0095674, 3.1455, 0.0423584, 3.1455, -1.001709, 3.1455, -0.1878052, 3.1455, 0.8549618, 3.1455, 0.3282443, 3.1455, -5.2519083
0.3708529, -0.0078889, 3.15225, 0.0427856, 3.15225, -1.0014648, 3.15225, -0.1887207, 3.15225, 1, 3.15225, 0.3358779, 3.15225, -5.2061067
0.3716471, -0.0035248, 3.159, 0.0443115, 3.159, -1.0009155, 3.159, -0.1890259, 3.159, 0.7480916, 3.159, 0.3740458, 3.159, -5.1221375
0.3724412, -0.002182, 3.16575, 0.0424805, 3.16575, -0.9978638, 3.16575, -0.1880493, 3.16575, 0.7022901, 3.16575, 0.3587786, 3.16575, -5.0763359
0.3732353, -0.0015106, 3.1725, 0.0422974, 3.1725, -0.9960327, 3.1725, -0.185791, 3.1725, 0.6564885, 3.1725, 0.4656489, 3.1725, -5.0763359
0.3740294, 0.0001678, 3.17925, 0.0408936, 3.17925, -1.000061, 3.17925, -0.1841431, 3.17925, 0.5801527, 3.17925, 0.2748092, 3.17925, -4.8778625
0.3748235, -0.0015106, 3.186, 0.0444336, 3.186, -1.0006104, 3.186, -0.1820068, 3.186, 0.5648855, 3.186, 0.2977099, 3.186, -5.0229006
0.3756176, -0.0058747, 3.19275, 0.0426636, 3.19275, -0.9987793, 3.19275, -0.1842041, 3.19275, 0.4045801, 3.19275, 0.1984733, 3.19275, -5.0916033
0.3764118, -0.0073854, 3.1995, 0.0424805, 3.1995, -0.9987183, 3.1995, -0.1845093, 3.1995, 0.2366412, 3.1995, 0.3740458, 3.1995, -5.038168
0.3772059, -0.0082246, 3.20625, 0.039917, 3.20625, -1.0001831, 3.20625, -0.1853638, 3.20625, 0.2366412, 3.20625, 0.259542, 3.20625, -4.8473282
0.378, -0.018967, 3.213, 0.041626, 3.213, -1.0014648, 3.213, -0.1877441, 3.213, 0.2519084, 3.213, 0.259542, 3.213, -4.8396945
0.3787941, -0.0219883, 3.21975, 0.0388184, 3.21975, -0.998291, 3.21975, -0.1865845, 3.21975, 0.1526718, 3.21975, 0.4351145, 3.21975, -4.961832
0.3795882, -0.0213169, 3.2265, 0.0400391, 3.2265, -0.9945068, 3.2265, -0.1878662, 3.2265, 0.0076336, 3.2265, 0.519084, 3.2265, -4.8702292
0.3803824, -0.0263523, 3.23325, 0.0376587, 3.23325, -0.9977417, 3.23325, -0.1871948, 3.23325, -0.0839695, 3.23325, 0.4045801, 3.23325, -4.8091602
0.3811765, -0.0209812, 3.24, 0.0409546, 3.24, -0.9979858, 3.24, -0.1859131, 3.24, -0.129771, 3.24, 0.2977099, 3.24, -4.8244276
0.3819706, -0.01561, 3.24675, 0.0443726, 3.24675, -0.9974365, 3.24675, -0.1863403, 3.24675, -0.1832061, 3.24675, 0.3129771, 3.24675, -4.7557254
0.3827647, -0.0176242, 3.2535, 0.0429077, 3.2535, -0.9971924, 3.2535, -0.1887207, 3.2535, -0.0076336, 3.2535, 0.4198473, 3.2535, -4.7251906
0.3835588, -0.0179599, 3.26025, 0.0444336, 3.26025, -0.9987183, 3.26025, -0.1865845, 3.26025, -0.0839695, 3.26025, 0.4885496, 3.26025, -4.5725193
0.3843529, -0.0172885, 3.267, 0.0444336, 3.267, -1.0027466, 3.267, -0.1881714, 3.267, -0.3053435, 3.267, 0.7862595, 3.267, -4.6870227
0.3851471, -0.0204776, 3.27375, 0.0438843, 3.27375, -1.0037231, 3.27375, -0.1917725, 3.27375, -0.2290076, 3.27375, 0.7709923, 3.27375, -4.6793895
0.3859412, -0.0159457, 3.2805, 0.043335, 3.2805, -1.0083618, 3.2805, -0.1887207, 3.2805, -0.0916031, 3.2805, 0.8167939, 3.2805, -4.6870227
0.3867353, -0.0095674, 3.28725, 0.0424805, 3.28725, -1.0023804, 3.28725, -0.1895752, 3.28725, -0.3206107, 3.28725, 0.870229, 3.28725, -4.7328243
0.3875294, -0.0078889, 3.294, 0.0447998, 3.294, -1.0009155, 3.294, -0.1871338, 3.294, -0.389313, 3.294, 1.1068702, 3.294, -4.6946564
0.3883235, -0.0050355, 3.30075, 0.0471802, 3.30075, -0.9938354, 3.30075, -0.1898804, 3.30075, -0.3435115, 3.30075, 0.9770992, 3.30075, -4.8091602
0.3891176, -0.0028534, 3.3075, 0.0457153, 3.3075, -0.9945068, 3.3075, -0.1914062, 3.3075, -0.2900763, 3.3075, 0.9541985, 3.3075, -4.7251906
0.3899118, -0.0035248, 3.31425, 0.0446777, 3.31425, -0.9966431, 3.31425, -0.1915283, 3.31425, -0.2824427, 3.31425, 1.1450381, 3.31425, -4.7328243
0.3907059, -0.0041962, 3.321, 0.0457764, 3.321, -1.0004883, 3.321, -0.1903687, 3.321, -0.3358779, 3.321, 1.2519084, 3.321, -4.5725193
0.3915, -0.0109102, 3.32775, 0.0449219, 3.32775, -1.0024414, 3.32775, -0.1911011, 3.32775, -0.3587786, 3.32775, 1.4427481, 3.32775, -4.7022901
0.3922941, -0.0115816, 3.3345, 0.0480957, 3.3345, -1.0053101, 3.3345, -0.1936646, 3.3345, -0.4045801, 3.3345, 1.2061069, 3.3345, -4.5954199
0.3930882, -0.0129244, 3.34125, 0.0462036, 3.34125, -1.0077515, 3.34125, -0.1945801, 3.34125, -0.2671756, 3.34125, 1.0763359, 3.34125, -4.4732823
0.3938824, -0.0149386, 3.348, 0.043396, 3.348, -1.0090942, 3.348, -0.1946411, 3.348, -0.1603053, 3.348, 0.9465649, 3.348, -4.4351144
0.3946765, -0.0152743, 3.35475, 0.0504761, 3.35475, -1.0078735, 3.35475, -0.1956787, 3.35475, -0.129771, 3.35475, 0.9236641, 3.35475, -4.5343513
0.3954706, -0.0229953, 3.3615, 0.050415, 3.3615, -1.003479, 3.3615, -0.1945801, 3.3615, -0.1450382, 3.3615, 1.0458015, 3.3615, -4.4732823
0.3962647, -0.023331, 3.36825, 0.0508423, 3.36825, -1.0039062, 3.36825, -0.189209, 3.36825, -0.0763359, 3.36825, 1.0610687, 3.36825, -4.3816795
0.3970588, -0.0204776, 3.375, 0.0505981, 3.375, -0.9960938, 3.375, -0.1900635, 3.375, -0.1145038, 3.375, 1.2366412, 3.375, -4.3511453
0.3978529, -0.0221561, 3.38175, 0.0447388, 3.38175, -0.9952393, 3.38175, -0.187439, 3.38175, -0.1832061, 3.38175, 0.961832, 3.38175, -4.3435116
0.3986471, -0.0253452, 3.3885, 0.0453491, 3.3885, -0.9942017, 3.3885, -0.1879272, 3.3885, -0.3435115, 3.3885, 0.7862595, 3.3885, -4.3969464
0.3994412, -0.024506, 3.39525, 0.0462646, 3.39525, -0.9932251, 3.39525, -0.1895752, 3.39525, -0.3206107, 3.39525, 0.5267175, 3.39525, -4.3893127
0.4002353, -0.024506, 3.402, 0.0479126, 3.402, -0.9967651, 3.402, -0.1882324, 3.402, -0.610687, 3.402, 0.2900763, 3.402, -4.3129773
0.4010294, -0.0236667, 3.40875, 0.0463257, 3.40875, -0.9971924, 3.40875, -0.1884766, 3.40875, -0.5572519, 3.40875, 0.2061069, 3.40875, -4.3893127
0.4018235, -0.0263523, 3.4155, 0.048584, 3.4155, -0.99823, 3.4155, -0.1881714, 3.4155, -0.8167939, 3.4155, 0.2900763, 3.4155, -4.1450381
0.4026176, -0.0263523, 3.42225, 0.0490112, 3.42225, -1, 3.42225, -0.1901245, 3.42225, -0.7557252, 3.42225, 0.259542, 3.42225, -4.0458016
0.4034118, -0.023331, 3.429, 0.0524292, 3.429, -1.0001221, 3.429, -0.1917114, 3.429, -0.7099237, 3.429, 0.3969466, 3.429, -3.9847329
0.4042059, -0.0135958, 3.43575, 0.0528564, 3.43575, -1.0029907, 3.43575, -0.1993408, 3.43575, -0.7328244, 3.43575, 0.2519084, 3.43575, -3.8320611
0.405, -0.0082246, 3.4425, 0.0546875, 3.4425, -1.005188, 3.4425, -0.1985474, 3.4425, -0.6335878, 3.4425, 0.6335878, 3.4425, -3.7938931
0.4057941, -0.0028534, 3.44925, 0.0558472, 3.44925, -1.0018921, 3.44925, -0.1963501, 3.44925, -0.6564885, 3.44925, 0.8931298, 3.44925, -3.6335878
0.4065882, 0.0016785, 3.456, 0.0527344, 3.456, -1.0040894, 3.456, -0.2000122, 3.456, -0.740458, 3.456, 1.1068702, 3.456, -3.4580152
0.4073824, 0.0008392, 3.46275, 0.0527344, 3.46275, -1.0032959, 3.46275, -0.2029419, 3.46275, -0.7480916, 3.46275, 1.1908396, 3.46275, -3.2519083
0.4081765, 0.0030213, 3.4695, 0.0566406, 3.4695, -1.0031128, 3.4695, -0.2028198, 3.4695, -0.519084, 3.4695, 1.0839695, 3.4695, -3.4198472
0.4089706, 0.0005035, 3.47625, 0.0545044, 3.47625, -1.0026245, 3.47625, -0.203064, 3.47625, -0.3969466, 3.47625, 1.1526718, 3.47625, -3.2824428
0.4097647, -0.0028534, 3.483, 0.0527954, 3.483, -1.0071411, 3.483, -0.2055054, 3.483, -0.2519084, 3.483, 1.1603054, 3.483, -3.2442749
0.4105588, -0.008896, 3.48975, 0.0570679, 3.48975, -1.006958, 3.48975, -0.2035522, 3.48975, -0.129771, 3.48975, 1.5038168, 3.48975, -3.2290077
0.4113529, -0.0078889, 3.4965, 0.0548096, 3.4965, -1.0036621, 3.4965, -0.2088623, 3.4965, 0.0076336, 3.4965, 1.9847329, 3.4965, -2.9541984
0.4121471, -0.0099031, 3.50325, 0.055481, 3.50325, -1.0029297, 3.50325, -0.2084961, 3.50325, 0.2290076, 3.50325, 1.8625954, 3.50325, -2.8244274
0.4129412, -0.0182956, 3.51, 0.0529175, 3.51, -0.9996338, 3.51, -0.206543, 3.51, 0.2442748, 3.51, 1.8778626, 3.51, -2.8854961
0.4137353, -0.0196384, 3.51675, 0.0527344, 3.51675, -0.9998779, 3.51675, -0.2057495, 3.51675, 0.4885496, 3.51675, 2.0305343, 3.51675, -2.7099237
0.4145294, -0.0162814, 3.5235, 0.0527344, 3.5235, -1.0024414, 3.5235, -0.2056885, 3.5235, 0.6641222, 3.5235, 2.0763359, 3.5235, -2.7480917
0.4153235, -0.0223239, 3.53025, 0.0516357, 3.53025, -0.9992676, 3.53025, -0.2078247, 3.53025, 0.9007633, 3.53025, 2.1145039, 3.53025, -2.9770992
0.4161176, -0.0263523, 3.537, 0.0556641, 3.537, -0.9995117, 3.537, -0.2068481, 3.537, 0.9312977, 3.537, 2.0687022, 3.537, -2.7251909
0.4169118, -0.0250095, 3.54375, 0.053772, 3.54375, -1.0013428, 3.54375, -0.2044067, 3.54375, 1.1526718, 3.54375, 2.2290077, 3.54375, -2.6183207
0.4177059, -0.0250095, 3.5505, 0.0470581, 3.5505, -0.9970093, 3.5505, -0.2039795, 3.5505, 1.2824427, 3.5505, 2.1984732, 3.5505, -2.648855
0.4185, -0.0271916, 3.55725, 0.0470581, 3.55725, -0.9978027, 3.55725, -0.2042236, 3.55725, 1.1679389, 3.55725, 2.1832061, 3.55725, -2.610687
0.4192941, -0.0209812, 3.564, 0.0465088, 3.564, -0.9993286, 3.564, -0.2053833, 3.564, 1.5648855, 3.564, 2.221374, 3.564, -2.6030533
0.4200882, -0.0199741, 3.57075, 0.0476685, 3.57075, -0.9993286, 3.57075, -0.2032471, 3.57075, 1.6564885, 3.57075, 2.3816793, 3.57075, -2.7099237
0.4208824, -0.0179599, 3.5775, 0.0478516, 3.5775, -0.9984131, 3.5775, -0.2016602, 3.5775, 1.7557251, 3.5775, 2.2442749, 3.5775, -2.5954199
0.4216765, -0.0139315, 3.58425, 0.046814, 3.58425, -0.9992065, 3.58425, -0.2003784, 3.58425, 1.6793894, 3.58425, 2.6793892, 3.58425, -2.7709923
0.4224706, -0.0090639, 3.591, 0.0431519, 3.591, -1.0022583, 3.591, -0.1962891, 3.591, 1.8549619, 3.591, 2.5343511, 3.591, -2.5877862
0.4232647, -0.0041962, 3.59775, 0.0464478, 3.59775, -0.9984741, 3.59775, -0.1939697, 3.59775, 1.6870229, 3.59775, 2.8625953, 3.59775, -2.5648854
0.4240588, -0.0043641, 3.6045, 0.0432129, 3.6045, -0.9983521, 3.6045, -0.192749, 3.6045, 1.8778626, 3.6045, 2.7709923, 3.6045, -2.6412213
0.4248529, -0.0028534, 3.61125, 0.0423584, 3.61125, -0.9973755, 3.61125, -0.1934204, 3.61125, 2.0152671, 3.61125, 2.8244274, 3.61125, -2.5877862
0.4256471, -0.0062104, 3.618, 0.0452881, 3.618, -1.000061, 3.618, -0.1915283, 3.618, 1.870229, 3.618, 2.9312978, 3.618, -2.7099237
0.4264412, -0.0135958, 3.62475, 0.0458984, 3.62475, -0.9985352, 3.62475, -0.1913452, 3.62475, 1.8015267, 3.62475, 2.8167939, 3.62475, -2.6717558
0.4272353, -0.0149386, 3.6315, 0.0460205, 3.6315, -0.9986572, 3.6315, -0.1912231, 3.6315, 1.8091604, 3.6315, 2.778626, 3.6315, -2.6412213
0.4280294, -0.0176242, 3.63825, 0.0440063, 3.63825, -1.0032959, 3.63825, -0.1898804, 3.63825, 1.5877863, 3.63825, 2.6793892, 3.63825, -2.6564887
0.4288235, -0.023331, 3.645, 0.0391235, 3.645, -1.0057983, 3.645, -0.189209, 3.645, 1.6335878, 3.645, 2.3129771, 3.645, -2.7938931
0.4296176, -0.0240024, 3.65175, 0.0435181, 3.65175, -1.0057373, 3.65175, -0.1896362, 3.65175, 1.480916, 3.65175, 1.9541985, 3.65175, -2.8625953
0.4304118, -0.0243381, 3.6585, 0.0444946, 3.6585, -0.9985352, 3.6585, -0.1919556, 3.6585, 1.4961832, 3.6585, 2.0687022, 3.6585, -2.8854961
0.4312059, -0.0273594, 3.66525, 0.0421143, 3.66525, -1.0046997, 3.66525, -0.1905518, 3.66525, 1.519084, 3.66525, 1.961832, 3.66525, -2.9312978
0.432, -0.0293736, 3.672, 0.0420532, 3.672, -1.0029297, 3.672, -0.1907959, 3.672, 1.5343511, 3.672, 1.8091604, 3.672, -3
0.4327941, -0.026688, 3.67875, 0.0386963, 3.67875, -1.003479, 3.67875, -0.1930542, 3.67875, 1.480916, 3.67875, 1.6793894, 3.67875, -3.1603053
0.4335882, -0.0261845, 3.6855, 0.0387573, 3.6855, -0.9981689, 3.6855, -0.192688, 3.6855, 1.5114504, 3.6855, 1.6946565, 3.6855, -3.0229008
0.4343824, -0.0219883, 3.69225, 0.0415039, 3.69225, -1.0026855, 3.69225, -0.1956177, 3.69225, 1.4503816, 3.69225, 1.6412214, 3.69225, -3.1374047
0.4351765, -0.0196384, 3.699, 0.0404053, 3.699, -1.001709, 3.699, -0.190979, 3.699, 1.3740458, 3.699, 1.3740458, 3.699, -3.0687022
0.4359706, -0.0152743, 3.70575, 0.0368652, 3.70575, -1.0025635, 3.70575, -0.1922607, 3.70575, 1.351145, 3.70575, 1.1603054, 3.70575, -3.038168
0.4367647, -0.0139315, 3.7125, 0.036377, 3.7125, -1.0024414, 3.7125, -0.1936035, 3.7125, 1.5038168, 3.7125, 0.7938932, 3.7125, -3.2442749
0.4375588, -0.0119173, 3.71925, 0.0394897, 3.71925, -0.9991455, 3.71925, -0.1938477, 3.71925, 1.3129771, 3.71925, 0.480916, 3.71925, -3.3206108
0.4383529, -0.0035248, 3.726, 0.0400391, 3.726, -0.9980469, 3.726, -0.1951294, 3.726, 1.3969465, 3.726, 0.3664122, 3.726, -3.4885497
0.4391471, 0.0028534, 3.73275, 0.0406494, 3.73275, -1.0014038, 3.73275, -0.1902466, 3.73275, 1.3129771, 3.73275, -0.0687023, 3.73275, -3.5267177
0.4399412, 0.0028534, 3.7395, 0.0427856, 3.7395, -1.0025635, 3.7395, -0.190979, 3.7395, 1.3435115, 3.7395, -0.3969466, 3.7395, -3.5572519
0.4407353, 0.0063783, 3.74625, 0.043396, 3.74625, -1.0026245, 3.74625, -0.1898193, 3.74625, 1.351145, 3.74625, -0.5954198, 3.74625, -3.6259542
0.4415294, 0.0075532, 3.753, 0.0440674, 3.753, -1.0013428, 3.753, -0.1915894, 3.753, 1.3740458, 3.753, -0.778626, 3.753, -3.610687
0.4423235, -0.0005035, 3.75975, 0.0424194, 3.75975, -1.003418, 3.75975, -0.1938477, 3.75975, 1.2442749, 3.75975, -1.0076336, 3.75975, -3.8015268
0.4431176, -0.0015106, 3.7665, 0.0437622, 3.7665, -1.0007935, 3.7665, -0.1911011, 3.7665, 1.259542, 3.7665, -1.1908396, 3.7665, -3.7251909
0.4439118, -0.0052033, 3.77325, 0.0448608, 3.77325, -1.0022583, 3.77325, -0.1970215, 3.77325, 1.2290076, 3.77325, -1.0687023, 3.77325, -3.6259542
0.4447059, -0.0109102, 3.78, 0.0462036, 3.78, -1.0049438, 3.78, -0.1988525, 3.78, 1.259542, 3.78, -1.1068702, 3.78, -3.5419848
0.4455, -0.0149386, 3.78675, 0.0432129, 3.78675, -1.0023193, 3.78675, -0.1983032, 3.78675, 1.1908396, 3.78675, -0.8396947, 3.78675, -3.8320611
0.4462941, -0.0146029, 3.7935, 0.0447388, 3.7935, -1.0018921, 3.7935, -0.1982422, 3.7935, 1.2671756, 3.7935, -0.6717557, 3.7935, -3.610687
0.4470882, -0.0179599, 3.80025, 0.0462646, 3.80025, -1.0053101, 3.80025, -0.1992188, 3.80025, 1.5648855, 3.80025, -0.2977099, 3.80025, -3.6946564
0.4478824, -0.018967, 3.807, 0.0440063, 3.807, -1.0025024, 3.807, -0.1993408, 3.807, 1.4351145, 3.807, -0.129771, 3.807, -3.610687
0.4486765, -0.014435, 3.81375, 0.0440674, 3.81375, -1.0028687, 3.81375, -0.1995239, 3.81375, 1.5114504, 3.81375, 0.1526718, 3.81375, -3.7938931
0.4494706, -0.0203098, 3.8205, 0.0432739, 3.8205, -1.0036621, 3.8205, -0.1983032, 3.8205, 1.5801526, 3.8205, 0.3129771, 3.8205, -3.7709923
0.4502647, -0.0226596, 3.82725, 0.0458984, 3.82725, -1.0022583, 3.82725, -0.1957397, 3.82725, 1.5572519, 3.82725, 0.4732825, 3.82725, -3.8167939
0.4510588, -0.0213169, 3.834, 0.0455933, 3.834, -0.9996338, 3.834, -0.2008667, 3.834, 1.8244275, 3.834, 0.6259542, 3.834, -3.7938931
0.4518529, -0.0125887, 3.84075, 0.0452881, 3.84075, -0.9996338, 3.84075, -0.1975098, 3.84075, 1.7709924, 3.84075, 0.6030535, 3.84075, -3.9160306
0.4526471, -0.0149386, 3.8475, 0.046875, 3.8475, -0.9978638, 3.8475, -0.1997681, 3.8475, 1.7099236, 3.8475, 0.7709923, 3.8475, -3.7938931
0.4534412, -0.0099031, 3.85425, 0.0418091, 3.85425, -0.9977417, 3.85425, -0.1989746, 3.85425, 1.7099236, 3.85425, 0.9236641, 3.85425, -3.8167939
0.4542353, -0.0062104, 3.861, 0.043457, 3.861, -0.998291, 3.861, -0.1971436, 3.861, 1.8091604, 3.861, 1.0610687, 3.861, -3.7480917
0.4550294, 0.0008392, 3.86775, 0.0447998, 3.86775, -1.000061, 3.86775, -0.1980591, 3.86775, 1.8854961, 3.86775, 1.0687023, 3.86775, -3.8167939
0.4558235, -0.0028534, 3.8745, 0.0438232, 3.8745, -1.0004272, 3.8745, -0.1952515, 3.8745, 2, 3.8745, 1.0839695, 3.8745, -4
0.4566176, -0.0031891, 3.88125, 0.046875, 3.88125, -1.0028687, 3.88125, -0.1986084, 3.88125, 2.0534351, 3.88125, 1.1374046, 3.88125, -3.740458
0.4574118, -0.0038605, 3.888, 0.0458374, 3.888, -1.00177, 3.888, -0.1981812, 3.888, 2.0839694, 3.888, 1.2671756, 3.888, -3.908397
0.4582059, -0.0078889, 3.89475, 0.0483398, 3.89475, -1.0031738, 3.89475, -0.1984253, 3.89475, 2.1068702, 3.89475, 1.4961832, 3.89475, -3.9312978
0.459, -0.0099031, 3.9015, 0.0482788, 3.9015, -1.0015869, 3.9015, -0.1971436, 3.9015, 2.1526718, 3.9015, 1.5496184, 3.9015, -3.7633588
0.4597941, -0.0164492, 3.90825, 0.0480347, 3.90825, -1.0048828, 3.90825, -0.1954346, 3.90825, 2.1984732, 3.90825, 1.5343511, 3.90825, -3.9770992
0.4605882, -0.0182956, 3.915, 0.0490723, 3.915, -1.0031128, 3.915, -0.194519, 3.915, 2.038168, 3.915, 1.4274809, 3.915, -4.0305343
0.4613824, -0.0206455, 3.92175, 0.0477905, 3.92175, -1.0013428, 3.92175, -0.1956177, 3.92175, 2.1221373, 3.92175, 1.3587786, 3.92175, -3.9465649
0.4621765, -0.023331, 3.9285, 0.0469971, 3.9285, -1.0031128, 3.9285, -0.1925049, 3.9285, 2.3129771, 3.9285, 1.2671756, 3.9285, -3.9847329
0.4629706, -0.0280308, 3.93525, 0.0488281, 3.93525, -0.9998169, 3.93525, -0.1891479, 3.93525, 2.3053436, 3.93525, 1.1374046, 3.93525, -3.8931298
0.4637647, -0.0310521, 3.942, 0.0498047, 3.942, -0.9984741, 3.942, -0.1891479, 3.942, 2.2519083, 3.942, 0.9541985, 3.942, -3.9541984
0.4645588, -0.0307164, 3.94875, 0.0473633, 3.94875, -0.9993286, 3.94875, -0.1871948, 3.94875, 2.1679389, 3.94875, 0.8167939, 3.94875, -3.961832
0.4653529, -0.0303807, 3.9555, 0.048584, 3.9555, -1.0006104, 3.9555, -0.1883545, 3.9555, 2.1221373, 3.9555, 0.5725191, 3.9555, -3.9923663
0.4661471, -0.0283665, 3.96225, 0.0474854, 3.96225, -0.9995117, 3.96225, -0.1896973, 3.96225, 2.0763359, 3.96225, 0.7099237, 3.96225, -4.1145039
0.4669412, -0.0298772, 3.969, 0.0465698, 3.969, -1.0005493, 3.969, -0.1866455, 3.969, 1.9541985, 3.969, 0.480916, 3.969, -3.9847329
0.4677353, -0.0236667, 3.97575, 0.0483398, 3.97575, -1.0007324, 3.97575, -0.18927, 3.97575, 1.7709924, 3.97575, 0.5114504, 3.97575, -4
0.4685294, -0.0206455, 3.9825, 0.0497437, 3.9825, -1.0001831, 3.9825, -0.1884155, 3.9825, 1.8931298, 3.9825, 0.5343512, 3.9825, -4.0076337
0.4693235, -0.018967, 3.98925, 0.0460815, 3.98925, -1.0021973, 3.98925, -0.189209, 3.98925, 1.9160305, 3.98925, 0.5114504, 3.98925, -3.9312978
0.4701176, -0.0142672, 3.996, 0.0454102, 3.996, -1.0021362, 3.996, -0.1885376, 3.996, 1.778626, 3.996, 0.3282443, 3.996, -3.7862597
0.4709118, -0.0135958, 4.00275, 0.0462036, 4.00275, -1.0004272, 4.00275, -0.187561, 4.00275, 1.8091604, 4.00275, 0.1984733, 4.00275, -3.9236641
0.4717059, -0.0095674, 4.0095, 0.0462646, 4.0095, -1.0023804, 4.0095, -0.1879272, 4.0095, 1.778626, 4.0095, 0.0152672, 4.0095, -3.9465649
0.4725, -0.0063783, 4.01625, 0.046936, 4.01625, -1.0029297, 4.01625, -0.1900635, 4.01625, 1.6335878, 4.01625, 0.0763359, 4.01625, -3.9770992
0.4732941, -0.0011749, 4.023, 0.0465698, 4.023, -1.0015259, 4.023, -0.1899414, 4.023, 1.4656489, 4.023, 0.0305344, 4.023, -3.9923663
0.4740882, 0.0028534, 4.02975, 0.048584, 4.02975, -1.0007935, 4.02975, -0.1887817, 4.02975, 1.5572519, 4.02975, 0.1374046, 4.02975, -3.8854961
0.4748824, -0.0031891, 4.0365, 0.0496216, 4.0365, -1.0012817, 4.0365, -0.1929932, 4.0365, 1.7022901, 4.0365, 0.1374046, 4.0365, -3.9770992
0.4756765, -0.0045319, 4.04325, 0.0487061, 4.04325, -1.0006714, 4.04325, -0.18927, 4.04325, 1.5572519, 4.04325, 0.2290076, 4.04325, -3.8549619
0.4764706, -0.0041962, 4.05, 0.0498047, 4.05, -1.0012207, 4.05, -0.1913452, 4.05, 1.6793894, 4.05, 0.2137405, 4.05, -3.9312978
0.4772647, -0.0109102, 4.05675, 0.0514526, 4.05675, -1.0029907, 4.05675, -0.1911011, 4.05675, 1.5267175, 4.05675, 0.2748092, 4.05675, -3.8778627
0.4780588, -0.0164492, 4.0635, 0.0507202, 4.0635, -1.0026245, 4.0635, -0.1946411, 4.0635, 1.480916, 4.0635, 0.3282443, 4.0635, -4
0.4788529, -0.0152743, 4.07025, 0.0511475, 4.07025, -0.9997559, 4.07025, -0.194458, 4.07025, 1.5114504, 4.07025, 0.4274809, 4.07025, -3.9007633
0.4796471, -0.0236667, 4.077, 0.0512085, 4.077, -0.9989014, 4.077, -0.1946411, 4.077, 1.6793894, 4.077, 0.6183206, 4.077, -3.9236641
0.4804412, -0.0276951, 4.08375, 0.0484009, 4.08375, -0.9980469, 4.08375, -0.192749, 4.08375, 1.7175573, 4.08375, 0.5038168, 4.08375, -4.1297708
0.4812353, -0.0221561, 4.0905, 0.0479126, 4.0905, -0.9997559, 4.0905, -0.1955566, 4.0905, 1.7557251, 4.0905, 0.7175573, 4.0905, -3.8320611
0.4820294, -0.0203098, 4.09725, 0.048645, 4.09725, -0.9969482, 4.09725, -0.1978149, 4.09725, 1.8167939, 4.09725, 0.7099237, 4.09725, -3.778626
0.4828235, -0.0250095, 4.104, 0.0487671, 4.104, -1.0005493, 4.104, -0.1967773, 4.104, 1.778626, 4.104, 0.778626, 4.104, -3.8778627
0.4836176, -0.0238346, 4.11075, 0.0465698, 4.11075, -1.0014038, 4.11075, -0.1950684, 4.11075, 1.8244275, 4.11075, 0.7633588, 4.11075, -3.8320611
0.4844118, -0.0186313, 4.1175, 0.0513916, 4.1175, -0.9972534, 4.1175, -0.1950073, 4.1175, 1.8473282, 4.1175, 0.7633588, 4.1175, -3.740458
0.4852059, -0.012253, 4.12425, 0.0491943, 4.12425, -1.0018311, 4.12425, -0.1922607, 4.12425, 1.9312977, 4.12425, 0.9389313, 4.12425, -3.7328243
0.486, -0.0115816, 4.131, 0.0480957, 4.131, -1.0046997, 4.131, -0.1893311, 4.131, 2.0152671, 4.131, 1.0839695, 4.131, -3.5877862
0.4867941, -0.0070497, 4.13775, 0.0476074, 4.13775, -1.0029907, 4.13775, -0.1893921, 4.13775, 2.0229008, 4.13775, 0.8473282, 4.13775, -3.778626
0.4875882, -0.0041962, 4.1445, 0.0499268, 4.1445, -1.0067749, 4.1445, -0.1911621, 4.1445, 1.908397, 4.1445, 0.8091603, 4.1445, -3.7633588
0.4883824, -0.0005035, 4.15125, 0.0522461, 4.15125, -1.0040894, 4.15125, -0.1906738, 4.15125, 1.8931298, 4.15125, 0.870229, 4.15125, -3.5572519
0.4891765, 0.002182, 4.158, 0.0534058, 4.158, -1.0037842, 4.158, -0.1921387, 4.158, 1.9923664, 4.158, 0.9160305, 4.158, -3.6183207
0.4899706, 0.0068818, 4.16475, 0.0556641, 4.16475, -1.0014038, 4.16475, -0.19104, 4.16475, 1.9541985, 4.16475, 0.9541985, 4.16475, -3.6641221
0.4907647, 0.0005035, 4.1715, 0.0523682, 4.1715, -1.0012817, 4.1715, -0.1898804, 4.1715, 1.8931298, 4.1715, 1.1374046, 4.1715, -3.5725191
0.4915588, -0.0030213, 4.17825, 0.0510254, 4.17825, -1.0025024, 4.17825, -0.1891479, 4.17825, 1.9160305, 4.17825, 1.2519084, 4.17825, -3.5648854
0.4923529, -0.0075532, 4.185, 0.0524902, 4.185, -0.9979248, 4.185, -0.1890259, 4.185, 1.7328244, 4.185, 1.2442749, 4.185, -3.7328243
0.4931471, -0.0135958, 4.19175, 0.0482788, 4.19175, -0.9987793, 4.19175, -0.1869507, 4.19175, 1.7633588, 4.19175, 1.1145039, 4.19175, -3.4427481
0.4939412, -0.0179599, 4.1985, 0.0466309, 4.1985, -0.9972534, 4.1985, -0.1887207, 4.1985, 1.7328244, 4.1985, 0.9160305, 4.1985, -3.5877862
0.4947353, -0.0193027, 4.20525, 0.0504761, 4.20525, -1.0003052, 4.20525, -0.1875, 4.20525, 1.7251909, 4.20525, 1.1526718, 4.20525, -3.5496182
0.4955294, -0.0246738, 4.212, 0.0523682, 4.212, -0.9995728, 4.212, -0.1887817, 4.212, 1.5419847, 4.212, 1.3129771, 4.212, -3.4885497
0.4963235, -0.0293736, 4.21875, 0.048584, 4.21875, -1.0028076, 4.21875, -0.1893921, 4.21875, 1.5954199, 4.21875, 1.2442749, 4.21875, -3.4122138
0.4971176, -0.0297093, 4.2255, 0.0490723, 4.2255, -1.003418, 4.2255, -0.1884155, 4.2255, 1.6793894, 4.2255, 1.2671756, 4.2255, -3.2671757
0.4979118, -0.0273594, 4.23225, 0.050354, 4.23225, -1.005249, 4.23225, -0.1873169, 4.23225, 1.610687, 4.23225, 1.4961832, 4.23225, -3.4351146
0.4987059, -0.0246738, 4.239, 0.0491333, 4.239, -1.0043945, 4.239, -0.1854248, 4.239, 1.4885496, 4.239, 1.6183206, 4.239, -3.3358779
0.4995, -0.0303807, 4.24575, 0.0511475, 4.24575, -1.0059204, 4.24575, -0.184021, 4.24575, 1.3816794, 4.24575, 1.610687, 4.24575, -3.1526718
0.5002941, -0.030045, 4.2525, 0.0518799, 4.2525, -1.0018311, 4.2525, -0.1859131, 4.2525, 1.259542, 4.2525, 1.5343511, 4.2525, -3.1145039
0.5010882, -0.0283665, 4.25925, 0.0515747, 4.25925, -1.003479, 4.25925, -0.1838989, 4.25925, 1.3129771, 4.25925, 1.4732825, 4.25925, -3.1832061
0.5018824, -0.0310521, 4.266, 0.0534058, 4.266, -1.0020142, 4.266, -0.187561, 4.266, 1.2137405, 4.266, 1.5343511, 4.266, -3.2900763
0.5026765, -0.0214847, 4.27275, 0.0535278, 4.27275, -0.9998779, 4.27275, -0.1855469, 4.27275, 1.3816794, 4.27275, 1.5343511, 4.27275, -3.1374047
0.5034706, -0.0172885, 4.2795, 0.0511475, 4.2795, -0.9997559, 4.2795, -0.184082, 4.2795, 1.0229008, 4.2795, 1.3816794, 4.2795, -3.091603
0.5042647, -0.0132601, 4.28625, 0.0526123, 4.28625, -0.9985962, 4.28625, -0.1842041, 4.28625, 1.1145039, 4.28625, 1.2900764, 4.28625, -3.1068702
0.5050588, -0.0093996, 4.293, 0.0514526, 4.293, -1.0001831, 4.293, -0.1855469, 4.293, 0.9007633, 4.293, 1.0992366, 4.293, -3.1145039
0.5058529, -0.0040284, 4.29975, 0.050354, 4.29975, -0.9990234, 4.29975, -0.1896973, 4.29975, 1.0839695, 4.29975, 0.8778626, 4.29975, -3.221374
0.5066471, -0.0028534, 4.3065, 0.0529175, 4.3065, -0.9981689, 4.3065, -0.187561, 4.3065, 0.8244275, 4.3065, 1.0076336, 4.3065, -3.2671757
0.5074412, -0.002182, 4.31325, 0.0489502, 4.31325, -1.0002441, 4.31325, -0.1890869, 4.31325, 0.8091603, 4.31325, 0.9007633, 4.31325, -3.3206108
0.5082353, 0.002182, 4.32, 0.0487671, 4.32, -0.9991455, 4.32, -0.18927, 4.32, 0.7251908, 4.32, 1.0839695, 4.32, -3.0992367
0.5090294, 0.0011749, 4.32675, 0.0527954, 4.32675, -0.9996948, 4.32675, -0.190979, 4.32675, 0.7328244, 4.32675, 1.2061069, 4.32675, -3.0610688
0.5098235, -0.0043641, 4.3335, 0.053772, 4.3335, -1, 4.3335, -0.190979, 4.3335, 0.8396947, 4.3335, 1.2519084, 4.3335, -3.1526718
0.5106176, -0.008896, 4.34025, 0.0513306, 4.34025, -0.9992676, 4.34025, -0.1898193, 4.34025, 0.8473282, 4.34025, 1.3969465, 4.34025, -3.0229008
0.5114118, -0.0097353, 4.347, 0.050354, 4.347, -0.9990845, 4.347, -0.1935425, 4.347, 0.9007633, 4.347, 1.4656489, 4.347, -3.0152671
0.5122059, -0.01561, 4.35375, 0.0512695, 4.35375, -1.0009155, 4.35375, -0.1937256, 4.35375, 0.9847328, 4.35375, 1.7480916, 4.35375, -2.908397
0.513, -0.0176242, 4.3605, 0.0506592, 4.3605, -1.0002441, 4.3605, -0.1951294, 4.3605, 0.9465649, 4.3605, 1.7633588, 4.3605, -3.0076337
0.5137941, -0.0208133, 4.36725, 0.0465698, 4.36725, -1.0001831, 4.36725, -0.194397, 4.36725, 0.9770992, 4.36725, 1.7175573, 4.36725, -3.1221373
0.5145882, -0.0236667, 4.374, 0.0507202, 4.374, -1.0024414, 4.374, -0.1967773, 4.374, 0.9923664, 4.374, 1.519084, 4.374, -3.0076337
0.5153824, -0.0223239, 4.38075, 0.0507812, 4.38075, -1.0038452, 4.38075, -0.1978149, 4.38075, 1.1755725, 4.38075, 1.4580153, 4.38075, -3.129771
0.5161765, -0.0166171, 4.3875, 0.0523071, 4.3875, -1.0037231, 4.3875, -0.1975098, 4.3875, 1.129771, 4.3875, 1.4198474, 4.3875, -2.9847329
0.5169706, -0.0159457, 4.39425, 0.0506592, 4.39425, -1.0054932, 4.39425, -0.1945801, 4.39425, 1.1984733, 4.39425, 1.648855, 4.39425, -3.0152671
0.5177647, -0.0203098, 4.401, 0.0499268, 4.401, -1.0047607, 4.401, -0.1951294, 4.401, 1.4503816, 4.401, 1.9465649, 4.401, -3.1603053
0.5185588, -0.0226596, 4.40775, 0.050354, 4.40775, -1.0061035, 4.40775, -0.1957397, 4.40775, 1.3053435, 4.40775, 1.6335878, 4.40775, -3.1984732
0.5193529, -0.0193027, 4.4145, 0.0496216, 4.4145, -1.0040283, 4.4145, -0.1933594, 4.4145, 1.3816794, 4.4145, 1.5801526, 4.4145, -3.3664122
0.5201471, -0.017792, 4.42125, 0.0524292, 4.42125, -1.0050049, 4.42125, -0.197876, 4.42125, 1.4732825, 4.42125, 1.3053435, 4.42125, -3.259542
0.5209412, -0.018967, 4.428, 0.0594482, 4.428, -1.0055542, 4.428, -0.1971436, 4.428, 1.4198474, 4.428, 1.5038168, 4.428, -3.4198472
0.5217353, -0.0152743, 4.43475, 0.0551758, 4.43475, -1.0092773, 4.43475, -0.1967163, 4.43475, 1.5725191, 4.43475, 2.3282442, 4.43475, -3.2671757
0.5225294, -0.0102388, 4.4415, 0.0411377, 4.4415, -1.0050049, 4.4415, -0.1915894, 4.4415, 1.8931298, 4.4415, 2.4885497, 4.4415, -3.3587787
0.5233235, -0.0068818, 4.44825, 0.0372925, 4.44825, -1.0072021, 4.44825, -0.1893921, 4.44825, 1.4351145, 4.44825, 2.0992367, 4.44825, -3.3358779
0.5241176, -0.002182, 4.455, 0.0411377, 4.455, -1.008606, 4.455, -0.1914673, 4.455, 1.5877863, 4.455, 1.4351145, 4.455, -3.3435113
0.5249118, 0.0005035, 4.46175, 0.0481567, 4.46175, -1.0068359, 4.46175, -0.1921997, 4.46175, 1.3816794, 4.46175, 1.1374046, 4.46175, -3.519084
0.5257059, -0.0025177, 4.4685, 0.0605469, 4.4685, -1.0073853, 4.4685, -0.1914673, 4.4685, 1.4427481, 4.4685, 1.0152671, 4.4685, -3.4732823
0.5265, -0.0082246, 4.47525, 0.0673828, 4.47525, -1.0016479, 4.47525, -0.1934814, 4.47525, 1.5496184, 4.47525, 1.3282443, 4.47525, -3.5801528
0.5272941, -0.0109102, 4.482, 0.0726318, 4.482, -1.000061, 4.482, -0.1915894, 4.482, 1.6870229, 4.482, 2.259542, 4.482, -3.3969467
0.5280882, -0.0179599, 4.48875, 0.0714111, 4.48875, -1.000061, 4.48875, -0.1931152, 4.48875, 1.5038168, 4.48875, 3.3740458, 4.48875, -3.1755726
0.5288824, -0.0213169, 4.4955, 0.0644531, 4.4955, -0.9971313, 4.4955, -0.1904907, 4.4955, 1.6183206, 4.4955, 4.4122138, 4.4955, -3.2519083
0.5296765, -0.0179599, 4.50225, 0.0524292, 4.50225, -0.996521, 4.50225, -0.1853027, 4.50225, 1.4503816, 4.50225, 4.6488547, 4.50225, -3.3740458
0.5304706, -0.0182956, 4.509, 0.0370483, 4.509, -0.9939575, 4.509, -0.1810913, 4.509, 1.4503816, 4.509, 4.1221375, 4.509, -3.4274809
0.5312647, -0.0221561, 4.51575, 0.0307617, 4.51575, -0.9961548, 4.51575, -0.175354, 4.51575, 1.3206106, 4.51575, 3.4122138, 4.51575, -3.4198472
0.5320588, -0.0226596, 4.5225, 0.03302, 4.5225, -0.9984741, 4.5225, -0.1750488, 4.5225, 1.2824427, 4.5225, 2.7251909, 4.5225, -3.3969467
0.5328529, -0.0206455, 4.52925, 0.0390625, 4.52925, -0.9986572, 4.52925, -0.1726074, 4.52925, 1.129771, 4.52925, 2.3435113, 4.52925, -3.4732823
0.5336471, -0.0219883, 4.536, 0.0429688, 4.536, -0.9971313, 4.536, -0.1705933, 4.536, 0.9160305, 4.536, 1.9541985, 4.536, -3.4885497
0.5344412, -0.0238346, 4.54275, 0.0509033, 4.54275, -0.993103, 4.54275, -0.1777344, 4.54275, 0.7557252, 4.54275, 2.1832061, 4.54275, -3.480916
0.5352353, -0.0216526, 4.5495, 0.0552368, 4.5495, -0.9953613, 4.5495, -0.1720581, 4.5495, 0.740458, 4.5495, 2.5496182, 4.5495, -3.5419848
0.5360294, -0.0166171, 4.55625, 0.0545654, 4.55625, -0.9950562, 4.55625, -0.1726685, 4.55625, 0.5725191, 4.55625, 3.1526718, 4.55625, -3.1984732
0.5368235, -0.012253, 4.563, 0.0551758, 4.563, -0.9968872, 4.563, -0.171936, 4.563, 0.5267175, 4.563, 3.8015268, 4.563, -2.9923663
0.5376176, -0.0109102, 4.56975, 0.0496826, 4.56975, -0.9963379, 4.56975, -0.1682129, 4.56975, 0.3282443, 4.56975, 4.2290077, 4.56975, -2.8549619
0.5384118, -0.0043641, 4.5765, 0.0421753, 4.5765, -0.9956055, 4.5765, -0.1680298, 4.5765, 0.129771, 4.5765, 3.7557251, 4.5765, -2.8015268
0.5392059, 0.0025177, 4.58325, 0.0362549, 4.58325, -0.9942017, 4.58325, -0.1744995, 4.58325, -0.2748092, 4.58325, 2.740458, 4.58325, -2.9236641
0.54, 0.0025177, 4.59, 0.0334473, 4.59, -0.9996948, 4.59, -0.1786499, 4.59, -0.4351145, 4.59, 1.7557251, 4.59, -3.1068702
0.5407941, 0.0028534, 4.59675, 0.0385132, 4.59675, -1.0002441, 4.59675, -0.1781616, 4.59675, -0.8167939, 4.59675, 0.6870229, 4.59675, -3.221374
0.5415882, -0.0031891, 4.6035, 0.0457764, 4.6035, -1.0050049, 4.6035, -0.1794434, 4.6035, -0.9007633, 4.6035, -0.1145038, 4.6035, -3.1374047
0.5423824, -0.0063783, 4.61025, 0.0540771, 4.61025, -1.0107422, 4.61025, -0.1859131, 4.61025, -0.9770992, 4.61025, -0.8167939, 4.61025, -3.1145039
0.5431765, -0.0092317, 4.617, 0.0640869, 4.617, -1.0065918, 4.617, -0.190979, 4.617, -1.0534351, 4.617, -0.5038168, 4.617, -3.091603
0.5439706, -0.0142672, 4.62375, 0.0652466, 4.62375, -1.0037231, 4.62375, -0.1966553, 4.62375, -1.0076336, 4.62375, -0.5267175, 4.62375, -2.9465649
0.5447647, -0.0216526, 4.6305, 0.0672607, 4.6305, -1.0025635, 4.6305, -0.1965332, 4.6305, -0.9236641, 4.6305, -0.0152672, 4.6305, -2.8473282
0.5455588, -0.0243381, 4.63725, 0.0690308, 4.63725, -1.0062866, 4.63725, -0.2086182, 4.63725, -0.8015267, 4.63725, 0.259542, 4.63725, -2.7557251
0.5463529, -0.018967, 4.644, 0.0686035, 4.644, -1.0043335, 4.644, -0.2103271, 4.644, -0.5419847, 4.644, 0.6412213, 4.644, -2.6717558
0.5471471, -0.0243381, 4.65075, 0.0636597, 4.65075, -1.0060425, 4.65075, -0.2121582, 4.65075, -0.351145, 4.65075, 1.3664122, 4.65075, -2.648855
0.5479412, -0.0236667, 4.6575, 0.0604248, 4.6575, -1.0057373, 4.6575, -0.2150879, 4.6575, -0.1374046, 4.6575, 1.6183206, 4.6575, -2.3664122
0.5487353, -0.0216526, 4.66425, 0.0577393, 4.66425, -1.0010376, 4.66425, -0.2174072, 4.66425, 0.259542, 4.66425, 2.0610688, 4.66425, -2.3053436
0.5495294, -0.0196384, 4.671, 0.0546875, 4.671, -0.9984131, 4.671, -0.2209473, 4.671, 0.7557252, 4.671, 2.648855, 4.671, -2.1908398
0.5503235, -0.0194705, 4.67775, 0.0521851, 4.67775, -0.9963989, 4.67775, -0.2181396, 4.67775, 0.9007633, 4.67775, 2.6870229, 4.67775, -2.1603053
0.5511176, -0.0191348, 4.6845, 0.050415, 4.6845, -0.9957275, 4.6845, -0.21698, 4.6845, 1.2061069, 4.6845, 2.6870229, 4.6845, -2.1145039
0.5519118, -0.0154421, 4.69125, 0.0487671, 4.69125, -0.998291, 4.69125, -0.2092285, 4.69125, 1.5496184, 4.69125, 2.648855, 4.69125, -2.0229008
0.5527059, -0.0045319, 4.698, 0.0512695, 4.698, -0.9980469, 4.698, -0.2056274, 4.698, 2.0458016, 4.698, 2.5114503, 4.698, -2.0305343
0.5535, -0.0038605, 4.70475, 0.0498047, 4.70475, -0.9970703, 4.70475, -0.2033691, 4.70475, 2.1374047, 4.70475, 2.5038168, 4.70475, -1.7862595
0.5542941, 0.0005035, 4.7115, 0.046814, 4.7115, -1, 4.7115, -0.1983643, 4.7115, 2.0763359, 4.7115, 2.5419848, 4.7115, -1.9465649
0.5550882, 0.0050355, 4.71825, 0.0465088, 4.71825, -0.9988403, 4.71825, -0.1995239, 4.71825, 2.3282442, 4.71825, 2.3206108, 4.71825, -2.0076337
0.5558824, 0.0028534, 4.725, 0.0463257, 4.725, -1.0060425, 4.725, -0.1937256, 4.725, 2.1526718, 4.725, 2.129771, 4.725, -2.0152671
0.5566765, 0.0045319, 4.73175, 0.0480347, 4.73175, -1.0065308, 4.73175, -0.1933594, 4.73175, 2.3740458, 4.73175, 1.6259542, 4.73175, -2.091603
0.5574706, 0.0011749, 4.7385, 0.0431519, 4.7385, -1.0054932, 4.7385, -0.189209, 4.7385, 2.4274809, 4.7385, 1.1984733, 4.7385, -2.1145039
0.5582647, -0.0045319, 4.74525, 0.0474854, 4.74525, -1.0038452, 4.74525, -0.1865845, 4.74525, 2.4732823, 4.74525, 0.6793893, 4.74525, -2.2671757
0.5590588, -0.0052033, 4.752, 0.0424805, 4.752, -1.0059204, 4.752, -0.1859741, 4.752, 2.3206108, 4.752, 0.0687023, 4.752, -2.4656489
0.5598529, -0.0062104, 4.75875, 0.0438232, 4.75875, -1.0025024, 4.75875, -0.1855469, 4.75875, 2.1908398, 4.75875, -0.480916, 4.75875, -2.3740458
0.5606471, -0.0159457, 4.7655, 0.046814, 4.7655, -1.0004883, 4.7655, -0.1834717, 4.7655, 2.0992367, 4.7655, -0.5648855, 4.7655, -2.389313
0.5614412, -0.024506, 4.77225, 0.045166, 4.77225, -1.0024414, 4.77225, -0.1826172, 4.77225, 2.0305343, 4.77225, -0.7557252, 4.77225, -2.4503818
0.5622353, -0.026688, 4.779, 0.0457153, 4.779, -1.0012817, 4.779, -0.1832886, 4.779, 1.961832, 4.779, -0.9847328, 4.779, -2.778626
0.5630294, -0.0295415, 4.78575, 0.0437012, 4.78575, -0.9990845, 4.78575, -0.1782227, 4.78575, 1.8244275, 4.78575, -1.0687023, 4.78575, -2.7709923
0.5638235, -0.0323949, 4.7925, 0.0418701, 4.7925, -1.0036011, 4.7925, -0.1794434, 4.7925, 1.7175573, 4.7925, -1.2519084, 4.7925, -2.6641221
0.5646176, -0.0350805, 4.79925, 0.0429077, 4.79925, -1.0031738, 4.79925, -0.1808472, 4.79925, 1.5801526, 4.79925, -1.2900764, 4.79925, -2.778626
0.5654118, -0.0357519, 4.806, 0.0423584, 4.806, -0.9980469, 4.806, -0.182373, 4.806, 1.3358779, 4.806, -1.4503816, 4.806, -2.6793892
0.5662059, -0.0347448, 4.81275, 0.0407715, 4.81275, -1.0015259, 4.81275, -0.1777344, 4.81275, 1.1679389, 4.81275, -1.5419847, 4.81275, -2.908397
0.567, -0.0344091, 4.8195, 0.0435181, 4.8195, -0.9970703, 4.8195, -0.1789551, 4.8195, 1.0992366, 4.8195, -1.5572519, 4.8195, -2.7709923
0.5677941, -0.0323949, 4.82625, 0.0436401, 4.82625, -0.9975586, 4.82625, -0.1787109, 4.82625, 1.0458015, 4.82625, -1.5343511, 4.82625, -2.7709923
0.5685882, -0.0310521, 4.833, 0.0466919, 4.833, -1.0011597, 4.833, -0.1825562, 4.833, 0.8931298, 4.833, -1.4732825, 4.833, -2.7480917
0.5693824, -0.0263523, 4.83975, 0.0498657, 4.83975, -1.0010376, 4.83975, -0.1859131, 4.83975, 0.7251908, 4.83975, -1.4045801, 4.83975, -2.6946564
0.5701765, -0.0226596, 4.8465, 0.0541382, 4.8465, -0.9990234, 4.8465, -0.1923828, 4.8465, 0.7862595, 4.8465, -1.3129771, 4.8465, -2.7633588
0.5709706, -0.0149386, 4.85325, 0.0505981, 4.85325, -1.0023804, 4.85325, -0.1972656, 4.85325, 0.778626, 4.85325, -0.8091603, 4.85325, -2.7557251
0.5717647, -0.0070497, 4.86, 0.0539551, 4.86, -1.00177, 4.86, -0.1965332, 4.86, 0.8244275, 4.86, -0.7633588, 4.86, -2.8091602
0.5725588, -0.0035248, 4.86675, 0.0512695, 4.86675, -1.0026855, 4.86675, -0.2008057, 4.86675, 0.8320611, 4.86675, -0.908397, 4.86675, -2.6717558
0.5733529, -0.0015106, 4.8735, 0.0551758, 4.8735, -1.0013428, 4.8735, -0.2028198, 4.8735, 0.870229, 4.8735, -0.5801527, 4.8735, -2.5496182
0.5741471, -0.0048676, 4.88025, 0.0512695, 4.88025, -1.0037842, 4.88025, -0.2033691, 4.88025, 1.1068702, 4.88025, -0.0152672, 4.88025, -2.480916
0.5749412, -0.005539, 4.887, 0.0471802, 4.887, -0.999939, 4.887, -0.2025757, 4.887, 1.2137405, 4.887, 0.1679389, 4.887, -2.6259542
0.5757353, -0.008896, 4.89375, 0.0406494, 4.89375, -0.9990234, 4.89375, -0.201416, 4.89375, 1.3816794, 4.89375, 0.4198473, 4.89375, -2.6564887
0.5765294, -0.0077211, 4.9005, 0.0377808, 4.9005, -1.0018921, 4.9005, -0.2005615, 4.9005, 1.5267175, 4.9005, 0.3206107, 4.9005, -2.7251909
0.5773235, -0.014435, 4.90725, 0.0363159, 4.90725, -1.0018311, 4.90725, -0.1983643, 4.90725, 1.7251909, 4.90725, -0.1221374, 4.90725, -2.740458
0.5781176, -0.0166171, 4.914, 0.0376587, 4.914, -1.0072632, 4.914, -0.1934204, 4.914, 1.8396946, 4.914, -0.1450382, 4.914, -3.0076337
0.5789118, -0.0142672, 4.92075, 0.043335, 4.92075, -1.0045776, 4.92075, -0.1922607, 4.92075, 1.8549619, 4.92075, -0.0610687, 4.92075, -3.0610688
0.5797059, -0.0162814, 4.9275, 0.0448608, 4.9275, -1.0029907, 4.9275, -0.1907959, 4.9275, 1.9770992, 4.9275, -0.129771, 4.9275, -2.9007633
0.5805, -0.0243381, 4.93425, 0.0441284, 4.93425, -1.005188, 4.93425, -0.1899414, 4.93425, 1.8396946, 4.93425, -0.0229008, 4.93425, -3
0.5812941, -0.0288701, 4.941, 0.0463257, 4.941, -0.999939, 4.941, -0.1853027, 4.941, 2.0076337, 4.941, -0.0610687, 4.941, -2.961832
0.5820882, -0.0263523, 4.94775, 0.0474854, 4.94775, -1.0001831, 4.94775, -0.1849365, 4.94775, 1.740458, 4.94775, 0.0916031, 4.94775, -3.1679389
0.5828824, -0.0209812, 4.9545, 0.0463867, 4.9545, -1.0032349, 4.9545, -0.1854248, 4.9545, 1.7251909, 4.9545, -0.259542, 4.9545, -3.0534351
0.5836765, -0.0172885, 4.96125, 0.046875, 4.96125, -0.9987183, 4.96125, -0.1873169, 4.96125, 1.8167939, 4.96125, -0.3816794, 4.96125, -3.129771
0.5844706, -0.0151064, 4.968, 0.0411377, 4.968, -0.9956665, 4.968, -0.1843872, 4.968, 1.8015267, 4.968, -0.6793893, 4.968, -3.3587787
0.5852647, -0.01561, 4.97475, 0.0376587, 4.97475, -0.9989014, 4.97475, -0.1813965, 4.97475, 1.3969465, 4.97475, -1.2900764, 4.97475, -3.5114503
0.5860588, -0.0132601, 4.9815, 0.0392456, 4.9815, -1.003418, 4.9815, -0.1810913, 4.9815, 1.3282443, 4.9815, -1.8778626, 4.9815, -3.4122138
0.5868529, -0.0038605, 4.98825, 0.0419312, 4.98825, -1.0003052, 4.98825, -0.1803589, 4.98825, 1.3053435, 4.98825, -2.389313, 4.98825, -3.5267177
0.5876471, -0.0018463, 4.995, 0.0441284, 4.995, -0.9978638, 4.995, -0.1811523, 4.995, 1.221374, 4.995, -2.519084, 4.995, -3.610687
0.5884412, -0.0015106, 5.00175, 0.0458374, 5.00175, -0.9989624, 5.00175, -0.1803589, 5.00175, 0.9007633, 5.00175, -2.4580152, 5.00175, -3.5038168
0.5892353, -0.0001678, 5.0085, 0.0463257, 5.0085, -1.0015259, 5.0085, -0.1777954, 5.0085, 0.9160305, 5.0085, -2.8091602, 5.0085, -3.4885497
0.5900294, 0.0018463, 5.01525, 0.0452881, 5.01525, -1.0016479, 5.01525, -0.1790771, 5.01525, 0.8167939, 5.01525, -2.7862597, 5.01525, -3.6030533
0.5908235, 0.0010071, 5.022, 0.0479736, 5.022, -0.999939, 5.022, -0.180542, 5.022, 0.6641222, 5.022, -2.7938931, 5.022, -3.5114503
0.5916176, -0.0018463, 5.02875, 0.0474854, 5.02875, -0.99646, 5.02875, -0.1779175, 5.02875, 0.3816794, 5.02875, -2.8244274, 5.02875, -3.4351146
0.5924118, -0.0065461, 5.0355, 0.0465088, 5.0355, -0.999939, 5.0355, -0.1786499, 5.0355, 0.3740458, 5.0355, -2.8244274, 5.0355, -3.5114503
0.5932059, -0.0057069, 5.04225, 0.0446777, 5.04225, -0.9985352, 5.04225, -0.1803589, 5.04225, 0.0763359, 5.04225, -2.7709923, 5.04225, -3.3435113
0.594, -0.0137636, 5.049, 0.0471802, 5.049, -1.0020142, 5.049, -0.1848755, 5.049, 0.0916031, 5.049, -3.0610688, 5.049, -3.3282442
0.5947941, -0.0169528, 5.05575, 0.0490112, 5.05575, -1.0055542, 5.05575, -0.1899414, 5.05575, -0.1374046, 5.05575, -3.1221373, 5.05575, -3.351145
0.5955882, -0.0218204, 5.0625, 0.0507202, 5.0625, -1.0054321, 5.0625, -0.1939087, 5.0625, -0.0763359, 5.0625, -2.8396947, 5.0625, -3.4732823
0.5963824, -0.023331, 5.06925, 0.0530396, 5.06925, -1.0050049, 5.06925, -0.1948853, 5.06925, -0.129771, 5.06925, -2.5954199, 5.06925, -3.3969467
0.5971765, -0.0229953, 5.076, 0.0523682, 5.076, -1.003418, 5.076, -0.1990356, 5.076, -0.2748092, 5.076, -2.259542, 5.076, -3.1832061
0.5979706, -0.0236667, 5.08275, 0.0543823, 5.08275, -1.0072632, 5.08275, -0.2000732, 5.08275, 0.0687023, 5.08275, -2.1908398, 5.08275, -3.2061069
0.5987647, -0.0250095, 5.0895, 0.0529785, 5.0895, -1.003418, 5.0895, -0.2047729, 5.0895, 0.1679389, 5.0895, -1.7251909, 5.0895, -3.0076337
0.5995588, -0.0256809, 5.09625, 0.0547485, 5.09625, -1.0096436, 5.09625, -0.2041626, 5.09625, 0.0763359, 5.09625, -1.5038168, 5.09625, -2.7709923
0.6003529, -0.0193027, 5.103, 0.0518799, 5.103, -1.0037231, 5.103, -0.2033691, 5.103, 0.259542, 5.103, -0.6793893, 5.103, -2.9770992
0.6011471, -0.0172885, 5.10975, 0.0474243, 5.10975, -1.0046997, 5.10975, -0.2045288, 5.10975, 0.6335878, 5.10975, -0.4274809, 5.10975, -2.9923663
0.6019412, -0.0124208, 5.1165, 0.0488281, 5.1165, -1.0055542, 5.1165, -0.2080078, 5.1165, 0.740458, 5.1165, -0.1679389, 5.1165, -2.9007633
0.6027353, -0.0119173, 5.12325, 0.0500488, 5.12325, -1.0054321, 5.12325, -0.2080688, 5.12325, 0.8396947, 5.12325, 0.3206107, 5.12325, -2.7480917
0.6035294, -0.008896, 5.13, 0.0489502, 5.13, -1.0040894, 5.13, -0.2056885, 5.13, 0.9236641, 5.13, 0.7557252, 5.13, -2.7557251
0.6043235, -0.0092317, 5.13675, 0.0496216, 5.13675, -1.0018311, 5.13675, -0.2068481, 5.13675, 1.4580153, 5.13675, 0.8320611, 5.13675, -2.8244274
0.6051176, -0.005539, 5.1435, 0.0513916, 5.1435, -0.9979248, 5.1435, -0.2016602, 5.1435, 1.4198474, 5.1435, 0.9236641, 5.1435, -2.648855
0.6059118, -0.0028534, 5.15025, 0.0507812, 5.15025, -0.9975586, 5.15025, -0.2064819, 5.15025, 1.4961832, 5.15025, 1.0687023, 5.15025, -2.8167939
0.6067059, -0.0041962, 5.157, 0.0506592, 5.157, -0.9989014, 5.157, -0.2072144, 5.157, 1.9160305, 5.157, 1.4198474, 5.157, -2.7633588
0.6075, -0.0035248, 5.16375, 0.050354, 5.16375, -0.9960327, 5.16375, -0.2012329, 5.16375, 1.9694656, 5.16375, 1.9007634, 5.16375, -2.6259542
0.6082941, -0.005539, 5.1705, 0.0449829, 5.1705, -0.9959717, 5.1705, -0.2006836, 5.1705, 2.1068702, 5.1705, 1.9389313, 5.1705, -2.6183207
0.6090882, -0.012253, 5.17725, 0.0440674, 5.17725, -0.9990845, 5.17725, -0.1987305, 5.17725, 2.1068702, 5.17725, 2.2671757, 5.17725, -2.5877862
0.6098824, -0.0176242, 5.184, 0.0432129, 5.184, -1.0028687, 5.184, -0.1978149, 5.184, 2.2519083, 5.184, 2.1450381, 5.184, -2.5267177
0.6106765, -0.0199741, 5.19075, 0.0465698, 5.19075, -1.0018921, 5.19075, -0.1970825, 5.19075, 2.2290077, 5.19075, 2.0534351, 5.19075, -2.6259542
0.6114706, -0.0223239, 5.1975, 0.0453491, 5.1975, -0.9990234, 5.1975, -0.1932373, 5.1975, 2.2671757, 5.1975, 2.1526718, 5.1975, -2.6717558
0.6122647, -0.0263523, 5.20425, 0.0454102, 5.20425, -1.0007324, 5.20425, -0.187561, 5.20425, 2.259542, 5.20425, 2.1755726, 5.20425, -2.5419848
0.6130588, -0.0256809, 5.211, 0.0415649, 5.211, -1.0008545, 5.211, -0.1862793, 5.211, 2.3587787, 5.211, 2.1374047, 5.211, -2.6946564
0.6138529, -0.0246738, 5.21775, 0.038269, 5.21775, -1.0014038, 5.21775, -0.1861572, 5.21775, 2.2519083, 5.21775, 1.8778626, 5.21775, -2.8549619
0.6146471, -0.0256809, 5.2245, 0.0375366, 5.2245, -1.0008545, 5.2245, -0.1860962, 5.2245, 2.2290077, 5.2245, 1.7251909, 5.2245, -2.9389312
0.6154412, -0.0251774, 5.23125, 0.0388184, 5.23125, -1.0032959, 5.23125, -0.1845703, 5.23125, 2.129771, 5.23125, 1.6717557, 5.23125, -2.7633588
0.6162353, -0.0276951, 5.238, 0.0422363, 5.238, -1.0031128, 5.238, -0.1860352, 5.238, 2.0992367, 5.238, 1.9389313, 5.238, -2.7938931
0.6170294, -0.0250095, 5.24475, 0.039917, 5.24475, -0.9992065, 5.24475, -0.1848755, 5.24475, 2.129771, 5.24475, 2.1603053, 5.24475, -2.8549619
0.6178235, -0.0250095, 5.2515, 0.0396118, 5.2515, -1, 5.2515, -0.1818237, 5.2515, 2.0534351, 5.2515, 2.2290077, 5.2515, -2.8167939
0.6186176, -0.0198062, 5.25825, 0.0397949, 5.25825, -1.0057373, 5.25825, -0.1827393, 5.25825, 1.8549619, 5.25825, 2.1221373, 5.25825, -2.9847329
0.6194118, -0.0162814, 5.265, 0.041748, 5.265, -1.0039062, 5.265, -0.1835327, 5.265, 1.7175573, 5.265, 1.9923664, 5.265, -2.9847329
0.6202059, -0.0162814, 5.27175, 0.045105, 5.27175, -1.0015259, 5.27175, -0.1821289, 5.27175, 1.5343511, 5.27175, 2.2290077, 5.27175, -2.7862597
0.621, -0.0099031, 5.2785, 0.0393066, 5.2785, -1.0038452, 5.2785, -0.1793213, 5.2785, 1.3206106, 5.2785, 2.2748091, 5.2785, -2.9389312
0.6217941, -0.002182, 5.28525, 0.0410767, 5.28525, -1.0029297, 5.28525, -0.1768799, 5.28525, 1.3358779, 5.28525, 1.9770992, 5.28525, -2.8854961
0.6225882, -0.0028534, 5.292, 0.0356445, 5.292, -0.9993286, 5.292, -0.1794434, 5.292, 1.0763359, 5.292, 1.7099236, 5.292, -3.2671757
0.6233824, -0.0001678, 5.29875, 0.0349121, 5.29875, -0.999939, 5.29875, -0.1799927, 5.29875, 0.9007633, 5.29875, 1.1679389, 5.29875, -3.4122138
0.6241765, 0.0030213, 5.3055, 0.0411377, 5.3055, -1.0036621, 5.3055, -0.1844482, 5.3055, 0.7709923, 5.3055, 0.648855, 5.3055, -3.3969467
0.6249706, -0.0035248, 5.31225, 0.0428467, 5.31225, -1.0031738, 5.31225, -0.1853638, 5.31225, 0.6412213, 5.31225, 0.5877863, 5.31225, -3.4503818
0.6257647, -0.0090639, 5.319, 0.0394897, 5.319, -1.0039673, 5.319, -0.1853638, 5.319, 0.5801527, 5.319, 0.4961832, 5.319, -3.480916
0.6265588, -0.0068818, 5.32575, 0.0405884, 5.32575, -1.0011597, 5.32575, -0.1846313, 5.32575, 0.5114504, 5.32575, 0.389313, 5.32575, -3.5267177
0.6273529, -0.0114137, 5.3325, 0.039856, 5.3325, -0.9997559, 5.3325, -0.1867676, 5.3325, 0.6030535, 5.3325, 0.1068702, 5.3325, -3.648855
0.6281471, -0.0206455, 5.33925, 0.0388794, 5.33925, -1.0012207, 5.33925, -0.1837769, 5.33925, 0.6259542, 5.33925, -0.0763359, 5.33925, -3.6717558
0.6289412, -0.023331, 5.346, 0.0420532, 5.346, -1.00177, 5.346, -0.1873169, 5.346, 0.4656489, 5.346, -0.2671756, 5.346, -3.6412213
0.6297353, -0.0216526, 5.35275, 0.0449829, 5.35275, -1.00177, 5.35275, -0.1887817, 5.35275, 0.4885496, 5.35275, -0.3129771, 5.35275, -3.7328243
0.6305294, -0.0229953, 5.3595, 0.0450439, 5.3595, -1.0048218, 5.3595, -0.1921387, 5.3595, 0.4732825, 5.3595, -0.0458015, 5.3595, -3.6793892
0.6313235, -0.0270237, 5.36625, 0.0440674, 5.36625, -1.00177, 5.36625, -0.1934204, 5.36625, 0.4122137, 5.36625, 0.1755725, 5.36625, -3.6335878
0.6321176, -0.0223239, 5.373, 0.0421753, 5.373, -1.0043335, 5.373, -0.1932373, 5.373, 0.5038168, 5.373, 0.1603053, 5.373, -3.7633588
0.6329118, -0.017792, 5.37975, 0.0422363, 5.37975, -1.0061035, 5.37975, -0.1970215, 5.37975, 0.5496183, 5.37975, 0.1908397, 5.37975, -3.740458
0.6337059, -0.0164492, 5.3865, 0.0424805, 5.3865, -1.0032959, 5.3865, -0.196106, 5.3865, 0.5725191, 5.3865, 0.1145038, 5.3865, -3.7099237
0.6345, -0.0199741, 5.39325, 0.043335, 5.39325, -1.0022583, 5.39325, -0.1947021, 5.39325, 0.6412213, 5.39325, 0.0381679, 5.39325, -3.6793892
0.6352941, -0.0166171, 5.4, 0.0455322, 5.4, -1.0029297, 5.4, -0.1992798, 5.4, 0.7480916, 5.4, 0.1679389, 5.4, -3.8549619
0.6360882, -0.0075532, 5.40675, 0.0487061, 5.40675, -1.0012207, 5.40675, -0.1973877, 5.40675, 0.5496183, 5.40675, 0.3358779, 5.40675, -3.908397
0.6368824, -0.0058747, 5.4135, 0.0463867, 5.4135, -1.0023804, 5.4135, -0.1940308, 5.4135, 0.9389313, 5.4135, 0.3587786, 5.4135, -3.9465649
0.6376765, -0.0048676, 5.42025, 0.0426025, 5.42025, -0.9998779, 5.42025, -0.1956177, 5.42025, 0.9770992, 5.42025, 0.3129771, 5.42025, -3.7480917
0.6384706, 0.0018463, 5.427, 0.0464478, 5.427, -1.0018311, 5.427, -0.1973267, 5.427, 0.9236641, 5.427, 0.129771, 5.427, -3.9541984
0.6392647, 0.0035248, 5.43375, 0.0463257, 5.43375, -0.9994507, 5.43375, -0.1963501, 5.43375, 1.0839695, 5.43375, -0.0305344, 5.43375, -3.870229
0.6400588, 0.0015106, 5.4405, 0.0408325, 5.4405, -0.9995117, 5.4405, -0.1942139, 5.4405, 1.1221374, 5.4405, 0.1526718, 5.4405, -3.8778627
0.6408529, 0.0038605, 5.44725, 0.0426636, 5.44725, -1.003479, 5.44725, -0.192627, 5.44725, 1.2519084, 5.44725, 0.2442748, 5.44725, -3.961832
0.6416471, -0.0011749, 5.454, 0.0437012, 5.454, -1.0029297, 5.454, -0.1895752, 5.454, 1.1755725, 5.454, 0.1679389, 5.454, -4.0152674
0.6424412, -0.0038605, 5.46075, 0.0449829, 5.46075, -1.0031128, 5.46075, -0.1902466, 5.46075, 1.0534351, 5.46075, 0.2824427, 5.46075, -4
0.6432353, -0.0023499, 5.4675, 0.0474854, 5.4675, -1.0027466, 5.4675, -0.1905518, 5.4675, 1.351145, 5.4675, 0.3664122, 5.4675, -3.9389312
0.6440294, -0.0083925, 5.47425, 0.0455933, 5.47425, -1.0042725, 5.47425, -0.1893921, 5.47425, 1.3206106, 5.47425, 0.4427481, 5.47425, -3.9770992
0.6448235, -0.0125887, 5.481, 0.046936, 5.481, -1.0031128, 5.481, -0.1878662, 5.481, 1.2900764, 5.481, 0.6030535, 5.481, -4.0076337
0.6456176, -0.0140993, 5.48775, 0.0461426, 5.48775, -1.0007935, 5.48775, -0.1895752, 5.48775, 1.0610687, 5.48775, 0.8778626, 5.48775, -3.7633588
0.6464118, -0.0206455, 5.4945, 0.0494385, 5.4945, -1.0012207, 5.4945, -0.1896973, 5.4945, 1.1755725, 5.4945, 0.6717557, 5.4945, -3.7175572
0.6472059, -0.0224918, 5.50125, 0.0474854, 5.50125, -1.0014038, 5.50125, -0.1923218, 5.50125, 1.0992366, 5.50125, 0.8625954, 5.50125, -3.870229
0.648, -0.0226596, 5.508, 0.0490112, 5.508, -0.9974365, 5.508, -0.1933594, 5.508, 1.2442749, 5.508, 0.9770992, 5.508, -3.6870229
0.6487941, -0.0223239, 5.51475, 0.0501709, 5.51475, -1.0004272, 5.51475, -0.1911621, 5.51475, 1.2519084, 5.51475, 1.0687023, 5.51475, -3.7022901
0.6495882, -0.0226596, 5.5215, 0.0480957, 5.5215, -0.9987183, 5.5215, -0.1937866, 5.5215, 1.221374, 5.5215, 1.221374, 5.5215, -3.9465649
0.6503824, -0.0250095, 5.52825, 0.0479126, 5.52825, -0.9989014, 5.52825, -0.1904907, 5.52825, 1.0305344, 5.52825, 1.038168, 5.52825, -3.8244274
0.6511765, -0.024506, 5.535, 0.0464478, 5.535, -0.9971924, 5.535, -0.1925659, 5.535, 1.1679389, 5.535, 0.9465649, 5.535, -3.778626
0.6519706, -0.0219883, 5.54175, 0.0482178, 5.54175, -0.9993896, 5.54175, -0.192627, 5.54175, 1.2442749, 5.54175, 0.7480916, 5.54175, -3.7633588
0.6527647, -0.0166171, 5.5485, 0.0444336, 5.5485, -0.9993286, 5.5485, -0.1923828, 5.5485, 1.2137405, 5.5485, 0.6870229, 5.5485, -3.7938931
0.6535588, -0.014435, 5.55525, 0.0455933, 5.55525, -0.999939, 5.55525, -0.1911621, 5.55525, 1.2061069, 5.55525, 0.6564885, 5.55525, -3.8320611
0.6543529, -0.0085603, 5.562, 0.0473022, 5.562, -0.9996948, 5.562, -0.1898804, 5.562, 1.1679389, 5.562, 0.7022901, 5.562, -3.7709923
0.6551471, -0.0075532, 5.56875, 0.0477295, 5.56875, -1.0014038, 5.56875, -0.1912842, 5.56875, 1.259542, 5.56875, 0.870229, 5.56875, -3.870229
0.6559412, -0.005539, 5.5755, 0.0471191, 5.5755, -1.0009155, 5.5755, -0.1921997, 5.5755, 1.2977099, 5.5755, 0.6335878, 5.5755, -3.6641221
0.6567353, -0.0031891, 5.58225, 0.0484009, 5.58225, -0.9984131, 5.58225, -0.1889648, 5.58225, 1.1221374, 5.58225, 0.6030535, 5.58225, -3.7557251
0.6575294, -0.0045319, 5.589, 0.0499878, 5.589, -1.00177, 5.589, -0.1933594, 5.589, 1.3435115, 5.589, 0.8473282, 5.589, -3.7328243
0.6583235, -0.0092317, 5.59575, 0.0513306, 5.59575, -1.0038452, 5.59575, -0.1928101, 5.59575, 1.3053435, 5.59575, 0.8625954, 5.59575, -3.8396947
0.6591176, -0.0090639, 5.6025, 0.0504761, 5.6025, -1.0016479, 5.6025, -0.1966553, 5.6025, 1.2900764, 5.6025, 1.2900764, 5.6025, -3.7099237
0.6599118, -0.0109102, 5.60925, 0.0456543, 5.60925, -1.0061035, 5.60925, -0.1953735, 5.60925, 1.4274809, 5.60925, 1.1679389, 5.60925, -3.7099237
0.6607059, -0.0139315, 5.616, 0.0453491, 5.616, -1.0011597, 5.616, -0.1935425, 5.616, 1.4580153, 5.616, 1.1603054, 5.616, -3.6946564
0.6615, -0.0198062, 5.62275, 0.0450439, 5.62275, -1.0031128, 5.62275, -0.1940918, 5.62275, 1.3435115, 5.62275, 0.8931298, 5.62275, -3.7633588
0.6622941, -0.0243381, 5.6295, 0.0458374, 5.6295, -1.0021973, 5.6295, -0.1963501, 5.6295, 1.4274809, 5.6295, 0.961832, 5.6295, -3.6412213
0.6630882, -0.0251774, 5.63625, 0.0492554, 5.63625, -1.0006104, 5.63625, -0.196228, 5.63625, 1.389313, 5.63625, 0.9160305, 5.63625, -3.5725191
0.6638824, -0.0250095, 5.643, 0.0490723, 5.643, -1.0010986, 5.643, -0.1937866, 5.643, 1.4885496, 5.643, 0.961832, 5.643, -3.7022901
0.6646765, -0.0280308, 5.64975, 0.0469971, 5.64975, -0.9993286, 5.64975, -0.1950073, 5.64975, 1.5954199, 5.64975, 1.1068702, 5.64975, -3.870229
0.6654706, -0.0297093, 5.6565, 0.0462646, 5.6565, -1.0014648, 5.6565, -0.1920776, 5.6565, 1.5572519, 5.6565, 0.9465649, 5.6565, -3.8549619
0.6662647, -0.0317235, 5.66325, 0.048584, 5.66325, -1.0019531, 5.66325, -0.192749, 5.66325, 1.519084, 5.66325, 0.8167939, 5.66325, -3.7328243
0.6670588, -0.0297093, 5.67, 0.0516968, 5.67, -0.9993896, 5.67, -0.1928101, 5.67, 1.6641221, 5.67, 0.961832, 5.67, -3.7633588
0.6678529, -0.0290379, 5.67675, 0.0506592, 5.67675, -1.0024414, 5.67675, -0.1893921, 5.67675, 1.6259542, 5.67675, 0.9847328, 5.67675, -3.4885497
0.6686471, -0.026688, 5.6835, 0.0472412, 5.6835, -1.0036621, 5.6835, -0.1893311, 5.6835, 1.6946565, 5.6835, 1.0839695, 5.6835, -3.8473282
0.6694412, -0.0243381, 5.69025, 0.0436401, 5.69025, -1.0055542, 5.69025, -0.1869507, 5.69025, 1.5877863, 5.69025, 0.7938932, 5.69025, -3.7022901
0.6702353, -0.01561, 5.697, 0.0430908, 5.697, -1.0040894, 5.697, -0.1890869, 5.697, 1.519084, 5.697, 0.5801527, 5.697, -3.870229
0.6710294, -0.0090639, 5.70375, 0.0427856, 5.70375, -1.0030518, 5.70375, -0.1893311, 5.70375, 1.6030535, 5.70375, 0.4580153, 5.70375, -3.8549619
0.6718235, -0.0085603, 5.7105, 0.0464478, 5.7105, -1.0023193, 5.7105, -0.1888428, 5.7105, 1.5419847, 5.7105, 0.1908397, 5.7105, -3.9007633
0.6726176, -0.0048676, 5.71725, 0.046875, 5.71725, -0.9997559, 5.71725, -0.1875, 5.71725, 1.389313, 5.71725, 0.2977099, 5.71725, -3.8396947
0.6734118, 0.0018463, 5.724, 0.0516357, 5.724, -0.9988403, 5.724, -0.1871338, 5.724, 1.2671756, 5.724, 0.4045801, 5.724, -3.7709923
0.6742059, 0.0058747, 5.73075, 0.0501099, 5.73075, -1.0011597, 5.73075, -0.1903687, 5.73075, 1.3282443, 5.73075, 0.5877863, 5.73075, -3.8167939
0.675, 0.0005035, 5.7375, 0.0479736, 5.7375, -1.0009766, 5.7375, -0.1863403, 5.7375, 1.4045801, 5.7375, 0.6030535, 5.7375, -3.8015268
0.6757941, -0.0008392, 5.74425, 0.0476685, 5.74425, -1.0001831, 5.74425, -0.1864014, 5.74425, 1.4961832, 5.74425, 0.7175573, 5.74425, -3.7709923
0.6765882, 0.0015106, 5.751, 0.046875, 5.751, -1.0001831, 5.751, -0.1832886, 5.751, 1.2977099, 5.751, 0.6335878, 5.751, -3.8167939
0.6773824, -0.0031891, 5.75775, 0.0449829, 5.75775, -0.9995117, 5.75775, -0.1860962, 5.75775, 1.259542, 5.75775, 0.3435115, 5.75775, -3.8091602
0.6781765, -0.0062104, 5.7645, 0.0471802, 5.7645, -1.0010376, 5.7645, -0.185791, 5.7645, 1.0763359, 5.7645, 0.1755725, 5.7645, -3.7175572
0.6789706, -0.0078889, 5.77125, 0.0495605, 5.77125, -1.0006104, 5.77125, -0.1888428, 5.77125, 0.9847328, 5.77125, -0.2137405, 5.77125, -3.8778627
0.6797647, -0.0135958, 5.778, 0.0508423, 5.778, -1.0008545, 5.778, -0.1893921, 5.778, 0.961832, 5.778, -0.2137405, 5.778, -3.908397
