Application:, Trigno Discover (1.7.0)
Date/Time:, 2026/9/9 下午 03:32:29
Collection Length (seconds):, 115.7355
Avanti Sensor 11 (69574)
sensor mode: 50
EMG 1 Time Series (s), EMG 1 (mV), ACC X Time Series (s), ACC X (G), ACC Y Time Series (s), ACC Y (G), ACC Z Time Series (s), ACC Z (G), GYRO X Time Series (s), GYRO X (deg/s), GYRO Y Time Series (s), GYRO Y (deg/s), GYRO Z Time Series (s), GYRO Z (deg/s)
, 1259.2593 Hz, , 148.1481 Hz, , 148.1481 Hz, , 148.1481 Hz, , 148.1481 Hz, , 148.1481 Hz, , 148.1481 Hz
0, -0.0115816, 0, -0.0197144, 0, -1.0125732, 0, -0.159729, 0, -1.6793894, 0, 5.0839696, 0, -2.7480917
0.0007941, -0.0102388, 0.00675, -0.0181274, 0.00675, -1.0117798, 0.00675, -0.1551514, 0.00675, -1.6641221, 0.00675, 4.8549619, 0.00675, -3.0687022
0.0015882, -0.0135958, 0.0135, -0.0167236, 0.0135, -1.013855, 0.0135, -0.1534424, 0.0135, -1.038168, 0.0135, 4.9465647, 0.0135, -3.259542
0.0023824, -0.0162814, 0.02025, -0.0227051, 0.02025, -1.0116577, 0.02025, -0.1564331, 0.02025, -0.6641222, 0.02025, 5.5801525, 0.02025, -3.2290077
0.0031765, -0.0179599, 0.027, -0.0298462, 0.027, -1.0090332, 0.027, -0.1585083, 0.027, 0.1679389, 0.027, 5.6870227, 0.027, -3.2671757
0.0039706, -0.0182956, 0.03375, -0.03302, 0.03375, -1.0054932, 0.03375, -0.1605835, 0.03375, 0.5114504, 0.03375, 4.7251906, 0.03375, -3.4122138
0.0047647, -0.0203098, 0.0405, -0.036499, 0.0405, -1.0065308, 0.0405, -0.1672363, 0.0405, 0.648855, 0.0405, 4.0687022, 0.0405, -3.5877862
0.0055588, -0.0196384, 0.04725, -0.0380249, 0.04725, -1.0119629, 0.04725, -0.1681519, 0.04725, 0.8778626, 0.04725, 2.7938931, 0.04725, -3.9236641
0.0063529, -0.0169528, 0.054, -0.036438, 0.054, -1.0093384, 0.054, -0.173584, 0.054, 1.2137405, 0.054, 1.6259542, 0.054, -4.1526718
0.0071471, -0.0166171, 0.06075, -0.0257568, 0.06075, -1.0038452, 0.06075, -0.1815796, 0.06075, 1.4961832, 0.06075, 0.4580153, 0.06075, -4.4580154
0.0079412, -0.0193027, 0.0675, -0.0162354, 0.0675, -1.0015869, 0.0675, -0.1845093, 0.0675, 1.778626, 0.0675, -0.0305344, 0.0675, -4.6412215
0.0087353, -0.0184634, 0.07425, -0.0124512, 0.07425, -1.0007935, 0.07425, -0.1820068, 0.07425, 1.908397, 0.07425, 0.1679389, 0.07425, -4.6564884
0.0095294, -0.01561, 0.081, -0.0083618, 0.081, -0.999939, 0.081, -0.1703491, 0.081, 1.7557251, 0.081, 0.7099237, 0.081, -4.8091602
0.0103235, -0.0166171, 0.08775, -0.0075073, 0.08775, -1.0004272, 0.08775, -0.1660767, 0.08775, 1.7938931, 0.08775, 1.4427481, 0.08775, -4.9847326
0.0111176, -0.018967, 0.0945, -0.0072632, 0.0945, -1.0106812, 0.0945, -0.159668, 0.0945, 1.8854961, 0.0945, 1.8015267, 0.0945, -4.9465647
0.0119118, -0.0182956, 0.10125, -0.0084839, 0.10125, -1.0135498, 0.10125, -0.1534424, 0.10125, 1.9770992, 0.10125, 1.5648855, 0.10125, -5.0763359
0.0127059, -0.0182956, 0.108, -0.0170288, 0.108, -1.0124512, 0.108, -0.1500854, 0.108, 2.5114503, 0.108, 1.0992366, 0.108, -5.1755724
0.0135, -0.0208133, 0.11475, -0.0197754, 0.11475, -1.0114136, 0.11475, -0.1465454, 0.11475, 2.4656489, 0.11475, 0.389313, 0.11475, -5.1908398
0.0142941, -0.0176242, 0.1215, -0.0214844, 0.1215, -1.013855, 0.1215, -0.144165, 0.1215, 2.4198472, 0.1215, 0.0839695, 0.1215, -5.259542
0.0150882, -0.0164492, 0.12825, -0.0171509, 0.12825, -1.0167847, 0.12825, -0.1404419, 0.12825, 2.351145, 0.12825, -0.1984733, 0.12825, -5.4351144
0.0158824, -0.0142672, 0.135, -0.0163574, 0.135, -1.015564, 0.135, -0.1403198, 0.135, 2.3969467, 0.135, -0.3282443, 0.135, -5.3740458
0.0166765, -0.0129244, 0.14175, -0.0089111, 0.14175, -1.0097046, 0.14175, -0.1390991, 0.14175, 2.8931298, 0.14175, -0.6793893, 0.14175, -5.2671757
0.0174706, -0.0104067, 0.1485, -0.0049438, 0.1485, -1.0036621, 0.1485, -0.1448975, 0.1485, 3.2137403, 0.1485, -1.0610687, 0.1485, -5.4351144
0.0182647, -0.0135958, 0.15525, -0.0053711, 0.15525, -1.0013428, 0.15525, -0.1471558, 0.15525, 2.778626, 0.15525, -1.5572519, 0.15525, -5.5419846
0.0190588, -0.0149386, 0.162, -0.0077515, 0.162, -1.0023193, 0.162, -0.1539307, 0.162, 2.7480917, 0.162, -1.5877863, 0.162, -5.4122138
0.0198529, -0.0099031, 0.16875, -0.0050659, 0.16875, -0.9997559, 0.16875, -0.1534424, 0.16875, 2.7480917, 0.16875, -1.3587786, 0.16875, -5.4580154
0.0206471, -0.0085603, 0.1755, -0.0059204, 0.1755, -0.9976196, 0.1755, -0.1538696, 0.1755, 2.6030533, 0.1755, -1.0610687, 0.1755, -5.5572519
0.0214412, -0.0073854, 0.18225, -0.0036011, 0.18225, -1.0014648, 0.18225, -0.1523438, 0.18225, 2.480916, 0.18225, -0.9847328, 0.18225, -5.5725193
0.0222353, -0.012253, 0.189, -0.0008545, 0.189, -1.0037231, 0.189, -0.1481323, 0.189, 2.4045801, 0.189, -0.8549618, 0.189, -5.519084
0.0230294, -0.0102388, 0.19575, 0.0002441, 0.19575, -1.0037842, 0.19575, -0.1445923, 0.19575, 2.4580152, 0.19575, -0.7862595, 0.19575, -5.6717558
0.0238235, -0.0082246, 0.2025, 0.0061646, 0.2025, -0.9990234, 0.2025, -0.1414185, 0.2025, 2.1679389, 0.2025, -0.9007633, 0.2025, -5.4122138
0.0246176, -0.0092317, 0.20925, 0.0081177, 0.20925, -1.0027466, 0.20925, -0.1363525, 0.20925, 1.9923664, 0.20925, -0.5496183, 0.20925, -5.4503818
0.0254118, -0.0104067, 0.216, 0.0056763, 0.216, -1.0048218, 0.216, -0.131897, 0.216, 1.9541985, 0.216, 0.0610687, 0.216, -5.4198475
0.0262059, -0.0119173, 0.22275, 0.0043335, 0.22275, -1.0055542, 0.22275, -0.1309204, 0.22275, 1.8778626, 0.22275, 0.2137405, 0.22275, -5.3282442
0.027, -0.0115816, 0.2295, 0.0120239, 0.2295, -1.0067139, 0.2295, -0.1288452, 0.2295, 1.6793894, 0.2295, 0.2442748, 0.2295, -5.3511453
0.0277941, -0.012253, 0.23625, 0.0105591, 0.23625, -1.0062866, 0.23625, -0.1279907, 0.23625, 1.5648855, 0.23625, 0.5572519, 0.23625, -5.2977099
0.0285882, -0.0125887, 0.243, 0.0090942, 0.243, -1.0032959, 0.243, -0.128479, 0.243, 1.3740458, 0.243, 0.5572519, 0.243, -5.1679387
0.0293824, -0.0152743, 0.24975, 0.0062866, 0.24975, -1.0045166, 0.24975, -0.1359863, 0.24975, 1.3206106, 0.24975, 0.7022901, 0.24975, -5.1450381
0.0301765, -0.0159457, 0.2565, 0.003479, 0.2565, -1.0022583, 0.2565, -0.1407471, 0.2565, 1.091603, 0.2565, 0.4503817, 0.2565, -4.961832
0.0309706, -0.0146029, 0.26325, 0.0048828, 0.26325, -1.0067749, 0.26325, -0.1437988, 0.26325, 0.5572519, 0.26325, 0.648855, 0.26325, -5.0534353
0.0317647, -0.0132601, 0.27, 0.0037842, 0.27, -1.0118408, 0.27, -0.1442871, 0.27, 0.2442748, 0.27, 1.3206106, 0.27, -5.1221375
0.0325588, -0.0125887, 0.27675, 0.0020142, 0.27675, -1.0089722, 0.27675, -0.1410522, 0.27675, 0.1679389, 0.27675, 1.3587786, 0.27675, -5.0458016
0.0333529, -0.0135958, 0.2835, 0.0010986, 0.2835, -1.0061646, 0.2835, -0.1472778, 0.2835, 0.1603053, 0.2835, 1.2519084, 0.2835, -5.0610685
0.0341471, -0.0129244, 0.29025, -0.0007324, 0.29025, -1.0079956, 0.29025, -0.151123, 0.29025, 0.2900763, 0.29025, 0.7557252, 0.29025, -4.9770994
0.0349412, -0.0109102, 0.297, -0.0030518, 0.297, -1.0066528, 0.297, -0.149353, 0.297, 0.0229008, 0.297, 0.5801527, 0.297, -4.9083967
0.0357353, -0.0107424, 0.30375, -0.0036621, 0.30375, -1.0041504, 0.30375, -0.1479492, 0.30375, -0.0229008, 0.30375, 0.6183206, 0.30375, -4.9465647
0.0365294, -0.0099031, 0.3105, -0.0026245, 0.3105, -1.0071411, 0.3105, -0.147644, 0.3105, -0.0152672, 0.3105, 0.5496183, 0.3105, -4.6870227
0.0373235, -0.012253, 0.31725, 0.0014038, 0.31725, -1.0046997, 0.31725, -0.15271, 0.31725, 0.1679389, 0.31725, 0.5267175, 0.31725, -4.7938933
0.0381176, -0.0146029, 0.324, 0.0025635, 0.324, -1.00354, 0.324, -0.1522827, 0.324, 0.1679389, 0.324, 0.8320611, 0.324, -4.7328243
0.0389118, -0.0125887, 0.33075, 0.0024414, 0.33075, -1.0072632, 0.33075, -0.1528931, 0.33075, 0.1908397, 0.33075, 1.2977099, 0.33075, -4.7328243
0.0397059, -0.01561, 0.3375, 0.0055542, 0.3375, -1.0085449, 0.3375, -0.1518555, 0.3375, 0.4503817, 0.3375, 1.3282443, 0.3375, -4.6030536
0.0405, -0.0135958, 0.34425, 0.0048218, 0.34425, -1.005188, 0.34425, -0.1517944, 0.34425, 0.6412213, 0.34425, 0.9847328, 0.34425, -4.5419846
0.0412941, -0.0149386, 0.351, 0.0065918, 0.351, -1.0057983, 0.351, -0.1517334, 0.351, 0.7862595, 0.351, 0.8625954, 0.351, -4.6106873
0.0420882, -0.0162814, 0.35775, 0.0076294, 0.35775, -1.0081177, 0.35775, -0.1569824, 0.35775, 0.778626, 0.35775, 0.6259542, 0.35775, -4.480916
0.0428824, -0.018967, 0.3645, 0.0067749, 0.3645, -1.0061035, 0.3645, -0.1572266, 0.3645, 0.2366412, 0.3645, 0.9007633, 0.3645, -4.5877862
0.0436765, -0.0186313, 0.37125, 0.0091553, 0.37125, -1.0058594, 0.37125, -0.15448, 0.37125, 0.0610687, 0.37125, 1.091603, 0.37125, -4.6412215
0.0444706, -0.0196384, 0.378, 0.0059204, 0.378, -1.0083008, 0.378, -0.1566772, 0.378, 0.2748092, 0.378, 1.038168, 0.378, -4.4351144
0.0452647, -0.0203098, 0.38475, -0.0002441, 0.38475, -1.0076904, 0.38475, -0.1548462, 0.38475, 0.480916, 0.38475, 1.038168, 0.38475, -4.4732823
0.0460588, -0.0176242, 0.3915, -0.0006104, 0.3915, -1.008728, 0.3915, -0.1514282, 0.3915, 0.5496183, 0.3915, 0.7633588, 0.3915, -4.5038166
0.0468529, -0.0149386, 0.39825, -0.0023193, 0.39825, -1.0071411, 0.39825, -0.1505127, 0.39825, 0.5954198, 0.39825, 0.7099237, 0.39825, -4.1832061
0.0476471, -0.0157778, 0.405, -0.0026245, 0.405, -1.0062866, 0.405, -0.1549072, 0.405, 0.5877863, 0.405, 0.6412213, 0.405, -4.4198475
0.0484412, -0.017792, 0.41175, -0.0049438, 0.41175, -1.0064087, 0.41175, -0.1578979, 0.41175, 0.6564885, 0.41175, 0.3282443, 0.41175, -4.3435116
0.0492353, -0.0201419, 0.4185, 0.0001221, 0.4185, -1.0037842, 0.4185, -0.1605225, 0.4185, 0.7480916, 0.4185, 0.129771, 0.4185, -4.3282442
0.0500294, -0.0196384, 0.42525, 0.0024414, 0.42525, -1.0018921, 0.42525, -0.1546631, 0.42525, 0.6717557, 0.42525, 0.1755725, 0.42525, -4.221374
0.0508235, -0.0198062, 0.432, 0.0150146, 0.432, -1.0014648, 0.432, -0.1496582, 0.432, 0.6412213, 0.432, 0.4580153, 0.432, -4.0992365
0.0516176, -0.0236667, 0.43875, 0.0217896, 0.43875, -1.0083618, 0.43875, -0.1459961, 0.43875, 0.7938932, 0.43875, 1.1526718, 0.43875, -4
0.0524118, -0.023331, 0.4455, 0.0247192, 0.4455, -1.0093994, 0.4455, -0.1437378, 0.4455, 0.7633588, 0.4455, 1.908397, 0.4455, -3.9236641
0.0532059, -0.0199741, 0.45225, 0.0158691, 0.45225, -1.0031128, 0.45225, -0.1470337, 0.45225, 0.9007633, 0.45225, 1.8320611, 0.45225, -3.9389312
0.054, -0.0204776, 0.459, 0.0113525, 0.459, -1.0007935, 0.459, -0.1529541, 0.459, 0.9236641, 0.459, 1.129771, 0.459, -3.8396947
0.0547941, -0.0159457, 0.46575, 0.0106812, 0.46575, -1.003479, 0.46575, -0.1539307, 0.46575, 0.6030535, 0.46575, 0.908397, 0.46575, -3.5648854
0.0555882, -0.0152743, 0.4725, 0.0091553, 0.4725, -1.0064697, 0.4725, -0.1506958, 0.4725, 0.4351145, 0.4725, 1.648855, 0.4725, -3.5877862
0.0563824, -0.0166171, 0.47925, 0.0110474, 0.47925, -1.0073242, 0.47925, -0.1505737, 0.47925, 0.6946565, 0.47925, 1.9541985, 0.47925, -3.5343511
0.0571765, -0.0149386, 0.486, 0.0048828, 0.486, -1.0048218, 0.486, -0.1477051, 0.486, 0.610687, 0.486, 1.4351145, 0.486, -3.6335878
0.0579706, -0.0149386, 0.49275, 0.0047607, 0.49275, -1.0089111, 0.49275, -0.15271, 0.49275, 0.6870229, 0.49275, 0.870229, 0.49275, -3.389313
0.0587647, -0.0169528, 0.4995, 0.0001221, 0.4995, -1.0074463, 0.4995, -0.1522217, 0.4995, 0.8778626, 0.4995, 0.5114504, 0.4995, -3.5267177
0.0595588, -0.0159457, 0.50625, 0.0001831, 0.50625, -1.0033569, 0.50625, -0.1549072, 0.50625, 0.6946565, 0.50625, 0.5725191, 0.50625, -3.4503818
0.0603529, -0.0206455, 0.513, 0.0023804, 0.513, -1.0050049, 0.513, -0.1574707, 0.513, 0.3358779, 0.513, 0.5648855, 0.513, -3.519084
0.0611471, -0.023331, 0.51975, 0.0014038, 0.51975, -1.0067749, 0.51975, -0.1573486, 0.51975, 0.6793893, 0.51975, 0.5038168, 0.51975, -3.3587787
0.0619412, -0.0226596, 0.5265, 0.0048218, 0.5265, -1.0073853, 0.5265, -0.1550903, 0.5265, 0.6793893, 0.5265, 0.5343512, 0.5265, -3.259542
0.0627353, -0.0223239, 0.53325, 0.0074463, 0.53325, -1.0091553, 0.53325, -0.1523438, 0.53325, 0.5267175, 0.53325, 0.6564885, 0.53325, -3.2977099
0.0635294, -0.0204776, 0.54, 0.0061035, 0.54, -1.0108032, 0.54, -0.1516724, 0.54, 0.6793893, 0.54, 0.4503817, 0.54, -3.3282442
0.0643235, -0.0171206, 0.54675, -0.0012817, 0.54675, -1.0075684, 0.54675, -0.1564941, 0.54675, 0.7557252, 0.54675, 0.0763359, 0.54675, -3.2442749
0.0651176, -0.0142672, 0.5535, -0.0020142, 0.5535, -1.0074463, 0.5535, -0.1548462, 0.5535, 0.8854962, 0.5535, -0.4503817, 0.5535, -3.1908398
0.0659118, -0.0142672, 0.56025, -0.0022583, 0.56025, -1.0064087, 0.56025, -0.1594849, 0.56025, 0.7480916, 0.56025, -0.6717557, 0.56025, -3.2290077
0.0667059, -0.0135958, 0.567, 0.0012817, 0.567, -1.0081177, 0.567, -0.1553345, 0.567, 0.5267175, 0.567, -0.4427481, 0.567, -3.3206108
0.0675, -0.0125887, 0.57375, 0.0029297, 0.57375, -1.007019, 0.57375, -0.1464233, 0.57375, 0.6259542, 0.57375, -0.0305344, 0.57375, -3.351145
0.0682941, -0.0129244, 0.5805, 0.0075684, 0.5805, -1.0111084, 0.5805, -0.1465454, 0.5805, 0.8015267, 0.5805, 0.1908397, 0.5805, -3.2061069
0.0690882, -0.0135958, 0.58725, 0.006897, 0.58725, -1.0090332, 0.58725, -0.1466675, 0.58725, 0.7557252, 0.58725, -0.1221374, 0.58725, -3.1145039
0.0698824, -0.0152743, 0.594, 0.0048828, 0.594, -1.006897, 0.594, -0.149353, 0.594, 1.0687023, 0.594, -0.4198473, 0.594, -3.1221373
0.0706765, -0.0157778, 0.60075, 0.0072021, 0.60075, -1.0057373, 0.60075, -0.1516113, 0.60075, 1, 0.60075, -0.4351145, 0.60075, -3
0.0714706, -0.0135958, 0.6075, 0.0072021, 0.6075, -1.0091553, 0.6075, -0.152832, 0.6075, 0.9541985, 0.6075, -0.5038168, 0.6075, -3.1679389
0.0722647, -0.0151064, 0.61425, 0.0094604, 0.61425, -1.0053711, 0.61425, -0.1519165, 0.61425, 1.0152671, 0.61425, -0.2061069, 0.61425, -3.0992367
0.0730588, -0.012253, 0.621, 0.0131836, 0.621, -1.0027466, 0.621, -0.1499023, 0.621, 0.9847328, 0.621, -0.0992366, 0.621, -2.9770992
0.0738529, -0.0135958, 0.62775, 0.0110474, 0.62775, -1.0012207, 0.62775, -0.1497803, 0.62775, 0.8244275, 0.62775, -0.0229008, 0.62775, -2.8778627
0.0746471, -0.0135958, 0.6345, 0.0114136, 0.6345, -1.0033569, 0.6345, -0.1489868, 0.6345, 0.778626, 0.6345, 0.0687023, 0.6345, -2.648855
0.0754412, -0.0109102, 0.64125, 0.0113525, 0.64125, -1.0046387, 0.64125, -0.1488037, 0.64125, 0.5954198, 0.64125, 0.2824427, 0.64125, -2.9007633
0.0762353, -0.0109102, 0.648, 0.0111084, 0.648, -1.0062866, 0.648, -0.1486206, 0.648, 0.6259542, 0.648, 0.5801527, 0.648, -2.9465649
0.0770294, -0.0105745, 0.65475, 0.0064087, 0.65475, -1.0083618, 0.65475, -0.1496582, 0.65475, 0.7633588, 0.65475, 0.6335878, 0.65475, -2.7251909
0.0778235, -0.0105745, 0.6615, 0.0031128, 0.6615, -1.0044556, 0.6615, -0.1499023, 0.6615, 0.6793893, 0.6615, 0.5572519, 0.6615, -2.5572519
0.0786176, -0.0104067, 0.66825, -0.0027466, 0.66825, -1.0045776, 0.66825, -0.1487427, 0.66825, 0.7862595, 0.66825, 0.4198473, 0.66825, -2.7557251
0.0794118, -0.0092317, 0.675, -0.0032349, 0.675, -1.0115967, 0.675, -0.149292, 0.675, 0.6793893, 0.675, 0.1526718, 0.675, -2.6335878
0.0802059, -0.0090639, 0.68175, 0.0001831, 0.68175, -1.0095825, 0.68175, -0.1472778, 0.68175, 0.3740458, 0.68175, 0.0381679, 0.68175, -2.6412213
0.081, -0.0102388, 0.6885, 0.0001831, 0.6885, -1.0109863, 0.6885, -0.1490479, 0.6885, 0.4732825, 0.6885, 0.2519084, 0.6885, -2.7938931
0.0817941, -0.0115816, 0.69525, 0.0029907, 0.69525, -1.0065918, 0.69525, -0.1498413, 0.69525, 0.5877863, 0.69525, 0.129771, 0.69525, -2.5038168
0.0825882, -0.0097353, 0.702, 0.0014648, 0.702, -1.0029297, 0.702, -0.1540527, 0.702, 0.7251908, 0.702, -0.480916, 0.702, -2.4732823
0.0833824, -0.012253, 0.70875, 0.003479, 0.70875, -1.0057373, 0.70875, -0.152771, 0.70875, 0.7480916, 0.70875, -0.6259542, 0.70875, -2.5496182
0.0841765, -0.0115816, 0.7155, 0.0078735, 0.7155, -1.0080566, 0.7155, -0.1564941, 0.7155, 0.5648855, 0.7155, -0.3358779, 0.7155, -2.5419848
0.0849706, -0.0139315, 0.72225, 0.0108032, 0.72225, -1.0055542, 0.72225, -0.1560669, 0.72225, 0.5725191, 0.72225, 0.0610687, 0.72225, -2.519084
0.0857647, -0.0169528, 0.729, 0.0100708, 0.729, -1.0073242, 0.729, -0.1578979, 0.729, 0.5648855, 0.729, 0.1984733, 0.729, -2.4427481
0.0865588, -0.0162814, 0.73575, 0.0135498, 0.73575, -1.0055542, 0.73575, -0.1583862, 0.73575, 0.4656489, 0.73575, 0.7862595, 0.73575, -2.5419848
0.0873529, -0.0166171, 0.7425, 0.0144653, 0.7425, -1.006897, 0.7425, -0.15625, 0.7425, 0.5725191, 0.7425, 1.1755725, 0.7425, -2.5572519
0.0881471, -0.0166171, 0.74925, 0.0112305, 0.74925, -1.0108643, 0.74925, -0.1479492, 0.74925, 0.3206107, 0.74925, 1.7022901, 0.74925, -2.4732823
0.0889412, -0.0196384, 0.756, 0.0066528, 0.756, -1.0095825, 0.756, -0.1464844, 0.756, 0.6030535, 0.756, 1.7633588, 0.756, -2.3816793
0.0897353, -0.0206455, 0.76275, -0.0005493, 0.76275, -1.0066528, 0.76275, -0.1490479, 0.76275, 0.9160305, 0.76275, 1.6717557, 0.76275, -2.2824428
0.0905294, -0.0182956, 0.7695, -0.0020142, 0.7695, -1.0037231, 0.7695, -0.1531982, 0.7695, 1.0076336, 0.7695, 1.2671756, 0.7695, -2.2748091
0.0913235, -0.0169528, 0.77625, -0.003479, 0.77625, -1.0032349, 0.77625, -0.1536865, 0.77625, 0.7022901, 0.77625, 1.0610687, 0.77625, -2.221374
0.0921176, -0.0129244, 0.783, -0.0003052, 0.783, -1.0087891, 0.783, -0.1535645, 0.783, 0.6717557, 0.783, 1.2137405, 0.783, -2.3435113
0.0929118, -0.0125887, 0.78975, 0.001709, 0.78975, -1.012085, 0.78975, -0.1528931, 0.78975, 1.0152671, 0.78975, 1.2137405, 0.78975, -2.3587787
0.0937059, -0.0172885, 0.7965, 0, 0.7965, -1.0115967, 0.7965, -0.1550903, 0.7965, 1.2824427, 0.7965, 0.7099237, 0.7965, -2.4122138
0.0945, -0.0179599, 0.80325, -0.0015869, 0.80325, -1.0067749, 0.80325, -0.1588745, 0.80325, 1.3816794, 0.80325, 0.4274809, 0.80325, -2.4351146
0.0952941, -0.0119173, 0.81, 0.0021362, 0.81, -1.00177, 0.81, -0.1671143, 0.81, 1.3969465, 0.81, 0.5572519, 0.81, -2.1984732
0.0960882, -0.0078889, 0.81675, 0.0023804, 0.81675, -1.0012817, 0.81675, -0.1688232, 0.81675, 1.3816794, 0.81675, 0.5725191, 0.81675, -2.3664122
0.0968824, -0.0097353, 0.8235, 0.0009766, 0.8235, -1.0024414, 0.8235, -0.1682739, 0.8235, 1.2290076, 0.8235, 1.0305344, 0.8235, -2.5038168
0.0976765, -0.0099031, 0.83025, 0.0031738, 0.83025, -1.0021973, 0.83025, -0.1671143, 0.83025, 1.2900764, 0.83025, 1.480916, 0.83025, -2.6564887
0.0984706, -0.0102388, 0.837, 0.0001831, 0.837, -1.0042725, 0.837, -0.1619263, 0.837, 1.1908396, 0.837, 1.3358779, 0.837, -2.519084
0.0992647, -0.0095674, 0.84375, -0.0026245, 0.84375, -1.0064697, 0.84375, -0.15979, 0.84375, 1.221374, 0.84375, 1.2824427, 0.84375, -2.519084
0.1000588, -0.0109102, 0.8505, -0.0001831, 0.8505, -1.0097656, 0.8505, -0.1549072, 0.8505, 1.4503816, 0.8505, 1.2748091, 0.8505, -2.7099237
0.1008529, -0.0142672, 0.85725, -0.0039673, 0.85725, -1.0110474, 0.85725, -0.151062, 0.85725, 1.4503816, 0.85725, 1.0992366, 0.85725, -2.5954199
0.1016471, -0.0162814, 0.864, -0.0054932, 0.864, -1.0084839, 0.864, -0.1516724, 0.864, 1.5877863, 0.864, 0.8549618, 0.864, -2.6335878
0.1024412, -0.0169528, 0.87075, -0.00354, 0.87075, -1.0105591, 0.87075, -0.1480103, 0.87075, 1.5954199, 0.87075, 0.8167939, 0.87075, -2.5954199
0.1032353, -0.0169528, 0.8775, -0.0005493, 0.8775, -1.0079346, 0.8775, -0.1451416, 0.8775, 1.5572519, 0.8775, 0.8549618, 0.8775, -2.480916
0.1040294, -0.0169528, 0.88425, 0.0036011, 0.88425, -1.0101929, 0.88425, -0.1464233, 0.88425, 1.6946565, 0.88425, 1.0229008, 0.88425, -2.4580152
0.1048235, -0.0164492, 0.891, 0.0041504, 0.891, -1.005188, 0.891, -0.1508789, 0.891, 1.8396946, 0.891, 1.0152671, 0.891, -2.5114503
0.1056176, -0.0152743, 0.89775, 0.0029297, 0.89775, -1.0027466, 0.89775, -0.15448, 0.89775, 2.0687022, 0.89775, 0.9847328, 0.89775, -2.5038168
0.1064118, -0.0162814, 0.9045, 0.0042114, 0.9045, -1.0072632, 0.9045, -0.1582031, 0.9045, 1.8320611, 0.9045, 0.9847328, 0.9045, -2.648855
0.1072059, -0.018967, 0.91125, 0.0047607, 0.91125, -1.0045776, 0.91125, -0.1558838, 0.91125, 1.3740458, 0.91125, 1.5648855, 0.91125, -2.5572519
0.108, -0.0229953, 0.918, 0.0027466, 0.918, -1.0037842, 0.918, -0.1519775, 0.918, 1.7099236, 0.918, 1.648855, 0.918, -2.5114503
0.1087941, -0.0270237, 0.92475, 0.0059814, 0.92475, -1.0071411, 0.92475, -0.1576538, 0.92475, 1.8473282, 0.92475, 1.5801526, 0.92475, -2.5267177
0.1095882, -0.0243381, 0.9315, 0.003418, 0.9315, -1.006897, 0.9315, -0.1575317, 0.9315, 1.7175573, 0.9315, 1.7175573, 0.9315, -2.3740458
0.1103824, -0.0240024, 0.93825, 0.0024414, 0.93825, -1.0061646, 0.93825, -0.1523438, 0.93825, 1.8625954, 0.93825, 2.1221373, 0.93825, -2.2519083
0.1111765, -0.0250095, 0.945, 0.0026855, 0.945, -1.0053101, 0.945, -0.1523438, 0.945, 1.8473282, 0.945, 2.221374, 0.945, -2.3740458
0.1119706, -0.0243381, 0.95175, -0.0031738, 0.95175, -1.0059204, 0.95175, -0.1521606, 0.95175, 1.7022901, 0.95175, 1.9694656, 0.95175, -2.5267177
0.1127647, -0.0216526, 0.9585, -0.0042114, 0.9585, -1.005188, 0.9585, -0.1575317, 0.9585, 1.961832, 0.9585, 1.7022901, 0.9585, -2.4580152
0.1135588, -0.0193027, 0.96525, -0.0080566, 0.96525, -1.003418, 0.96525, -0.1513062, 0.96525, 1.7709924, 0.96525, 1.7251909, 0.96525, -2.6641221
0.1143529, -0.0182956, 0.972, -0.0075073, 0.972, -1.0023193, 0.972, -0.1524048, 0.972, 1.6183206, 0.972, 1.7557251, 0.972, -2.6793892
0.1151471, -0.018967, 0.97875, -0.0057373, 0.97875, -1.0091553, 0.97875, -0.1452637, 0.97875, 1.4427481, 0.97875, 1.8396946, 0.97875, -2.7175572
0.1159412, -0.0219883, 0.9855, -0.0036621, 0.9855, -1.0067749, 0.9855, -0.144165, 0.9855, 1.740458, 0.9855, 1.9236641, 0.9855, -2.610687
0.1167353, -0.0229953, 0.99225, -0.0088501, 0.99225, -1.0044556, 0.99225, -0.142334, 0.99225, 1.9541985, 0.99225, 1.7709924, 0.99225, -2.8091602
0.1175294, -0.01561, 0.999, -0.0045776, 0.999, -1.0046997, 0.999, -0.1414795, 0.999, 1.870229, 0.999, 1.648855, 0.999, -2.778626
0.1183235, -0.01561, 1.00575, -0.0030518, 1.00575, -1.0037842, 1.00575, -0.1427612, 1.00575, 1.8931298, 1.00575, 1.5877863, 1.00575, -2.7328243
0.1191176, -0.0172885, 1.0125, -0.0015259, 1.0125, -1.0057373, 1.0125, -0.1483765, 1.0125, 1.908397, 1.0125, 1.389313, 1.0125, -2.6335878
0.1199118, -0.0139315, 1.01925, -0.0021973, 1.01925, -1.0073242, 1.01925, -0.1494141, 1.01925, 1.8549619, 1.01925, 1.2824427, 1.01925, -2.7022901
0.1207059, -0.01561, 1.026, 0.0002441, 1.026, -1.0036011, 1.026, -0.1523438, 1.026, 1.8091604, 1.026, 1.2671756, 1.026, -2.7557251
0.1215, -0.0164492, 1.03275, 0.0025024, 1.03275, -1.0026245, 1.03275, -0.1548462, 1.03275, 1.7099236, 1.03275, 1.2824427, 1.03275, -2.8015268
0.1222941, -0.01561, 1.0395, 0.0059814, 1.0395, -1.0045776, 1.0395, -0.1574097, 1.0395, 1.610687, 1.0395, 1.389313, 1.0395, -2.9007633
0.1230882, -0.0166171, 1.04625, 0.0012207, 1.04625, -1.0062866, 1.04625, -0.1577148, 1.04625, 1.6564885, 1.04625, 1.4122137, 1.04625, -2.7099237
0.1238824, -0.0169528, 1.053, 0.0027466, 1.053, -1.0092163, 1.053, -0.1591187, 1.053, 1.6717557, 1.053, 1.5267175, 1.053, -2.8778627
0.1246765, -0.01561, 1.05975, 0.0009766, 1.05975, -1.0063477, 1.05975, -0.1535034, 1.05975, 1.6030535, 1.05975, 2.1374047, 1.05975, -2.9160306
0.1254706, -0.0130922, 1.0665, -0.0050049, 1.0665, -1.0067749, 1.0665, -0.149353, 1.0665, 1.519084, 1.0665, 2.5725191, 1.0665, -2.8625953
0.1262647, -0.0105745, 1.07325, -0.0023804, 1.07325, -1.0073242, 1.07325, -0.1464844, 1.07325, 1.6641221, 1.07325, 2.5725191, 1.07325, -2.7099237
0.1270588, -0.0112459, 1.08, -0.007019, 1.08, -1.0083618, 1.08, -0.1503906, 1.08, 1.8091604, 1.08, 2.3206108, 1.08, -2.7328243
0.1278529, -0.0152743, 1.08675, -0.0091553, 1.08675, -1.0075073, 1.08675, -0.1518555, 1.08675, 1.9541985, 1.08675, 1.9923664, 1.08675, -2.9389312
0.1286471, -0.012253, 1.0935, -0.0136108, 1.0935, -1.0006104, 1.0935, -0.1500854, 1.0935, 1.8015267, 1.0935, 1.7175573, 1.0935, -2.8854961
0.1294412, -0.0127565, 1.10025, -0.0126343, 1.10025, -1.0029297, 1.10025, -0.1472778, 1.10025, 1.5725191, 1.10025, 1.6183206, 1.10025, -3.0839694
0.1302353, -0.0135958, 1.107, -0.0079346, 1.107, -1.0076294, 1.107, -0.1467285, 1.107, 1.6717557, 1.107, 1.5801526, 1.107, -2.9389312
0.1310294, -0.0112459, 1.11375, -0.0048218, 1.11375, -1.0058594, 1.11375, -0.140564, 1.11375, 1.7862595, 1.11375, 1.6564885, 1.11375, -3.0229008
0.1318235, -0.0095674, 1.1205, -0.0039673, 1.1205, -1.0074463, 1.1205, -0.144043, 1.1205, 1.9236641, 1.1205, 1.5114504, 1.1205, -3
0.1326176, -0.0109102, 1.12725, -0.0038452, 1.12725, -1.0056763, 1.12725, -0.1433105, 1.12725, 1.8473282, 1.12725, 1.4885496, 1.12725, -3.0610688
0.1334118, -0.0152743, 1.134, -0.0039062, 1.134, -1.0044556, 1.134, -0.1472778, 1.134, 1.8396946, 1.134, 1.2671756, 1.134, -2.908397
0.1342059, -0.0125887, 1.14075, -0.0023193, 1.14075, -1.0062256, 1.14075, -0.1504517, 1.14075, 1.8396946, 1.14075, 1.091603, 1.14075, -3.1145039
0.135, -0.0146029, 1.1475, -0.0009155, 1.1475, -1.0059814, 1.1475, -0.1522827, 1.1475, 1.8473282, 1.1475, 1.2900764, 1.1475, -3.0458016
0.1357941, -0.0115816, 1.15425, -0.0031128, 1.15425, -1.0064697, 1.15425, -0.1539917, 1.15425, 1.7480916, 1.15425, 1.1068702, 1.15425, -3.2137403
0.1365882, -0.0119173, 1.161, -0.0042725, 1.161, -1.0084839, 1.161, -0.1515503, 1.161, 1.740458, 1.161, 0.8167939, 1.161, -3.2061069
0.1373824, -0.0109102, 1.16775, -0.0037842, 1.16775, -1.0103149, 1.16775, -0.1569214, 1.16775, 2.0076337, 1.16775, 0.6335878, 1.16775, -3.129771
0.1381765, -0.008896, 1.1745, -0.0033569, 1.1745, -1.0073853, 1.1745, -0.156311, 1.1745, 2.1068702, 1.1745, 0.4580153, 1.1745, -3.1984732
0.1389706, -0.0092317, 1.18125, -0.0059814, 1.18125, -1.0078735, 1.18125, -0.1605835, 1.18125, 2.2061069, 1.18125, 0.5496183, 1.18125, -3.2442749
0.1397647, -0.0115816, 1.188, -0.0024414, 1.188, -1.0076904, 1.188, -0.1564941, 1.188, 2.0534351, 1.188, 0.5954198, 1.188, -3.2977099
0.1405588, -0.0077211, 1.19475, -0.0059814, 1.19475, -1.0070801, 1.19475, -0.1557617, 1.19475, 2.1755726, 1.19475, 0.4961832, 1.19475, -3.4427481
0.1413529, -0.0068818, 1.2015, -0.0063477, 1.2015, -1.0073853, 1.2015, -0.1561279, 1.2015, 2.0992367, 1.2015, 0.4427481, 1.2015, -3.5038168
0.1421471, -0.0075532, 1.20825, -0.0085449, 1.20825, -1.0083008, 1.20825, -0.1544189, 1.20825, 2.1832061, 1.20825, 0.4580153, 1.20825, -3.6030533
0.1429412, -0.008896, 1.215, -0.0115356, 1.215, -1.0075073, 1.215, -0.1531982, 1.215, 2.4198472, 1.215, 0.4580153, 1.215, -3.648855
0.1437353, -0.011078, 1.22175, -0.0090942, 1.22175, -1.0098877, 1.22175, -0.1502686, 1.22175, 2.3206108, 1.22175, 0.1526718, 1.22175, -3.6946564
0.1445294, -0.0109102, 1.2285, -0.0098267, 1.2285, -1.0098267, 1.2285, -0.149353, 1.2285, 2.480916, 1.2285, -0.1755725, 1.2285, -3.7862597
0.1453235, -0.0115816, 1.23525, -0.0092163, 1.23525, -1.0097656, 1.23525, -0.1481323, 1.23525, 2.5496182, 1.23525, -0.389313, 1.23525, -3.6259542
0.1461176, -0.0112459, 1.242, -0.0095825, 1.242, -1.0093384, 1.242, -0.149231, 1.242, 2.6564887, 1.242, -0.8854962, 1.242, -3.7709923
0.1469118, -0.012253, 1.24875, -0.0083008, 1.24875, -1.010437, 1.24875, -0.149231, 1.24875, 2.7175572, 1.24875, -1.389313, 1.24875, -3.8473282
0.1477059, -0.012253, 1.2555, -0.0045166, 1.2555, -1.0112915, 1.2555, -0.1494751, 1.2555, 2.8854961, 1.2555, -1.4198474, 1.2555, -3.7022901
0.1485, -0.0142672, 1.26225, -0.0020752, 1.26225, -1.008667, 1.26225, -0.1517944, 1.26225, 2.778626, 1.26225, -1.740458, 1.26225, -3.8854961
0.1492941, -0.01561, 1.269, 0.0042725, 1.269, -1.0062256, 1.269, -0.1500854, 1.269, 2.8625953, 1.269, -1.6259542, 1.269, -3.9923663
0.1500882, -0.0171206, 1.27575, 0.0091553, 1.27575, -1.0054321, 1.27575, -0.1497803, 1.27575, 2.7328243, 1.27575, -1.351145, 1.27575, -3.908397
0.1508824, -0.0179599, 1.2825, 0.0109863, 1.2825, -1.0065308, 1.2825, -0.1535645, 1.2825, 2.7328243, 1.2825, -1.2290076, 1.2825, -3.9160306
0.1516765, -0.01561, 1.28925, 0.0103149, 1.28925, -1.0066528, 1.28925, -0.1486816, 1.28925, 2.7938931, 1.28925, -0.9236641, 1.28925, -3.9312978
0.1524706, -0.0146029, 1.296, 0.0007935, 1.296, -1.0041504, 1.296, -0.149292, 1.296, 2.6793892, 1.296, -0.7862595, 1.296, -3.8854961
0.1532647, -0.0182956, 1.30275, -0.0024414, 1.30275, -1.0042114, 1.30275, -0.1499634, 1.30275, 2.8625953, 1.30275, -0.5038168, 1.30275, -3.8625953
0.1540588, -0.017792, 1.3095, -0.0073242, 1.3095, -1.0062866, 1.3095, -0.1471558, 1.3095, 2.8167939, 1.3095, -0.8778626, 1.3095, -3.8244274
0.1548529, -0.0193027, 1.31625, -0.0048828, 1.31625, -1.005249, 1.31625, -0.1481323, 1.31625, 2.870229, 1.31625, -1.1145039, 1.31625, -3.8396947
0.1556471, -0.018967, 1.323, -0.0042725, 1.323, -1.0077515, 1.323, -0.1473389, 1.323, 3.0229008, 1.323, -1.480916, 1.323, -3.7175572
0.1564412, -0.0193027, 1.32975, -0.0046997, 1.32975, -1.0073242, 1.32975, -0.1473999, 1.32975, 3.0687022, 1.32975, -1.6793894, 1.32975, -3.7480917
0.1572353, -0.0176242, 1.3365, -0.0033569, 1.3365, -1.006958, 1.3365, -0.1505737, 1.3365, 3.1145039, 1.3365, -1.8167939, 1.3365, -3.9236641
0.1580294, -0.0193027, 1.34325, -0.0025024, 1.34325, -1.0072632, 1.34325, -0.1486206, 1.34325, 3.1374047, 1.34325, -1.8167939, 1.34325, -4.0152674
0.1588235, -0.0166171, 1.35, -0.0007324, 1.35, -1.0071411, 1.35, -0.1467285, 1.35, 3.1221373, 1.35, -1.778626, 1.35, -4.0229006
0.1596176, -0.0169528, 1.35675, -0.0012817, 1.35675, -1.0066528, 1.35675, -0.1499634, 1.35675, 3.0610688, 1.35675, -1.740458, 1.35675, -4.1984735
0.1604118, -0.0186313, 1.3635, -0.0004272, 1.3635, -1.0092163, 1.3635, -0.1500854, 1.3635, 3.0610688, 1.3635, -1.8396946, 1.3635, -4.1603055
0.1612059, -0.0172885, 1.37025, -0.0013428, 1.37025, -1.0108643, 1.37025, -0.1542358, 1.37025, 3.1679389, 1.37025, -2.0534351, 1.37025, -4.1221375
0.162, -0.0196384, 1.377, -0.0043945, 1.377, -1.0067749, 1.377, -0.1515503, 1.377, 3.1984732, 1.377, -1.9694656, 1.377, -4.2519083
0.1627941, -0.0209812, 1.38375, 0.0004272, 1.38375, -1.0079956, 1.38375, -0.1487427, 1.38375, 3.2519083, 1.38375, -2.0610688, 1.38375, -4.3129773
0.1635882, -0.0193027, 1.3905, 0.0027466, 1.3905, -1.0064697, 1.3905, -0.1488037, 1.3905, 3.2900763, 1.3905, -1.961832, 1.3905, -4.3587785
0.1643824, -0.0179599, 1.39725, 0.0042114, 1.39725, -1.0019531, 1.39725, -0.1446533, 1.39725, 3.1832061, 1.39725, -1.8244275, 1.39725, -4.3358779
0.1651765, -0.0162814, 1.404, 0.0025024, 1.404, -1.0028687, 1.404, -0.1438599, 1.404, 3.2748091, 1.404, -1.6564885, 1.404, -4.2366414
0.1659706, -0.0164492, 1.41075, 0.0030518, 1.41075, -1.0026245, 1.41075, -0.1398926, 1.41075, 3.2900763, 1.41075, -1.480916, 1.41075, -4.4198475
0.1667647, -0.0149386, 1.4175, -0.0001831, 1.4175, -1.0026855, 1.4175, -0.1357422, 1.4175, 3.2061069, 1.4175, -1.1603054, 1.4175, -4.5877862
0.1675588, -0.0149386, 1.42425, -0.0025635, 1.42425, -1.0043335, 1.42425, -0.135437, 1.42425, 3.1755726, 1.42425, -1.351145, 1.42425, -4.5496182
0.1683529, -0.01561, 1.431, -0.0039673, 1.431, -1.0046997, 1.431, -0.1333618, 1.431, 2.9465649, 1.431, -1.4732825, 1.431, -4.4045801
0.1691471, -0.0132601, 1.43775, -0.0029297, 1.43775, -1.0059814, 1.43775, -0.1262207, 1.43775, 2.8091602, 1.43775, -1.4732825, 1.43775, -4.6106873
0.1699412, -0.0147707, 1.4445, 0.0064697, 1.4445, -1.0095825, 1.4445, -0.1275635, 1.4445, 2.7328243, 1.4445, -1.351145, 1.4445, -4.3129773
0.1707353, -0.0146029, 1.45125, 0.0184937, 1.45125, -1.0084839, 1.45125, -0.1298218, 1.45125, 2.7862597, 1.45125, -1.0229008, 1.45125, -4.2366414
0.1715294, -0.0129244, 1.458, 0.0214844, 1.458, -1.0061035, 1.458, -0.1304932, 1.458, 3.0076337, 1.458, -0.8167939, 1.458, -4.038168
0.1723235, -0.0104067, 1.46475, 0.0186157, 1.46475, -1.0062256, 1.46475, -0.1325684, 1.46475, 2.4274809, 1.46475, -0.519084, 1.46475, -4.0687022
0.1731176, -0.0115816, 1.4715, 0.0144043, 1.4715, -1.0070801, 1.4715, -0.1300659, 1.4715, 2.1526718, 1.4715, 0.0534351, 1.4715, -3.8549619
0.1739118, -0.0102388, 1.47825, 0.0109863, 1.47825, -1.0036011, 1.47825, -0.1314697, 1.47825, 2.0839694, 1.47825, 0.4503817, 1.47825, -3.8167939
0.1747059, -0.012253, 1.485, 0.0106201, 1.485, -1.0014648, 1.485, -0.131958, 1.485, 2.2442749, 1.485, 0.4656489, 1.485, -3.6717558
0.1755, -0.012253, 1.49175, 0.0108032, 1.49175, -1.0013428, 1.49175, -0.1364136, 1.49175, 2.0687022, 1.49175, 0.4427481, 1.49175, -3.7480917
0.1762941, -0.0109102, 1.4985, 0.0081787, 1.4985, -1.0056763, 1.4985, -0.1348877, 1.4985, 1.9770992, 1.4985, 0.6717557, 1.4985, -3.7099237
0.1770882, -0.0115816, 1.50525, 0.0057373, 1.50525, -1.0067139, 1.50525, -0.1361084, 1.50525, 2, 1.50525, 0.5801527, 1.50525, -3.6717558
0.1778824, -0.0105745, 1.512, 0.0003662, 1.512, -1.0025635, 1.512, -0.1411743, 1.512, 1.8549619, 1.512, 0.351145, 1.512, -3.7175572
0.1786765, -0.0142672, 1.51875, -0.0056152, 1.51875, -1.0001221, 1.51875, -0.1387329, 1.51875, 1.6335878, 1.51875, 0.1374046, 1.51875, -3.7480917
0.1794706, -0.0176242, 1.5255, -0.0043335, 1.5255, -1.0050049, 1.5255, -0.1394653, 1.5255, 1.0305344, 1.5255, -0.0229008, 1.5255, -3.8167939
0.1802647, -0.0152743, 1.53225, -0.0040894, 1.53225, -1.0053711, 1.53225, -0.1397705, 1.53225, 0.5267175, 1.53225, -0.2824427, 1.53225, -3.8320611
0.1810588, -0.0139315, 1.539, -0.0007324, 1.539, -1.0011597, 1.539, -0.1317749, 1.539, -0.4580153, 1.539, -1.5725191, 1.539, -3.7709923
0.1818529, -0.0142672, 1.54575, 0.0011597, 1.54575, -1.0001221, 1.54575, -0.12677, 1.54575, -1.8167939, 1.54575, -3.0152671, 1.54575, -3.740458
0.1826471, -0.0139315, 1.5525, -0.0004272, 1.5525, -1.0004883, 1.5525, -0.1397095, 1.5525, -4.0305343, 1.5525, -4.0687022, 1.5525, -3.8320611
0.1834412, -0.0139315, 1.55925, -0.0128784, 1.55925, -1.008606, 1.55925, -0.1335449, 1.55925, -5.7099237, 1.55925, -4.4885497, 1.55925, -4.1297708
0.1842353, -0.0159457, 1.566, -0.0228271, 1.566, -1.0114746, 1.566, -0.1306152, 1.566, -5.5801525, 1.566, -5.5801525, 1.566, -3.9160306
0.1850294, -0.0149386, 1.57275, -0.0298462, 1.57275, -1.0140381, 1.57275, -0.1365356, 1.57275, -4.8931298, 1.57275, -5.7480917, 1.57275, -3.6335878
0.1858235, -0.0169528, 1.5795, -0.0183105, 1.5795, -1.0145264, 1.5795, -0.1345825, 1.5795, -4.1145039, 1.5795, -5.0839696, 1.5795, -3.6717558
0.1866176, -0.018967, 1.58625, -0.0032349, 1.58625, -1.0063477, 1.58625, -0.1248779, 1.58625, -3.9770992, 1.58625, -5.1984735, 1.58625, -4.0076337
0.1874118, -0.0166171, 1.593, 0.0148315, 1.593, -1.0010986, 1.593, -0.1315308, 1.593, -3.870229, 1.593, -5.6030536, 1.593, -4.2366414
0.1882059, -0.0196384, 1.59975, 0.0195923, 1.59975, -0.9995728, 1.59975, -0.1431274, 1.59975, -3.7099237, 1.59975, -5.8778625, 1.59975, -3.9312978
0.189, -0.0193027, 1.6065, 0.0203247, 1.6065, -0.9993896, 1.6065, -0.1459351, 1.6065, -3.5801528, 1.6065, -5.3740458, 1.6065, -3.6412213
0.1897941, -0.0182956, 1.61325, 0.0184326, 1.61325, -1.0025635, 1.61325, -0.1455688, 1.61325, -3.8015268, 1.61325, -4.7862597, 1.61325, -3.610687
0.1905882, -0.0162814, 1.62, 0.0150146, 1.62, -1.0006104, 1.62, -0.1682739, 1.62, -4.4732823, 1.62, -5.519084, 1.62, -3.6641221
0.1913824, -0.0159457, 1.62675, 0.0087891, 1.62675, -0.9989014, 1.62675, -0.1669312, 1.62675, -5.6717558, 1.62675, -5.8091602, 1.62675, -3.7099237
0.1921765, -0.0162814, 1.6335, 0.0043335, 1.6335, -1.0056152, 1.6335, -0.1567993, 1.6335, -6.3206105, 1.6335, -5.3740458, 1.6335, -3.8091602
0.1929706, -0.0099031, 1.64025, 0.0043335, 1.64025, -1.0062256, 1.64025, -0.1533813, 1.64025, -6.1908398, 1.64025, -5.8015265, 1.64025, -3.648855
0.1937647, -0.0099031, 1.647, -0.0038452, 1.647, -1.010437, 1.647, -0.1559448, 1.647, -6.3816795, 1.647, -6.7099237, 1.647, -3.480916
0.1945588, -0.0119173, 1.65375, -0.0160522, 1.65375, -1.0151367, 1.65375, -0.1646729, 1.65375, -5.8473282, 1.65375, -7.2061067, 1.65375, -3.480916
0.1953529, -0.0095674, 1.6605, -0.0236206, 1.6605, -1.0204468, 1.6605, -0.1651001, 1.6605, -4.4885497, 1.6605, -7.4198475, 1.6605, -3.3358779
0.1961471, -0.0095674, 1.66725, -0.0209961, 1.66725, -1.0233765, 1.66725, -0.1543579, 1.66725, -4.1679387, 1.66725, -8.2290077, 1.66725, -3.1984732
0.1969412, -0.0109102, 1.674, -0.0125122, 1.674, -1.0240479, 1.674, -0.1618652, 1.674, -4.9465647, 1.674, -8.4656487, 1.674, -3.221374
0.1977353, -0.0114137, 1.68075, -0.0031738, 1.68075, -1.0202637, 1.68075, -0.1431885, 1.68075, -7.3587785, 1.68075, -9.3740454, 1.68075, -3.1679389
0.1985294, -0.0135958, 1.6875, -0.0063477, 1.6875, -1.015564, 1.6875, -0.1393433, 1.6875, -7.4656487, 1.6875, -9.679389, 1.6875, -2.8396947
0.1993235, -0.0169528, 1.69425, -0.0117188, 1.69425, -1.0144043, 1.69425, -0.1557007, 1.69425, -7.0305343, 1.69425, -10.282443, 1.69425, -2.6412213
0.2001176, -0.0186313, 1.701, -0.0109863, 1.701, -1.0073242, 1.701, -0.1487427, 1.701, -6.6641221, 1.701, -8.7251911, 1.701, -2.7480917
0.2009118, -0.018967, 1.70775, -0.0006104, 1.70775, -1.0043335, 1.70775, -0.1437378, 1.70775, -5.8702292, 1.70775, -7.4427481, 1.70775, -2.9770992
0.2017059, -0.0176242, 1.7145, 0.0082397, 1.7145, -1.0023804, 1.7145, -0.1450195, 1.7145, -4.8473282, 1.7145, -7.5725193, 1.7145, -3.1832061
0.2025, -0.0164492, 1.72125, 0.0186768, 1.72125, -1.0048218, 1.72125, -0.1416016, 1.72125, -3.9389312, 1.72125, -7.6412215, 1.72125, -3.0229008
0.2032941, -0.0159457, 1.728, 0.0289917, 1.728, -1.0020752, 1.728, -0.1538696, 1.728, -3.4351146, 1.728, -7.6412215, 1.728, -2.8625953
0.2040882, -0.0125887, 1.73475, 0.0282593, 1.73475, -0.9968262, 1.73475, -0.1671753, 1.73475, -3.6946564, 1.73475, -7.6335878, 1.73475, -2.6870229
0.2048824, -0.0129244, 1.7415, 0.0315552, 1.7415, -0.9910278, 1.7415, -0.1693726, 1.7415, -5.740458, 1.7415, -6.7175574, 1.7415, -2.7480917
0.2056765, -0.0137636, 1.74825, 0.0320435, 1.74825, -0.9850464, 1.74825, -0.1733398, 1.74825, -6.5343513, 1.74825, -5.9083967, 1.74825, -2.9389312
0.2064706, -0.0095674, 1.755, 0.0172119, 1.755, -0.9886475, 1.755, -0.1763916, 1.755, -6.4351144, 1.755, -3.9694657, 1.755, -3.1908398
0.2072647, -0.0095674, 1.76175, -0.0057983, 1.76175, -0.994751, 1.76175, -0.1671143, 1.76175, -6.221374, 1.76175, -5.2900763, 1.76175, -2.9389312
0.2080588, -0.0105745, 1.7685, -0.0240479, 1.7685, -1.0071411, 1.7685, -0.1461182, 1.7685, -7.0839696, 1.7685, -6.6106873, 1.7685, -3.038168
0.2088529, -0.0130922, 1.77525, -0.020813, 1.77525, -1.0076294, 1.77525, -0.1740723, 1.77525, -6.3282442, 1.77525, -8.1832066, 1.77525, -2.8091602
0.2096471, -0.0132601, 1.782, -0.0067749, 1.782, -1.0125122, 1.782, -0.1732788, 1.782, -6.0839696, 1.782, -7.9923663, 1.782, -2.5114503
0.2104412, -0.0139315, 1.78875, 0.00177, 1.78875, -1.0146484, 1.78875, -0.1503906, 1.78875, -5.9236641, 1.78875, -8.5038166, 1.78875, -2.5725191
0.2112353, -0.0135958, 1.7955, 0.0023193, 1.7955, -1.0136108, 1.7955, -0.1481323, 1.7955, -5.3969464, 1.7955, -8.7251911, 1.7955, -2.9236641
0.2120294, -0.0162814, 1.80225, -0.0004272, 1.80225, -1.0097046, 1.80225, -0.1525269, 1.80225, -5.6717558, 1.80225, -7.480916, 1.80225, -2.9465649
0.2128235, -0.0169528, 1.809, 0.0073242, 1.809, -0.9992676, 1.809, -0.1624756, 1.809, -7.0305343, 1.809, -5.8473282, 1.809, -2.9312978
0.2136176, -0.01561, 1.81575, 0.0272217, 1.81575, -1.0085449, 1.81575, -0.1821899, 1.81575, -7.7328243, 1.81575, -4.0458016, 1.81575, -3.0305343
0.2144118, -0.0186313, 1.8225, 0.0422363, 1.8225, -1.0096436, 1.8225, -0.1813354, 1.8225, -7.1374044, 1.8225, -1.9465649, 1.8225, -2.5725191
0.2152059, -0.0206455, 1.82925, 0.0366821, 1.82925, -1.0056763, 1.82925, -0.1651611, 1.82925, -6.7099237, 1.82925, -1.1908396, 1.82925, -2.4732823
0.216, -0.0203098, 1.836, 0.0187378, 1.836, -1.0050659, 1.836, -0.1655273, 1.836, -7.0992365, 1.836, -0.5801527, 1.836, -2.5877862
0.2167941, -0.0181277, 1.84275, 0.0007324, 1.84275, -1.0045776, 1.84275, -0.1589966, 1.84275, -7.5801525, 1.84275, -0.5419847, 1.84275, -2.5648854
0.2175882, -0.0199741, 1.8495, 0.0048828, 1.8495, -1.0079956, 1.8495, -0.1668701, 1.8495, -6.6870227, 1.8495, 0.1984733, 1.8495, -2.2366412
0.2183824, -0.0229953, 1.85625, 0.0073242, 1.85625, -1.0039062, 1.85625, -0.1704102, 1.85625, -5.7862597, 1.85625, 0.9312977, 1.85625, -2.3206108
0.2191765, -0.0253452, 1.863, 0.0071411, 1.863, -0.9976196, 1.863, -0.1662598, 1.863, -4.9770994, 1.863, 0.2671756, 1.863, -2.3816793
0.2199706, -0.0263523, 1.86975, 0.0053101, 1.86975, -0.994751, 1.86975, -0.1708984, 1.86975, -4.5343513, 1.86975, -0.2671756, 1.86975, -2.5725191
0.2207647, -0.0219883, 1.8765, 0.0081177, 1.8765, -0.9899902, 1.8765, -0.1685791, 1.8765, -4.519084, 1.8765, 0.1984733, 1.8765, -2.4351146
0.2215588, -0.0213169, 1.88325, 0.0119019, 1.88325, -0.9892578, 1.88325, -0.1674805, 1.88325, -4.3435116, 1.88325, 0.1526718, 1.88325, -2.4274809
0.2223529, -0.0209812, 1.89, 0.0123901, 1.89, -0.9923096, 1.89, -0.1864014, 1.89, -4.5877862, 1.89, 0.6717557, 1.89, -2.610687
0.2231471, -0.0172885, 1.89675, 0.0112305, 1.89675, -0.9978638, 1.89675, -0.1777954, 1.89675, -4.4580154, 1.89675, 1.6793894, 1.89675, -2.5572519
0.2239412, -0.0179599, 1.9035, 0.0033569, 1.9035, -1.0004272, 1.9035, -0.1685181, 1.9035, -4.2977099, 1.9035, 1.4961832, 1.9035, -2.7251909
0.2247353, -0.0186313, 1.91025, -0.0073242, 1.91025, -1.0012207, 1.91025, -0.1660156, 1.91025, -3.908397, 1.91025, 0.8091603, 1.91025, -2.8854961
0.2255294, -0.0169528, 1.917, -0.0118408, 1.917, -1.0011597, 1.917, -0.1779785, 1.917, -3.6183207, 1.917, 0.0076336, 1.917, -2.8015268
0.2263235, -0.0176242, 1.92375, -0.0149536, 1.92375, -1.0037231, 1.92375, -0.1766968, 1.92375, -2.8244274, 1.92375, 0.1068702, 1.92375, -3.0305343
0.2271176, -0.0196384, 1.9305, -0.0216675, 1.9305, -1.0007324, 1.9305, -0.1818848, 1.9305, -1.8778626, 1.9305, 0.1984733, 1.9305, -3.2061069
0.2279118, -0.0213169, 1.93725, -0.0141602, 1.93725, -1.0026855, 1.93725, -0.1776123, 1.93725, -1.351145, 1.93725, -0.2442748, 1.93725, -3.4885497
0.2287059, -0.0209812, 1.944, -0.0075073, 1.944, -1.0018921, 1.944, -0.177002, 1.944, -0.3740458, 1.944, -0.4122137, 1.944, -3.6641221
0.2295, -0.0181277, 1.95075, -0.0043945, 1.95075, -1.0007324, 1.95075, -0.1818237, 1.95075, -0.0763359, 1.95075, -0.2366412, 1.95075, -3.740458
0.2302941, -0.0176242, 1.9575, 0.0020142, 1.9575, -1.0042114, 1.9575, -0.1893921, 1.9575, -0.519084, 1.9575, 0.1984733, 1.9575, -4.0839696
0.2310882, -0.0129244, 1.96425, 0.0056763, 1.96425, -1.0039673, 1.96425, -0.1984863, 1.96425, -0.7099237, 1.96425, 0.2900763, 1.96425, -4.0763359
0.2318824, -0.0146029, 1.971, 0.0093994, 1.971, -0.9992676, 1.971, -0.1936035, 1.971, -0.4427481, 1.971, 0.9236641, 1.971, -3.8167939
0.2326765, -0.0139315, 1.97775, 0.0180664, 1.97775, -0.9900513, 1.97775, -0.1865845, 1.97775, -0.1450382, 1.97775, 2.4503818, 1.97775, -4.0458016
0.2334706, -0.0166171, 1.9845, 0.0229492, 1.9845, -0.9893799, 1.9845, -0.1762085, 1.9845, -0.3358779, 1.9845, 2.6870229, 1.9845, -4.1068702
0.2342647, -0.0152743, 1.99125, 0.0259399, 1.99125, -0.9949341, 1.99125, -0.1810913, 1.99125, -0.4503817, 1.99125, 3.0152671, 1.99125, -3.6030533
0.2350588, -0.0149386, 1.998, 0.0252686, 1.998, -0.9959717, 1.998, -0.1740112, 1.998, -0.6946565, 1.998, 2.740458, 1.998, -3.3816793
0.2358529, -0.0139315, 2.00475, 0.0241089, 2.00475, -0.9922485, 2.00475, -0.1664429, 2.00475, -0.5496183, 2.00475, 3.6946564, 2.00475, -3.3358779
0.2366471, -0.014435, 2.0115, 0.0250854, 2.0115, -0.9921265, 2.0115, -0.1664429, 2.0115, -0.6717557, 2.0115, 4.4351144, 2.0115, -3.1755726
0.2374412, -0.0151064, 2.01825, 0.0250854, 2.01825, -0.9963379, 2.01825, -0.1622925, 2.01825, -1.1145039, 2.01825, 4.4961834, 2.01825, -3.3740458
0.2382353, -0.0149386, 2.025, 0.0157471, 2.025, -0.9967651, 2.025, -0.1721802, 2.025, -1.2900764, 2.025, 5.4198475, 2.025, -2.9923663
0.2390294, -0.0142672, 2.03175, 0.0073853, 2.03175, -0.9971924, 2.03175, -0.1726074, 2.03175, -2.0305343, 2.03175, 5.1374044, 2.03175, -2.9007633
0.2398235, -0.0137636, 2.0385, -0.0053101, 2.0385, -1.0043945, 2.0385, -0.1729736, 2.0385, -3.3664122, 2.0385, 3.908397, 2.0385, -2.778626
0.2406176, -0.0112459, 2.04525, -0.0150146, 2.04525, -1.0078125, 2.04525, -0.1682739, 2.04525, -3.5038168, 2.04525, 3.7709923, 2.04525, -2.4427481
0.2414118, -0.0120851, 2.052, -0.019043, 2.052, -1.0031128, 2.052, -0.1781006, 2.052, -3.8778627, 2.052, 2.259542, 2.052, -2.6335878
0.2422059, -0.0125887, 2.05875, -0.0108643, 2.05875, -1.0030518, 2.05875, -0.1845093, 2.05875, -4, 2.05875, 1.9847329, 2.05875, -2.610687
0.243, -0.0104067, 2.0655, -0.0036621, 2.0655, -1.0055542, 2.0655, -0.1848145, 2.0655, -4.0458016, 2.0655, 1.7022901, 2.0655, -2.5954199
0.2437941, -0.0115816, 2.07225, -0.0025635, 2.07225, -1.0042114, 2.07225, -0.1851807, 2.07225, -3.9694657, 2.07225, 1.4427481, 2.07225, -2.6259542
0.2445882, -0.0119173, 2.079, 0.0010376, 2.079, -1.0040283, 2.079, -0.1687012, 2.079, -4.740458, 2.079, 1.4961832, 2.079, -2.4885497
0.2453824, -0.0119173, 2.08575, 0.0007935, 2.08575, -1.0075684, 2.08575, -0.1732178, 2.08575, -4.3816795, 2.08575, 0.610687, 2.08575, -2.5572519
0.2461765, -0.0132601, 2.0925, -0.0019531, 2.0925, -1.0091553, 2.0925, -0.1868896, 2.0925, -4.2366414, 2.0925, -0.0763359, 2.0925, -2.5267177
0.2469706, -0.0137636, 2.09925, 0.0083008, 2.09925, -1.0065308, 2.09925, -0.1877441, 2.09925, -4.7099237, 2.09925, 0.7557252, 2.09925, -2.5343511
0.2477647, -0.0162814, 2.106, 0.0115356, 2.106, -1.0028076, 2.106, -0.1835327, 2.106, -4.1297708, 2.106, 1.7938931, 2.106, -2.5572519
0.2485588, -0.0179599, 2.11275, 0.0120239, 2.11275, -1.0037842, 2.11275, -0.171936, 2.11275, -4.5419846, 2.11275, 1.6030535, 2.11275, -2.389313
0.2493529, -0.017792, 2.1195, 0.0072021, 2.1195, -1.0045776, 2.1195, -0.1724854, 2.1195, -4.8625956, 2.1195, 1.2366412, 2.1195, -2.1755726
0.2501471, -0.0139315, 2.12625, 0.0056763, 2.12625, -1.0037842, 2.12625, -0.18573, 2.12625, -4.6717558, 2.12625, 1.351145, 2.12625, -2.0458016
0.2509412, -0.0152743, 2.133, 0.0015869, 2.133, -1.0027466, 2.133, -0.18927, 2.133, -4.5954199, 2.133, 1.259542, 2.133, -1.9312977
0.2517353, -0.0140993, 2.13975, 0.0028076, 2.13975, -0.9976807, 2.13975, -0.1920776, 2.13975, -4.6564884, 2.13975, 1.2137405, 2.13975, -1.8854961
0.2525294, -0.0092317, 2.1465, 0.0045166, 2.1465, -0.9943237, 2.1465, -0.2053223, 2.1465, -4.8702292, 2.1465, 2.0992367, 2.1465, -2.0076337
0.2533235, -0.0099031, 2.15325, 0.0097656, 2.15325, -1.0010986, 2.15325, -0.1943359, 2.15325, -7.0687022, 2.15325, 2.5038168, 2.15325, -1.4885496
0.2541176, -0.0115816, 2.16, 0.0075684, 2.16, -0.9957886, 2.16, -0.2189941, 2.16, -5.4351144, 2.16, 2.1526718, 2.16, -1.3129771
0.2549118, -0.0125887, 2.16675, -0.0075073, 2.16675, -1, 2.16675, -0.2131958, 2.16675, -6.2519083, 2.16675, 1.1984733, 2.16675, -1.4198474
0.2557059, -0.0166171, 2.1735, -0.0241699, 2.1735, -1.0038452, 2.1735, -0.2085571, 2.1735, -5.9694657, 2.1735, 2.0458016, 2.1735, -1.5648855
0.2565, -0.0159457, 2.18025, -0.0263672, 2.18025, -1.0055542, 2.18025, -0.2086792, 2.18025, -5.8702292, 2.18025, 1.519084, 2.18025, -1.7557251
0.2572941, -0.0142672, 2.187, -0.0230713, 2.187, -1.003479, 2.187, -0.2128296, 2.187, -5.4656487, 2.187, 0.1374046, 2.187, -2.0152671
0.2580882, -0.0135958, 2.19375, -0.0178833, 2.19375, -1.0053711, 2.19375, -0.2252808, 2.19375, -5.0152674, 2.19375, 0.2519084, 2.19375, -2.2290077
0.2588824, -0.0159457, 2.2005, -0.0254517, 2.2005, -1.0063477, 2.2005, -0.21875, 2.2005, -5.0534353, 2.2005, 0.3740458, 2.2005, -2.648855
0.2596765, -0.018967, 2.20725, -0.0249023, 2.20725, -1.0115967, 2.20725, -0.2052002, 2.20725, -4.7022901, 2.20725, -0.7633588, 2.20725, -3.0305343
0.2604706, -0.0149386, 2.214, -0.0296631, 2.214, -1.0093384, 2.214, -0.2176514, 2.214, -4.6259542, 2.214, -1.3435115, 2.214, -3.0763359
0.2612647, -0.0139315, 2.22075, -0.0206909, 2.22075, -1.0081787, 2.22075, -0.234436, 2.22075, -4, 2.22075, -1.8396946, 2.22075, -3.3129771
0.2620588, -0.0135958, 2.2275, -0.0070801, 2.2275, -1.0149536, 2.2275, -0.2267456, 2.2275, -3.6259542, 2.2275, -1.4503816, 2.2275, -3.5648854
0.2628529, -0.0119173, 2.23425, 0.0026855, 2.23425, -1.007019, 2.23425, -0.2227783, 2.23425, -2.8931298, 2.23425, -1.1908396, 2.23425, -3.9160306
0.2636471, -0.0129244, 2.241, 0.0026245, 2.241, -1.0039673, 2.241, -0.22052, 2.241, -2.129771, 2.241, -1.1908396, 2.241, -4.2442746
0.2644412, -0.01561, 2.24775, 0.0010376, 2.24775, -0.9975586, 2.24775, -0.21698, 2.24775, -1.4580153, 2.24775, -0.3816794, 2.24775, -4.2671757
0.2652353, -0.0142672, 2.2545, -0.0014648, 2.2545, -0.9978027, 2.2545, -0.2244873, 2.2545, -0.7328244, 2.2545, 0.3435115, 2.2545, -4.4351144
0.2660294, -0.0149386, 2.26125, -0.0067139, 2.26125, -0.99646, 2.26125, -0.2261963, 2.26125, -1.038168, 2.26125, 0.4580153, 2.26125, -4.3511453
0.2668235, -0.0129244, 2.268, -0.0101929, 2.268, -0.9962769, 2.268, -0.2130737, 2.268, -1.2366412, 2.268, 1.0763359, 2.268, -4.4885497
0.2676176, -0.012253, 2.27475, -0.015564, 2.27475, -0.9996338, 2.27475, -0.2005615, 2.27475, -0.8320611, 2.27475, 0.519084, 2.27475, -4.1526718
0.2684118, -0.0109102, 2.2815, -0.0159912, 2.2815, -1.0026245, 2.2815, -0.2063599, 2.2815, -0.4580153, 2.2815, -1.0305344, 2.2815, -4.0076337
0.2692059, -0.0135958, 2.28825, -0.0089722, 2.28825, -1.0061035, 2.28825, -0.213623, 2.28825, -0.8244275, 2.28825, -1.3282443, 2.28825, -4.0610685
0.27, -0.0169528, 2.295, -0.0001831, 2.295, -1.0089111, 2.295, -0.2077026, 2.295, -0.9465649, 2.295, -1.0839695, 2.295, -4.0610685
0.2707941, -0.014435, 2.30175, 0.0013428, 2.30175, -1.0056763, 2.30175, -0.210083, 2.30175, -1.5954199, 2.30175, -0.5496183, 2.30175, -4.2671757
0.2715882, -0.0169528, 2.3085, 0.0026245, 2.3085, -1.0015869, 2.3085, -0.2160645, 2.3085, -2.1679389, 2.3085, -1.8931298, 2.3085, -4.2900763
0.2723824, -0.0166171, 2.31525, 0.0028076, 2.31525, -1.0043945, 2.31525, -0.2185059, 2.31525, -2.9389312, 2.31525, -1.129771, 2.31525, -4.2748094
0.2731765, -0.0166171, 2.322, 0.0026245, 2.322, -1.0043335, 2.322, -0.2180176, 2.322, -2.7328243, 2.322, 0.129771, 2.322, -4.1145039
0.2739706, -0.0166171, 2.32875, 0.005188, 2.32875, -1.0002441, 2.32875, -0.2191772, 2.32875, -2.6870229, 2.32875, 0.3129771, 2.32875, -4.0229006
0.2747647, -0.0186313, 2.3355, 0.0013428, 2.3355, -1.0015869, 2.3355, -0.2175903, 2.3355, -2.4198472, 2.3355, -0.1145038, 2.3355, -4.0839696
0.2755588, -0.0171206, 2.34225, 0.0004883, 2.34225, -1.0001831, 2.34225, -0.2144775, 2.34225, -2.0610688, 2.34225, -0.6412213, 2.34225, -4.2442746
0.2763529, -0.0199741, 2.349, 0.0001221, 2.349, -0.9994507, 2.349, -0.2200928, 2.349, -2.0229008, 2.349, -0.2442748, 2.349, -4.1297708
0.2771471, -0.0182956, 2.35575, 0.0067749, 2.35575, -0.9959106, 2.35575, -0.220459, 2.35575, -1.9923664, 2.35575, 0, 2.35575, -4.3740458
0.2779412, -0.0162814, 2.3625, 0.0119019, 2.3625, -0.9979858, 2.3625, -0.2148438, 2.3625, -2.2671757, 2.3625, -0.2671756, 2.3625, -4.3435116
0.2787353, -0.0159457, 2.36925, 0.0130615, 2.36925, -1.0003662, 2.36925, -0.208374, 2.36925, -2.1908398, 2.36925, -0.1068702, 2.36925, -4.4351144
0.2795294, -0.0135958, 2.376, 0.0085449, 2.376, -1.0028687, 2.376, -0.2085571, 2.376, -1.8473282, 2.376, 0.0839695, 2.376, -4.3282442
0.2803235, -0.0159457, 2.38275, 0.0041504, 2.38275, -1.0039673, 2.38275, -0.2069092, 2.38275, -1.5267175, 2.38275, 0.1908397, 2.38275, -4.4580154
0.2811176, -0.0159457, 2.3895, -0.0025024, 2.3895, -1.0006714, 2.3895, -0.2072754, 2.3895, -1.4885496, 2.3895, 0.4122137, 2.3895, -4.2061067
0.2819118, -0.0125887, 2.39625, -0.0084229, 2.39625, -0.999939, 2.39625, -0.2062378, 2.39625, -1.2290076, 2.39625, 0.221374, 2.39625, -4.519084
0.2827059, -0.0146029, 2.403, -0.0083008, 2.403, -0.9987793, 2.403, -0.1981201, 2.403, -0.9236641, 2.403, 0.0229008, 2.403, -4.6030536
0.2835, -0.0169528, 2.40975, -0.0022583, 2.40975, -1.0002441, 2.40975, -0.1950684, 2.40975, -0.4503817, 2.40975, -0.389313, 2.40975, -4.5267177
0.2842941, -0.0176242, 2.4165, 0.0016479, 2.4165, -1.0004272, 2.4165, -0.1975098, 2.4165, 0.0152672, 2.4165, -0.2290076, 2.4165, -4.4732823
0.2850882, -0.017792, 2.42325, 0.0056152, 2.42325, -0.9915161, 2.42325, -0.2022705, 2.42325, 0.3206107, 2.42325, -0.0381679, 2.42325, -4.4198475
0.2858824, -0.0169528, 2.43, 0.0136719, 2.43, -0.9915161, 2.43, -0.2035522, 2.43, 0.3358779, 2.43, 0.0076336, 2.43, -4.3893127
0.2866765, -0.0182956, 2.43675, 0.0134277, 2.43675, -0.9966431, 2.43675, -0.2059326, 2.43675, 0.3435115, 2.43675, 0.961832, 2.43675, -4.5114503
0.2874706, -0.018967, 2.4435, 0.0109863, 2.4435, -0.9941406, 2.4435, -0.203186, 2.4435, 0.5114504, 2.4435, 1.0305344, 2.4435, -4.4885497
0.2882647, -0.01561, 2.45025, 0.0092773, 2.45025, -0.9983521, 2.45025, -0.2095947, 2.45025, 0.7099237, 2.45025, 0.9312977, 2.45025, -4.5419846
0.2890588, -0.0162814, 2.457, 0.0065308, 2.457, -1.0010376, 2.457, -0.2175903, 2.457, 0.870229, 2.457, 0.870229, 2.457, -4.3893127
0.2898529, -0.017792, 2.46375, 0.0043945, 2.46375, -0.9971313, 2.46375, -0.2320557, 2.46375, 0.908397, 2.46375, 0.7709923, 2.46375, -4.4351144
0.2906471, -0.0193027, 2.4705, 0.0067139, 2.4705, -0.9985352, 2.4705, -0.2216187, 2.4705, 0.1068702, 2.4705, 0.6946565, 2.4705, -4.5954199
0.2914412, -0.0172885, 2.47725, 0.0081787, 2.47725, -0.9998779, 2.47725, -0.2252197, 2.47725, 0.3053435, 2.47725, 1.5419847, 2.47725, -4.4045801
0.2922353, -0.0169528, 2.484, 0.0132446, 2.484, -1.0039673, 2.484, -0.2281494, 2.484, -0.5954198, 2.484, 2.129771, 2.484, -4.1832061
0.2930294, -0.0169528, 2.49075, 0.0122681, 2.49075, -1.0061646, 2.49075, -0.2139282, 2.49075, -0.4122137, 2.49075, 2.4885497, 2.49075, -4.1374044
0.2938235, -0.0191348, 2.4975, 0.0065308, 2.4975, -1.0050659, 2.4975, -0.2176514, 2.4975, 0.2137405, 2.4975, 2.1908398, 2.4975, -4.0610685
0.2946176, -0.0172885, 2.50425, 0.0046387, 2.50425, -1.0045776, 2.50425, -0.2128296, 2.50425, -0.0381679, 2.50425, 1.9312977, 2.50425, -3.8244274
0.2954118, -0.0135958, 2.511, 0.0064087, 2.511, -1.0041504, 2.511, -0.2132568, 2.511, 0.2442748, 2.511, 2.2290077, 2.511, -3.7862597
0.2962059, -0.0109102, 2.51775, 0.0053711, 2.51775, -1.0060425, 2.51775, -0.2155762, 2.51775, 0.1908397, 2.51775, 2.129771, 2.51775, -4.1297708
0.297, -0.0099031, 2.5245, 0.0008545, 2.5245, -1.0026245, 2.5245, -0.2160645, 2.5245, 0.0610687, 2.5245, 1.610687, 2.5245, -4.3282442
0.2977941, -0.0075532, 2.53125, 0.0057373, 2.53125, -1.0010376, 2.53125, -0.2202759, 2.53125, -0.2137405, 2.53125, 1.5419847, 2.53125, -4.0687022
0.2985882, -0.0102388, 2.538, 0.0119629, 2.538, -1.0005493, 2.538, -0.2252808, 2.538, 0.2061069, 2.538, 0.8549618, 2.538, -3.8167939
0.2993824, -0.0072175, 2.54475, 0.0188599, 2.54475, -1.0032349, 2.54475, -0.2202759, 2.54475, 0.519084, 2.54475, 1.0610687, 2.54475, -3.8473282
0.3001765, -0.0099031, 2.5515, 0.0108032, 2.5515, -1.0003662, 2.5515, -0.2184448, 2.5515, 0.1603053, 2.5515, 1.7251909, 2.5515, -3.9389312
0.3009706, -0.0092317, 2.55825, -0.0007935, 2.55825, -1.0016479, 2.55825, -0.2168579, 2.55825, 0.351145, 2.55825, 2.4656489, 2.55825, -3.740458
0.3017647, -0.0102388, 2.565, -0.0095215, 2.565, -1.0043945, 2.565, -0.2131348, 2.565, 0.2748092, 2.565, 1.8320611, 2.565, -3.8091602
0.3025588, -0.0109102, 2.57175, -0.0095215, 2.57175, -1.0001221, 2.57175, -0.2191772, 2.57175, 0.4656489, 2.57175, 1.1374046, 2.57175, -3.740458
0.3033529, -0.0082246, 2.5785, -0.0076294, 2.5785, -1.0001221, 2.5785, -0.2219238, 2.5785, 0.4503817, 2.5785, 0.8320611, 2.5785, -3.6946564
0.3041471, -0.0095674, 2.58525, -0.0031738, 2.58525, -0.9991455, 2.58525, -0.2234497, 2.58525, 0.6335878, 2.58525, 0.740458, 2.58525, -3.8778627
0.3049412, -0.0119173, 2.592, 0.0021362, 2.592, -0.9981689, 2.592, -0.227417, 2.592, 0.6641222, 2.592, 0.2061069, 2.592, -3.9923663
0.3057353, -0.0109102, 2.59875, 0.0142212, 2.59875, -0.9985352, 2.59875, -0.2272339, 2.59875, 0.0916031, 2.59875, 0.648855, 2.59875, -3.9236641
0.3065294, -0.0115816, 2.6055, 0.0175171, 2.6055, -0.9995728, 2.6055, -0.2246704, 2.6055, 0.1679389, 2.6055, 1.0076336, 2.6055, -3.8320611
0.3073235, -0.012253, 2.61225, 0.0149536, 2.61225, -0.9998779, 2.61225, -0.2286377, 2.61225, 0.5496183, 2.61225, 0.9236641, 2.61225, -3.9389312
0.3081176, -0.0135958, 2.619, 0.0101318, 2.619, -1.0032349, 2.619, -0.225769, 2.619, 0.5038168, 2.619, 0.7328244, 2.619, -3.9160306
0.3089118, -0.0135958, 2.62575, 0.0065918, 2.62575, -0.9979248, 2.62575, -0.2366943, 2.62575, 0.7709923, 2.62575, 0.7862595, 2.62575, -3.9160306
0.3097059, -0.0162814, 2.6325, 0.0020752, 2.6325, -1.0044556, 2.6325, -0.243042, 2.6325, 0.6641222, 2.6325, 0.4656489, 2.6325, -3.9465649
0.3105, -0.0157778, 2.63925, -0.0014648, 2.63925, -1.0029907, 2.63925, -0.2393799, 2.63925, 0.3206107, 2.63925, 0.9847328, 2.63925, -4.0916033
0.3112941, -0.0164492, 2.646, -0.003479, 2.646, -1.0065308, 2.646, -0.236084, 2.646, 0.7022901, 2.646, 1.1603054, 2.646, -4.1221375
0.3120882, -0.0179599, 2.65275, -0.0062256, 2.65275, -1.0049438, 2.65275, -0.237854, 2.65275, 0.7938932, 2.65275, 0.648855, 2.65275, -4.2290077
0.3128824, -0.0209812, 2.6595, -0.006958, 2.6595, -1.0058594, 2.6595, -0.2411499, 2.6595, 0.8244275, 2.6595, -0.3129771, 2.6595, -4.519084
0.3136765, -0.0196384, 2.66625, -0.0115967, 2.66625, -1.0066528, 2.66625, -0.2390747, 2.66625, 1.4045801, 2.66625, -0.5038168, 2.66625, -4.7862597
0.3144706, -0.018967, 2.673, -0.0076294, 2.673, -1.0030518, 2.673, -0.2363281, 2.673, 1.7175573, 2.673, -0.5114504, 2.673, -4.961832
0.3152647, -0.0172885, 2.67975, 0.0009155, 2.67975, -1.0036621, 2.67975, -0.2371216, 2.67975, 1.648855, 2.67975, -0.610687, 2.67975, -4.8015265
0.3160588, -0.0152743, 2.6865, 0.0025024, 2.6865, -1.0036621, 2.6865, -0.2290649, 2.6865, 2.1068702, 2.6865, -1.3206106, 2.6865, -4.8702292
0.3168529, -0.0142672, 2.69325, 0.0059814, 2.69325, -1.0003052, 2.69325, -0.2310791, 2.69325, 2.8778627, 2.69325, -1.1679389, 2.69325, -4.7938933
0.3176471, -0.0186313, 2.7, 0.0020752, 2.7, -0.9940796, 2.7, -0.2310791, 2.7, 3.1755726, 2.7, -1.0534351, 2.7, -4.6717558
0.3184412, -0.0196384, 2.70675, 0.0009766, 2.70675, -1.0047607, 2.70675, -0.2199097, 2.70675, 2.8320611, 2.70675, -0.7633588, 2.70675, -4.7328243
0.3192353, -0.0166171, 2.7135, 0.0014038, 2.7135, -1.0050659, 2.7135, -0.21875, 2.7135, 3.0152671, 2.7135, -0.9389313, 2.7135, -4.8702292
0.3200294, -0.0186313, 2.72025, 0, 2.72025, -1.0033569, 2.72025, -0.2189941, 2.72025, 3.2900763, 2.72025, -1.389313, 2.72025, -4.9389315
0.3208235, -0.0184634, 2.727, 0.0029297, 2.727, -1.0026245, 2.727, -0.2223511, 2.727, 3.3664122, 2.727, -1.7938931, 2.727, -5.0916033
0.3216176, -0.0176242, 2.73375, 0.0059204, 2.73375, -1.0021973, 2.73375, -0.2266846, 2.73375, 3.4427481, 2.73375, -1.8473282, 2.73375, -4.961832
0.3224118, -0.0164492, 2.7405, 0.0071411, 2.7405, -1.000061, 2.7405, -0.2258301, 2.7405, 3.3435113, 2.7405, -1.4961832, 2.7405, -5.221374
0.3232059, -0.0179599, 2.74725, 0.0047607, 2.74725, -1.0032349, 2.74725, -0.2182617, 2.74725, 3.648855, 2.74725, -0.9007633, 2.74725, -5.3740458
0.324, -0.0196384, 2.754, 0.001709, 2.754, -1.0013428, 2.754, -0.2216797, 2.754, 4.3129773, 2.754, -1.1450381, 2.754, -5.2519083
0.3247941, -0.0219883, 2.76075, -0.0006104, 2.76075, -1.00177, 2.76075, -0.2242432, 2.76075, 4.2061067, 2.76075, -1.1526718, 2.76075, -5.2366414
0.3255882, -0.0179599, 2.7675, 0.0031128, 2.7675, -1.0048218, 2.7675, -0.2230225, 2.7675, 4.4885497, 2.7675, -1.3587786, 2.7675, -5.5877862
0.3263824, -0.018967, 2.77425, 0.0095825, 2.77425, -1.0048828, 2.77425, -0.2178955, 2.77425, 4.5725193, 2.77425, -1.4198474, 2.77425, -5.7709923
0.3271765, -0.0176242, 2.781, 0.0137329, 2.781, -0.9983521, 2.781, -0.2202759, 2.781, 4.7557254, 2.781, -0.9465649, 2.781, -5.9312978
0.3279706, -0.0176242, 2.78775, 0.010498, 2.78775, -0.9990234, 2.78775, -0.2195435, 2.78775, 5.0610685, 2.78775, -0.9770992, 2.78775, -5.9312978
0.3287647, -0.0167849, 2.7945, 0.0140991, 2.7945, -1.0003052, 2.7945, -0.218811, 2.7945, 5.3206105, 2.7945, -0.9236641, 2.7945, -5.8931298
0.3295588, -0.0152743, 2.80125, 0.0209961, 2.80125, -1.0002441, 2.80125, -0.2158813, 2.80125, 5.3435116, 2.80125, -0.2442748, 2.80125, -6.0305343
0.3303529, -0.01561, 2.808, 0.0196533, 2.808, -0.999939, 2.808, -0.2173462, 2.808, 5.519084, 2.808, 0.5648855, 2.808, -6.038168
0.3311471, -0.0132601, 2.81475, 0.0175171, 2.81475, -1.0004272, 2.81475, -0.2119751, 2.81475, 5.6870227, 2.81475, 0.7862595, 2.81475, -6.2061067
0.3319412, -0.011078, 2.8215, 0.005188, 2.8215, -0.9973755, 2.8215, -0.210022, 2.8215, 5.740458, 2.8215, -0.0381679, 2.8215, -6.1068702
0.3327353, -0.0125887, 2.82825, 0.0058594, 2.82825, -0.9984131, 2.82825, -0.2137451, 2.82825, 5.4656487, 2.82825, -0.7557252, 2.82825, -6.1603055
0.3335294, -0.0139315, 2.835, 0.0058594, 2.835, -0.9974365, 2.835, -0.2162476, 2.835, 5.2671757, 2.835, -0.8015267, 2.835, -6.2748094
0.3343235, -0.01561, 2.84175, 0.0125122, 2.84175, -1.0033569, 2.84175, -0.2124023, 2.84175, 5, 2.84175, -0.3282443, 2.84175, -6.5114503
0.3351176, -0.0149386, 2.8485, 0.0057373, 2.8485, -1.003418, 2.8485, -0.2165527, 2.8485, 5.3435116, 2.8485, 0.221374, 2.8485, -6.2061067
0.3359118, -0.0169528, 2.85525, 0.0081787, 2.85525, -1.0004883, 2.85525, -0.1976318, 2.85525, 4.7633586, 2.85525, -0.0763359, 2.85525, -5.6106873
0.3367059, -0.0154421, 2.862, 0.010376, 2.862, -1.0006714, 2.862, -0.2089233, 2.862, 5.4961834, 2.862, -0.0305344, 2.862, -5.5877862
0.3375, -0.0109102, 2.86875, 0.0185547, 2.86875, -1.003418, 2.86875, -0.2150269, 2.86875, 5.6946564, 2.86875, 0.3129771, 2.86875, -5.7175574
0.3382941, -0.0099031, 2.8755, 0.0172119, 2.8755, -1.0059814, 2.8755, -0.2075195, 2.8755, 5.1984735, 2.8755, 0.3358779, 2.8755, -5.7557254
0.3390882, -0.0115816, 2.88225, 0.0195923, 2.88225, -1.00354, 2.88225, -0.2026367, 2.88225, 4.5801525, 2.88225, 0.2824427, 2.88225, -5.7251906
0.3398824, -0.0127565, 2.889, 0.0209351, 2.889, -0.9998169, 2.889, -0.1980591, 2.889, 4.2519083, 2.889, 0.1679389, 2.889, -5.5343513
0.3406765, -0.011078, 2.89575, 0.0222168, 2.89575, -0.9980469, 2.89575, -0.206543, 2.89575, 4.2900763, 2.89575, -0.648855, 2.89575, -5.2977099
0.3414706, -0.0135958, 2.9025, 0.0184326, 2.9025, -0.9970093, 2.9025, -0.210083, 2.9025, 4.4045801, 2.9025, -0.0916031, 2.9025, -5.2977099
0.3422647, -0.0151064, 2.90925, 0.0182495, 2.90925, -0.9973145, 2.90925, -0.2070312, 2.90925, 4.2290077, 2.90925, 0.1068702, 2.90925, -5.5725193
0.3430588, -0.0129244, 2.916, 0.0249634, 2.916, -1.00177, 2.916, -0.1987305, 2.916, 4.2366414, 2.916, 0.3053435, 2.916, -5.5572519
0.3438529, -0.01561, 2.92275, 0.0285645, 2.92275, -1.0026855, 2.92275, -0.1978149, 2.92275, 4.740458, 2.92275, 0.3282443, 2.92275, -5.6183205
0.3446471, -0.0157778, 2.9295, 0.0252686, 2.9295, -0.9944458, 2.9295, -0.1998901, 2.9295, 5.0839696, 2.9295, 0, 2.9295, -5.3587785
0.3454412, -0.0162814, 2.93625, 0.0256348, 2.93625, -0.9914551, 2.93625, -0.2096558, 2.93625, 5.1450381, 2.93625, -0.2748092, 2.93625, -5.038168
0.3462353, -0.0169528, 2.943, 0.0272217, 2.943, -0.994873, 2.943, -0.2080688, 2.943, 4.961832, 2.943, 0.2671756, 2.943, -5.038168
0.3470294, -0.0152743, 2.94975, 0.0235596, 2.94975, -1.0012207, 2.94975, -0.2012329, 2.94975, 5.3358779, 2.94975, 0.9007633, 2.94975, -5.2519083
0.3478235, -0.0142672, 2.9565, 0.0294189, 2.9565, -0.9981689, 2.9565, -0.1992188, 2.9565, 5.6183205, 2.9565, 0.7099237, 2.9565, -5.038168
0.3486176, -0.014435, 2.96325, 0.0297852, 2.96325, -1.0015259, 2.96325, -0.1964722, 2.96325, 5.8091602, 2.96325, 0.1450382, 2.96325, -4.519084
0.3494118, -0.01561, 2.97, 0.0280151, 2.97, -0.9988403, 2.97, -0.1960449, 2.97, 5.6183205, 2.97, -0.1755725, 2.97, -4.4274807
0.3502059, -0.0130922, 2.97675, 0.0248413, 2.97675, -1.0026245, 2.97675, -0.192627, 2.97675, 5.6106873, 2.97675, 0.2061069, 2.97675, -4.4503818
0.351, -0.0095674, 2.9835, 0.0282593, 2.9835, -1.0013428, 2.9835, -0.1928101, 2.9835, 5.7862597, 2.9835, 0.351145, 2.9835, -4.2290077
0.3517941, -0.012253, 2.99025, 0.0283813, 2.99025, -1.0021362, 2.99025, -0.1796875, 2.99025, 5.4427481, 2.99025, 0.610687, 2.99025, -4.2748094
0.3525882, -0.0125887, 2.997, 0.0171509, 2.997, -1.0053711, 2.997, -0.1747437, 2.997, 5.2061067, 2.997, -0.3358779, 2.997, -4.2366414
0.3533824, -0.0112459, 3.00375, 0.0139771, 3.00375, -1.0022583, 3.00375, -0.187561, 3.00375, 5.3740458, 3.00375, -0.6335878, 3.00375, -4.0076337
0.3541765, -0.0114137, 3.0105, 0.0137939, 3.0105, -1.0009155, 3.0105, -0.1899414, 3.0105, 5.6946564, 3.0105, -0.5572519, 3.0105, -4.0839696
0.3549706, -0.012253, 3.01725, 0.0181274, 3.01725, -0.99646, 3.01725, -0.2021484, 3.01725, 5.5725193, 3.01725, -0.8015267, 3.01725, -4.4503818
0.3557647, -0.0146029, 3.024, 0.0250854, 3.024, -0.9928589, 3.024, -0.1928711, 3.024, 4.6870227, 3.024, -0.8549618, 3.024, -4.3664122
0.3565588, -0.01561, 3.03075, 0.0321045, 3.03075, -0.993042, 3.03075, -0.1812134, 3.03075, 4.5267177, 3.03075, -0.7557252, 3.03075, -4.0305343
0.3573529, -0.01561, 3.0375, 0.039978, 3.0375, -1.0029907, 3.0375, -0.1975098, 3.0375, 5.0076337, 3.0375, -0.6412213, 3.0375, -3.6946564
0.3581471, -0.0172885, 3.04425, 0.0428467, 3.04425, -1.0029297, 3.04425, -0.1989746, 3.04425, 5.1450381, 3.04425, 0.5038168, 3.04425, -3.908397
0.3589412, -0.0157778, 3.051, 0.0425415, 3.051, -1.0021362, 3.051, -0.1896362, 3.051, 4.6870227, 3.051, 1.0152671, 3.051, -3.6946564
0.3597353, -0.0139315, 3.05775, 0.0430908, 3.05775, -1.000061, 3.05775, -0.1787109, 3.05775, 4.6412215, 3.05775, 1.0992366, 3.05775, -3.7938931
0.3605294, -0.0166171, 3.0645, 0.036377, 3.0645, -0.9949341, 3.0645, -0.1887207, 3.0645, 4.5877862, 3.0645, 0.4961832, 3.0645, -3.3969467
0.3613235, -0.01561, 3.07125, 0.0267944, 3.07125, -1.0004272, 3.07125, -0.196228, 3.07125, 4.5343513, 3.07125, 0.610687, 3.07125, -3.4503818
0.3621176, -0.0114137, 3.078, 0.019165, 3.078, -1.0018921, 3.078, -0.1953125, 3.078, 4.8167939, 3.078, 0.9694657, 3.078, -3.4885497
0.3629118, -0.0102388, 3.08475, 0.0141602, 3.08475, -1.0046997, 3.08475, -0.1879272, 3.08475, 5.0916033, 3.08475, 1.221374, 3.08475, -3.4503818
0.3637059, -0.0115816, 3.0915, 0.0161743, 3.0915, -1.0059204, 3.0915, -0.1809082, 3.0915, 5.3435116, 3.0915, 1.1221374, 3.0915, -3.4961832
0.3645, -0.0132601, 3.09825, 0.0184326, 3.09825, -1.0048828, 3.09825, -0.1861572, 3.09825, 5.7099237, 3.09825, 0.740458, 3.09825, -3.3129771
0.3652941, -0.01561, 3.105, 0.0252075, 3.105, -1.0049438, 3.105, -0.1877441, 3.105, 6.2977099, 3.105, 0.389313, 3.105, -3.2519083
0.3660882, -0.0169528, 3.11175, 0.0311279, 3.11175, -0.9998779, 3.11175, -0.1940308, 3.11175, 6.8167939, 3.11175, 1.1603054, 3.11175, -3.1068702
0.3668824, -0.0179599, 3.1185, 0.0330811, 3.1185, -0.9997559, 3.1185, -0.1956787, 3.1185, 7.1755724, 3.1185, 2.4961832, 3.1185, -3.221374
0.3676765, -0.0176242, 3.12525, 0.0360107, 3.12525, -1.0004883, 3.12525, -0.1860962, 3.12525, 7.9465647, 3.12525, 3.1755726, 3.12525, -3.2061069
0.3684706, -0.0162814, 3.132, 0.038269, 3.132, -0.9951172, 3.132, -0.1826172, 3.132, 8.6641226, 3.132, 3.4580152, 3.132, -2.9694657
0.3692647, -0.018967, 3.13875, 0.0432129, 3.13875, -0.9937134, 3.13875, -0.1778564, 3.13875, 8.8091602, 3.13875, 4.1755724, 3.13875, -2.7175572
0.3700588, -0.0181277, 3.1455, 0.0339966, 3.1455, -0.9939575, 3.1455, -0.1833496, 3.1455, 8.5419846, 3.1455, 5.1221375, 3.1455, -2.6870229
0.3708529, -0.017792, 3.15225, 0.0219116, 3.15225, -0.9990234, 3.15225, -0.1730347, 3.15225, 7.778626, 3.15225, 5.5725193, 3.15225, -2.610687
0.3716471, -0.0186313, 3.159, 0.0088501, 3.159, -0.9963989, 3.159, -0.1763306, 3.159, 7.2366414, 3.159, 5.1603055, 3.159, -2.4732823
0.3724412, -0.0176242, 3.16575, 0.0021973, 3.16575, -1.0026245, 3.16575, -0.1901245, 3.16575, 6.6946564, 3.16575, 4.3435116, 3.16575, -2.2900763
0.3732353, -0.0182956, 3.1725, -0.0018921, 3.1725, -1.0078735, 3.1725, -0.177063, 3.1725, 5.9312978, 3.1725, 4.9465647, 3.1725, -2.2366412
0.3740294, -0.0162814, 3.17925, 0.0006104, 3.17925, -1.0109863, 3.17925, -0.1742554, 3.17925, 6.1297708, 3.17925, 5.0229006, 3.17925, -2.2366412
0.3748235, -0.0169528, 3.186, 0.0110474, 3.186, -1.0091553, 3.186, -0.187439, 3.186, 6.4503818, 3.186, 4.2519083, 3.186, -2.2748091
0.3756176, -0.0149386, 3.19275, 0.0196533, 3.19275, -1.0101318, 3.19275, -0.1931152, 3.19275, 6.0610685, 3.19275, 3.2748091, 3.19275, -2.3664122
0.3764118, -0.0129244, 3.1995, 0.0219116, 3.1995, -1.0097046, 3.1995, -0.1942749, 3.1995, 5.519084, 3.1995, 2.8931298, 3.1995, -2.3587787
0.3772059, -0.014435, 3.20625, 0.0203857, 3.20625, -1.006897, 3.20625, -0.1914673, 3.20625, 4.7175574, 3.20625, 2.5725191, 3.20625, -2.5954199
0.378, -0.0169528, 3.213, 0.0148315, 3.213, -1.0037231, 3.213, -0.1862793, 3.213, 3.9923663, 3.213, 2.1221373, 3.213, -2.5954199
0.3787941, -0.0152743, 3.21975, 0.0163574, 3.21975, -1.0073242, 3.21975, -0.1865234, 3.21975, 3.4122138, 3.21975, 2.091603, 3.21975, -2.5114503
0.3795882, -0.0146029, 3.2265, 0.0177002, 3.2265, -1.0075684, 3.2265, -0.2019653, 3.2265, 3.4045801, 3.2265, 1.908397, 3.2265, -2.3282442
0.3803824, -0.0152743, 3.23325, 0.0184326, 3.23325, -1.0090942, 3.23325, -0.1932373, 3.23325, 3.0839694, 3.23325, 1.4885496, 3.23325, -1.8778626
0.3811765, -0.0119173, 3.24, 0.0157471, 3.24, -1.008667, 3.24, -0.1758423, 3.24, 3.3664122, 3.24, 1, 3.24, -1.9160305
0.3819706, -0.0146029, 3.24675, 0.0166016, 3.24675, -1.0019531, 3.24675, -0.1672974, 3.24675, 3.7328243, 3.24675, 0.7862595, 3.24675, -1.7175573
0.3827647, -0.012253, 3.2535, 0.0238037, 3.2535, -1.0001221, 3.2535, -0.1735229, 3.2535, 3.9160306, 3.2535, 1.8625954, 3.2535, -1.8015267
0.3835588, -0.0092317, 3.26025, 0.0234985, 3.26025, -1.0027466, 3.26025, -0.1741943, 3.26025, 3.8473282, 3.26025, 1.908397, 3.26025, -1.5038168
0.3843529, -0.0065461, 3.267, 0.0264282, 3.267, -1.0026855, 3.267, -0.1687012, 3.267, 3.4274809, 3.267, 1.8015267, 3.267, -1.4580153
0.3851471, -0.0082246, 3.27375, 0.0280762, 3.27375, -1.0003052, 3.27375, -0.1654053, 3.27375, 3.6870229, 3.27375, 1.9465649, 3.27375, -1.3282443
0.3859412, -0.0072175, 3.2805, 0.0227051, 3.2805, -0.9993286, 3.2805, -0.170166, 3.2805, 3.1450381, 3.2805, 1.7099236, 3.2805, -1.2748091
0.3867353, -0.008896, 3.28725, 0.0194092, 3.28725, -1.003418, 3.28725, -0.1626587, 3.28725, 3.0076337, 3.28725, 1.5496184, 3.28725, -1.3358779
0.3875294, -0.0109102, 3.294, 0.0154419, 3.294, -1.003479, 3.294, -0.1550903, 3.294, 2.9770992, 3.294, 1.8015267, 3.294, -1.3816794
0.3883235, -0.0109102, 3.30075, 0.0145264, 3.30075, -1.0010376, 3.30075, -0.1551514, 3.30075, 3.259542, 3.30075, 1.6564885, 3.30075, -1.2366412
0.3891176, -0.0129244, 3.3075, 0.0211182, 3.3075, -0.9983521, 3.3075, -0.1660767, 3.3075, 2.961832, 3.3075, 1.3435115, 3.3075, -1.3587786
0.3899118, -0.0149386, 3.31425, 0.0198364, 3.31425, -1.0011597, 3.31425, -0.1636963, 3.31425, 2.740458, 3.31425, 1.3206106, 3.31425, -1.3282443
0.3907059, -0.014435, 3.321, 0.0153809, 3.321, -0.998291, 3.321, -0.1616211, 3.321, 2.6717558, 3.321, 1.5954199, 3.321, -1.3740458
0.3915, -0.0149386, 3.32775, 0.0139771, 3.32775, -0.9992676, 3.32775, -0.1685791, 3.32775, 2.8931298, 3.32775, 1.389313, 3.32775, -1.3282443
0.3922941, -0.0169528, 3.3345, 0.0168457, 3.3345, -1, 3.3345, -0.1772461, 3.3345, 3.0458016, 3.3345, 1.6717557, 3.3345, -1.1603054
0.3930882, -0.0184634, 3.34125, 0.0141602, 3.34125, -1, 3.34125, -0.1842041, 3.34125, 3.0610688, 3.34125, 1.6335878, 3.34125, -1.351145
0.3938824, -0.0166171, 3.348, 0.017334, 3.348, -0.9980469, 3.348, -0.1900635, 3.348, 2.9770992, 3.348, 1.5877863, 3.348, -1.4961832
0.3946765, -0.0179599, 3.35475, 0.0180054, 3.35475, -0.9978027, 3.35475, -0.1907959, 3.35475, 2.5419848, 3.35475, 1.3206106, 3.35475, -1.5725191
0.3954706, -0.0182956, 3.3615, 0.0183716, 3.3615, -1.0031128, 3.3615, -0.1843872, 3.3615, 2.5267177, 3.3615, 1.4274809, 3.3615, -1.4580153
0.3962647, -0.0194705, 3.36825, 0.0184326, 3.36825, -1.0024414, 3.36825, -0.1777344, 3.36825, 2.6259542, 3.36825, 2.0076337, 3.36825, -1.5648855
0.3970588, -0.0196384, 3.375, 0.0178223, 3.375, -1.0061035, 3.375, -0.1801147, 3.375, 2.3587787, 3.375, 1.9007634, 3.375, -1.4274809
0.3978529, -0.018967, 3.38175, 0.0155029, 3.38175, -1.0028687, 3.38175, -0.1751709, 3.38175, 2.2137403, 3.38175, 1.7862595, 3.38175, -1.5954199
0.3986471, -0.0182956, 3.3885, 0.0088501, 3.3885, -1.005188, 3.3885, -0.1730347, 3.3885, 1.5038168, 3.3885, 1.9312977, 3.3885, -1.8931298
0.3994412, -0.0179599, 3.39525, 0.0018311, 3.39525, -1.0072632, 3.39525, -0.1780396, 3.39525, 1.519084, 3.39525, 2.2671757, 3.39525, -2.1221373
0.4002353, -0.0166171, 3.402, 0.0007935, 3.402, -1.0076294, 3.402, -0.1740723, 3.402, 1.778626, 3.402, 1.5114504, 3.402, -2.1374047
0.4010294, -0.0171206, 3.40875, -0.003418, 3.40875, -1.0081787, 3.40875, -0.1746826, 3.40875, 1.9160305, 3.40875, 1.0687023, 3.40875, -2.2977099
0.4018235, -0.0182956, 3.4155, -0.0063477, 3.4155, -1.0106201, 3.4155, -0.1781006, 3.4155, 2.0152671, 3.4155, 1.2900764, 3.4155, -2.480916
0.4026176, -0.018967, 3.42225, -0.0100098, 3.42225, -1.0093384, 3.42225, -0.1716309, 3.42225, 2.2671757, 3.42225, 0.6793893, 3.42225, -2.6183207
0.4034118, -0.0196384, 3.429, -0.0133667, 3.429, -1.0098877, 3.429, -0.1668701, 3.429, 2.3435113, 3.429, -0.9770992, 3.429, -2.9770992
0.4042059, -0.0223239, 3.43575, -0.0077515, 3.43575, -1.0089111, 3.43575, -0.1691284, 3.43575, 2.8091602, 3.43575, -0.7633588, 3.43575, -3.2519083
0.405, -0.0221561, 3.4425, -0.0055542, 3.4425, -1.0106201, 3.4425, -0.1763916, 3.4425, 3, 3.4425, -0.6946565, 3.4425, -3.1068702
0.4057941, -0.0224918, 3.44925, -0.0045776, 3.44925, -1.0089111, 3.44925, -0.1791992, 3.44925, 2.610687, 3.44925, -1.480916, 3.44925, -3.091603
0.4065882, -0.0209812, 3.456, 0.0075073, 3.456, -1.0022583, 3.456, -0.1746216, 3.456, 2.9923663, 3.456, -1.0610687, 3.456, -3.4045801
0.4073824, -0.0193027, 3.46275, 0.0168457, 3.46275, -1.0050659, 3.46275, -0.1841431, 3.46275, 2.8396947, 3.46275, -0.8091603, 3.46275, -3.4274809
0.4081765, -0.0206455, 3.4695, 0.0179443, 3.4695, -1.0075684, 3.4695, -0.1746216, 3.4695, 2.8015268, 3.4695, -0.5877863, 3.4695, -3.3664122
0.4089706, -0.0198062, 3.47625, 0.0183716, 3.47625, -1.0057373, 3.47625, -0.1732788, 3.47625, 2.7633588, 3.47625, 0.2061069, 3.47625, -3.4503818
0.4097647, -0.0182956, 3.483, 0.0172119, 3.483, -1.0058594, 3.483, -0.1669312, 3.483, 2.6946564, 3.483, 0.4045801, 3.483, -3.2900763
0.4105588, -0.0231632, 3.48975, 0.0116577, 3.48975, -1.006897, 3.48975, -0.1624756, 3.48975, 2.870229, 3.48975, 0.4885496, 3.48975, -3.3129771
0.4113529, -0.0231632, 3.4965, 0.0032349, 3.4965, -1.0064087, 3.4965, -0.1660156, 3.4965, 3.3206108, 3.4965, 0.1755725, 3.4965, -3.3740458
0.4121471, -0.0216526, 3.50325, -0.0020142, 3.50325, -1.0050049, 3.50325, -0.1740112, 3.50325, 3.7099237, 3.50325, -0.5114504, 3.50325, -3.2748091
0.4129412, -0.0186313, 3.51, 0.0001831, 3.51, -1.0046997, 3.51, -0.1759644, 3.51, 3.2671757, 3.51, -1.0687023, 3.51, -3.2977099
0.4137353, -0.018967, 3.51675, 0.005188, 3.51675, -1.0031738, 3.51675, -0.1644287, 3.51675, 3.2519083, 3.51675, -1.3053435, 3.51675, -3.2519083
0.4145294, -0.014435, 3.5235, 0.0083618, 3.5235, -1.0037231, 3.5235, -0.1669312, 3.5235, 3.3435113, 3.5235, -1.778626, 3.5235, -3.3053436
0.4153235, -0.0159457, 3.53025, 0.0145264, 3.53025, -1.0016479, 3.53025, -0.1744385, 3.53025, 2.6335878, 3.53025, -1.9694656, 3.53025, -3.3206108
0.4161176, -0.0149386, 3.537, 0.0203857, 3.537, -1.0037231, 3.537, -0.1677856, 3.537, 2.6259542, 3.537, -1.6183206, 3.537, -3.2900763
0.4169118, -0.0142672, 3.54375, 0.0240479, 3.54375, -1.0023193, 3.54375, -0.1671753, 3.54375, 2.7633588, 3.54375, -1.1603054, 3.54375, -3.1984732
0.4177059, -0.0139315, 3.5505, 0.0164795, 3.5505, -0.9990845, 3.5505, -0.1702271, 3.5505, 2.6259542, 3.5505, -0.8549618, 3.5505, -3.3206108
0.4185, -0.012253, 3.55725, 0.0233765, 3.55725, -1.0030518, 3.55725, -0.1687622, 3.55725, 2.4198472, 3.55725, -0.5954198, 3.55725, -3.0534351
0.4192941, -0.0129244, 3.564, 0.0170898, 3.564, -0.9998169, 3.564, -0.1680908, 3.564, 2.6030533, 3.564, -0.0152672, 3.564, -3.1603053
0.4200882, -0.0137636, 3.57075, 0.0169067, 3.57075, -1.0038452, 3.57075, -0.1705322, 3.57075, 2.8015268, 3.57075, 0.2290076, 3.57075, -3.2824428
0.4208824, -0.0112459, 3.5775, 0.0188599, 3.5775, -1.0010376, 3.5775, -0.1657715, 3.5775, 2.4045801, 3.5775, 0.1603053, 3.5775, -3.2519083
0.4216765, -0.0109102, 3.58425, 0.0200195, 3.58425, -1.0009766, 3.58425, -0.1629028, 3.58425, 2.2671757, 3.58425, 0.4351145, 3.58425, -3.1832061
0.4224706, -0.0129244, 3.591, 0.0201416, 3.591, -1.001709, 3.591, -0.1668701, 3.591, 2.5114503, 3.591, 1.0305344, 3.591, -3.3053436
0.4232647, -0.0129244, 3.59775, 0.0174561, 3.59775, -1.0024414, 3.59775, -0.1680298, 3.59775, 2.3664122, 3.59775, 1.1221374, 3.59775, -3.0076337
0.4240588, -0.012253, 3.6045, 0.0188599, 3.6045, -1.0007324, 3.6045, -0.1643066, 3.6045, 2.4961832, 3.6045, 1.4656489, 3.6045, -2.908397
0.4248529, -0.0139315, 3.61125, 0.0209961, 3.61125, -1.0037842, 3.61125, -0.159729, 3.61125, 2.519084, 3.61125, 1.7328244, 3.61125, -2.9694657
0.4256471, -0.0146029, 3.618, 0.0238037, 3.618, -1.0043945, 3.618, -0.1578979, 3.618, 2.5801528, 3.618, 1.8396946, 3.618, -2.908397
0.4264412, -0.0152743, 3.62475, 0.0263672, 3.62475, -1.0039062, 3.62475, -0.1627197, 3.62475, 2.8320611, 3.62475, 1.870229, 3.62475, -2.8091602
0.4272353, -0.0125887, 3.6315, 0.0256958, 3.6315, -1.0040283, 3.6315, -0.1652222, 3.6315, 2.7480917, 3.6315, 2.1908398, 3.6315, -2.6183207
0.4280294, -0.0115816, 3.63825, 0.0256958, 3.63825, -1.0003662, 3.63825, -0.1643066, 3.63825, 2.5114503, 3.63825, 2.6259542, 3.63825, -2.3969467
0.4288235, -0.0129244, 3.645, 0.0231934, 3.645, -0.9995117, 3.645, -0.1619263, 3.645, 2.648855, 3.645, 2.9389312, 3.645, -2.3206108
0.4296176, -0.0105745, 3.65175, 0.0223999, 3.65175, -0.9979248, 3.65175, -0.1572266, 3.65175, 2.221374, 3.65175, 3.6717558, 3.65175, -2.0534351
0.4304118, -0.0102388, 3.6585, 0.017395, 3.6585, -0.9993286, 3.6585, -0.1524658, 3.6585, 1.5725191, 3.6585, 3.6564887, 3.6585, -2.2519083
0.4312059, -0.0119173, 3.66525, 0.0134277, 3.66525, -1.0037842, 3.66525, -0.1542969, 3.66525, 1.7175573, 3.66525, 3.3587787, 3.66525, -2.2900763
0.432, -0.011078, 3.672, 0.0130005, 3.672, -1.0062866, 3.672, -0.1588745, 3.672, 1.7022901, 3.672, 3.1908398, 3.672, -1.8320611
0.4327941, -0.0099031, 3.67875, 0.0098267, 3.67875, -1.0039673, 3.67875, -0.1593628, 3.67875, 1.8396946, 3.67875, 2.9007633, 3.67875, -1.7938931
0.4335882, -0.0102388, 3.6855, 0.007019, 3.6855, -1.0040894, 3.6855, -0.1609497, 3.6855, 1.4351145, 3.6855, 3.0610688, 3.6855, -1.6030535
0.4343824, -0.0082246, 3.69225, 0.0050659, 3.69225, -1.00177, 3.69225, -0.1593628, 3.69225, 1.0534351, 3.69225, 2.9160306, 3.69225, -1.6259542
0.4351765, -0.0099031, 3.699, 0.0046997, 3.699, -1.0033569, 3.699, -0.1653442, 3.699, 0.6717557, 3.699, 1.8778626, 3.699, -1.8473282
0.4359706, -0.0082246, 3.70575, 0.0090942, 3.70575, -1.0047607, 3.70575, -0.1643677, 3.70575, 0.4961832, 3.70575, 1.7709924, 3.70575, -1.7938931
0.4367647, -0.008896, 3.7125, 0.0073242, 3.7125, -1.0018311, 3.7125, -0.163208, 3.7125, 0.6717557, 3.7125, 1.8854961, 3.7125, -1.9541985
0.4375588, -0.0132601, 3.71925, 0.0065918, 3.71925, -1.0046997, 3.71925, -0.1582642, 3.71925, 0.8931298, 3.71925, 1.4885496, 3.71925, -2.0534351
0.4383529, -0.0135958, 3.726, 0.013855, 3.726, -1.0074463, 3.726, -0.1616211, 3.726, 0.8625954, 3.726, 1.2977099, 3.726, -2.1603053
0.4391471, -0.0149386, 3.73275, 0.0076294, 3.73275, -1.0057983, 3.73275, -0.170166, 3.73275, 0.8320611, 3.73275, 1.3206106, 3.73275, -2.1374047
0.4399412, -0.0182956, 3.7395, 0.0125122, 3.7395, -1.0012817, 3.7395, -0.1697998, 3.7395, 1.0839695, 3.7395, 1.5114504, 3.7395, -2.1068702
0.4407353, -0.0169528, 3.74625, 0.0103149, 3.74625, -1.0030518, 3.74625, -0.1691895, 3.74625, 1.0152671, 3.74625, 1.7862595, 3.74625, -2.1755726
0.4415294, -0.0182956, 3.753, 0.0103149, 3.753, -1.0039673, 3.753, -0.1682739, 3.753, 0.7251908, 3.753, 1.4656489, 3.753, -2.351145
0.4423235, -0.0203098, 3.75975, 0.013916, 3.75975, -1.0097046, 3.75975, -0.1602783, 3.75975, 0.7938932, 3.75975, 1.2748091, 3.75975, -2.1526718
0.4431176, -0.021149, 3.7665, 0.0136108, 3.7665, -1.0114746, 3.7665, -0.1623535, 3.7665, 1.2519084, 3.7665, 1.1068702, 3.7665, -2.2748091
0.4439118, -0.0182956, 3.77325, 0.0092773, 3.77325, -1.0048218, 3.77325, -0.1699829, 3.77325, 1.3282443, 3.77325, 0.9923664, 3.77325, -2.2137403
0.4447059, -0.0167849, 3.78, 0.0103149, 3.78, -1.0037842, 3.78, -0.1677246, 3.78, 1.3816794, 3.78, 1.4580153, 3.78, -2.3435113
0.4455, -0.0164492, 3.78675, 0.0136108, 3.78675, -1.003479, 3.78675, -0.1606445, 3.78675, 1.1908396, 3.78675, 1.4274809, 3.78675, -2.4427481
0.4462941, -0.0196384, 3.7935, 0.0095825, 3.7935, -1.0001831, 3.7935, -0.1588745, 3.7935, 0.9541985, 3.7935, 1.5572519, 3.7935, -2.6641221
0.4470882, -0.0193027, 3.80025, 0.0026855, 3.80025, -1.0027466, 3.80025, -0.1676636, 3.80025, 0.9541985, 3.80025, 1.2900764, 3.80025, -2.3969467
0.4478824, -0.0186313, 3.807, -6.1E-05, 3.807, -1.0065918, 3.807, -0.1695557, 3.807, 1.259542, 3.807, 0.8931298, 3.807, -2.5725191
0.4486765, -0.0166171, 3.81375, 6.1E-05, 3.81375, -1.0054932, 3.81375, -0.1710205, 3.81375, 1.1832061, 3.81375, 0.5496183, 3.81375, -2.7328243
0.4494706, -0.0179599, 3.8205, -0.0004272, 3.8205, -1.0073853, 3.8205, -0.1690674, 3.8205, 0.9694657, 3.8205, 0.2442748, 3.8205, -2.8549619
0.4502647, -0.0164492, 3.82725, 0.0031738, 3.82725, -1.0044556, 3.82725, -0.1671753, 3.82725, 0.610687, 3.82725, 0.5267175, 3.82725, -2.9007633
0.4510588, -0.0184634, 3.834, 0.0009155, 3.834, -1.0061035, 3.834, -0.1726685, 3.834, 0.5877863, 3.834, 1.1755725, 3.834, -2.8015268
0.4518529, -0.0193027, 3.84075, 0.0045776, 3.84075, -1.0078125, 3.84075, -0.1740723, 3.84075, 0.3664122, 3.84075, 0.5801527, 3.84075, -2.7175572
0.4526471, -0.0182956, 3.8475, 0.0092163, 3.8475, -1.0076904, 3.8475, -0.1741943, 3.8475, 0.4580153, 3.8475, 0.7938932, 3.8475, -2.778626
0.4534412, -0.0176242, 3.85425, 0.0050049, 3.85425, -1.0085449, 3.85425, -0.1695557, 3.85425, 0.0610687, 3.85425, 1.4198474, 3.85425, -2.8931298
0.4542353, -0.0171206, 3.861, 0.0072632, 3.861, -1.0062866, 3.861, -0.1657104, 3.861, 0.1068702, 3.861, 1.2748091, 3.861, -2.9847329
0.4550294, -0.0146029, 3.86775, 0.0039062, 3.86775, -1.005188, 3.86775, -0.1661987, 3.86775, -0.0458015, 3.86775, 1.4274809, 3.86775, -3.0687022
0.4558235, -0.0149386, 3.8745, 0.0081177, 3.8745, -1.0054321, 3.8745, -0.1628418, 3.8745, 0.0076336, 3.8745, 1.4503816, 3.8745, -2.8931298
0.4566176, -0.012253, 3.88125, 0.0054321, 3.88125, -1.0064087, 3.88125, -0.1711426, 3.88125, -0.0229008, 3.88125, 1, 3.88125, -3.1984732
0.4574118, -0.014435, 3.888, 0.0019531, 3.888, -1.0088501, 3.888, -0.1761475, 3.888, -0.1145038, 3.888, 0.8625954, 3.888, -3.3129771
0.4582059, -0.0152743, 3.89475, 0.00354, 3.89475, -1.0111084, 3.89475, -0.1764526, 3.89475, -0.1603053, 3.89475, 1.0687023, 3.89475, -3.221374
0.459, -0.0159457, 3.9015, 0.0014648, 3.9015, -1.0079346, 3.9015, -0.1652832, 3.9015, 0.1221374, 3.9015, 0.6641222, 3.9015, -3.2137403
0.4597941, -0.0157778, 3.90825, 0.0026855, 3.90825, -1.0075684, 3.90825, -0.1663818, 3.90825, 0.6335878, 3.90825, 0.3816794, 3.90825, -3.4427481
0.4605882, -0.0169528, 3.915, 0.0031738, 3.915, -1.0013428, 3.915, -0.1643066, 3.915, 1.0305344, 3.915, 0.3816794, 3.915, -3.2442749
0.4613824, -0.0172885, 3.92175, 0.008728, 3.92175, -1.0022583, 3.92175, -0.168335, 3.92175, 0.9236641, 3.92175, 0.6030535, 3.92175, -3.2977099
0.4621765, -0.0182956, 3.9285, 0.0126343, 3.9285, -1.0036621, 3.9285, -0.1660767, 3.9285, 0.7633588, 3.9285, 0.7938932, 3.9285, -3.3969467
0.4629706, -0.0203098, 3.93525, 0.0136108, 3.93525, -1.0011597, 3.93525, -0.1630859, 3.93525, 1.1450381, 3.93525, 1.1679389, 3.93525, -3.2290077
0.4637647, -0.0206455, 3.942, 0.0144653, 3.942, -1.0025024, 3.942, -0.166748, 3.942, 1.129771, 3.942, 1.259542, 3.942, -3.0152671
0.4645588, -0.0172885, 3.94875, 0.0158081, 3.94875, -1.0062256, 3.94875, -0.1653442, 3.94875, 1.2900764, 3.94875, 1.389313, 3.94875, -2.8854961
0.4653529, -0.0159457, 3.9555, 0.0101318, 3.9555, -1.0032349, 3.9555, -0.1712036, 3.9555, 1.3053435, 3.9555, 1.1603054, 3.9555, -3.0687022
0.4661471, -0.0130922, 3.96225, 0.0073242, 3.96225, -1.0044556, 3.96225, -0.168396, 3.96225, 1.0687023, 3.96225, 0.9312977, 3.96225, -3.0534351
0.4669412, -0.0142672, 3.969, 0.0106812, 3.969, -1.0026855, 3.969, -0.1621094, 3.969, 0.9847328, 3.969, 0.9007633, 3.969, -2.9465649
0.4677353, -0.0135958, 3.97575, 0.0123901, 3.97575, -1.0053101, 3.97575, -0.1641235, 3.97575, 1.3129771, 3.97575, 0.7099237, 3.97575, -3.1603053
0.4685294, -0.012253, 3.9825, 0.0089111, 3.9825, -1.0029297, 3.9825, -0.1706543, 3.9825, 1.3740458, 3.9825, 0.4732825, 3.9825, -3.3664122
0.4693235, -0.0124208, 3.98925, 0.0092773, 3.98925, -1.0010376, 3.98925, -0.177002, 3.98925, 0.870229, 3.98925, 0.5572519, 3.98925, -3.2366412
0.4701176, -0.0132601, 3.996, 0.0048218, 3.996, -1.00354, 3.996, -0.1698608, 3.996, 1.091603, 3.996, 0.4656489, 3.996, -3.4045801
0.4709118, -0.0142672, 4.00275, 0.0037842, 4.00275, -1.0033569, 4.00275, -0.1705322, 4.00275, 0.9694657, 4.00275, 0.351145, 4.00275, -3.3969467
0.4717059, -0.0151064, 4.0095, 0.0056763, 4.0095, -1.0048828, 4.0095, -0.1658325, 4.0095, 0.6946565, 4.0095, 0.4580153, 4.0095, -3.4580152
0.4725, -0.0129244, 4.01625, 0.0048218, 4.01625, -1.0054932, 4.01625, -0.1659546, 4.01625, 0.7251908, 4.01625, 0.5725191, 4.01625, -3.7175572
0.4732941, -0.014435, 4.023, 0.0015259, 4.023, -1.0070801, 4.023, -0.1629028, 4.023, 0.7175573, 4.023, -0.1068702, 4.023, -3.6259542
0.4740882, -0.01561, 4.02975, 0.0039673, 4.02975, -1.0057373, 4.02975, -0.1640015, 4.02975, 0.9770992, 4.02975, -0.2977099, 4.02975, -3.6564887
0.4748824, -0.0162814, 4.0365, 0.0057983, 4.0365, -1.0053711, 4.0365, -0.1668091, 4.0365, 1.1832061, 4.0365, -0.2824427, 4.0365, -3.648855
0.4756765, -0.0162814, 4.04325, 0.0108643, 4.04325, -1.0053101, 4.04325, -0.1713867, 4.04325, 1.0763359, 4.04325, -0.3053435, 4.04325, -3.740458
0.4764706, -0.017792, 4.05, 0.0123901, 4.05, -1.0054932, 4.05, -0.1713257, 4.05, 1.0534351, 4.05, -0.6412213, 4.05, -3.740458
0.4772647, -0.0176242, 4.05675, 0.0162964, 4.05675, -1.0031128, 4.05675, -0.1619873, 4.05675, 1.2442749, 4.05675, -0.3282443, 4.05675, -3.5954199
0.4780588, -0.0182956, 4.0635, 0.0217285, 4.0635, -1.0016479, 4.0635, -0.1647949, 4.0635, 1.4198474, 4.0635, 0.5496183, 4.0635, -3.4427481
0.4788529, -0.0149386, 4.07025, 0.020874, 4.07025, -1.001709, 4.07025, -0.1710205, 4.07025, 1.4198474, 4.07025, 1.0839695, 4.07025, -3.4580152
0.4796471, -0.0137636, 4.077, 0.0211792, 4.077, -1.0015869, 4.077, -0.168457, 4.077, 1.1526718, 4.077, 0.8167939, 4.077, -3.4045801
0.4804412, -0.0135958, 4.08375, 0.0128174, 4.08375, -1.0036621, 4.08375, -0.1710205, 4.08375, 1.129771, 4.08375, 0.8473282, 4.08375, -3.2290077
0.4812353, -0.0129244, 4.0905, 0.0056152, 4.0905, -1.0049438, 4.0905, -0.1673584, 4.0905, 0.7938932, 4.0905, 1.1908396, 4.0905, -3.2519083
0.4820294, -0.0125887, 4.09725, 0.0088501, 4.09725, -1.0023193, 4.09725, -0.1647949, 4.09725, 0.9541985, 4.09725, 1.0687023, 4.09725, -3.1908398
0.4828235, -0.012253, 4.104, 0.0131836, 4.104, -1.0005493, 4.104, -0.1661377, 4.104, 0.9465649, 4.104, 0.8015267, 4.104, -3.4274809
0.4836176, -0.0102388, 4.11075, 0.0111084, 4.11075, -1.0014648, 4.11075, -0.1676025, 4.11075, 0.8091603, 4.11075, 0.610687, 4.11075, -3.5725191
0.4844118, -0.0112459, 4.1175, 0.0081787, 4.1175, -1.0010376, 4.1175, -0.1605225, 4.1175, 0.8931298, 4.1175, 0.6946565, 4.1175, -3.5267177
0.4852059, -0.012253, 4.12425, 0.0119629, 4.12425, -1.0031128, 4.12425, -0.1594849, 4.12425, 0.7251908, 4.12425, 0.7022901, 4.12425, -3.6870229
0.486, -0.0139315, 4.131, 0.0099487, 4.131, -1.005127, 4.131, -0.1628418, 4.131, 0.5572519, 4.131, 1.1450381, 4.131, -3.5954199
0.4867941, -0.0115816, 4.13775, 0.005127, 4.13775, -1.0029297, 4.13775, -0.1622925, 4.13775, -0.0992366, 4.13775, 1.4503816, 4.13775, -3.3740458
0.4875882, -0.0142672, 4.1445, 0.0048218, 4.1445, -1.0050049, 4.1445, -0.1586914, 4.1445, 0.221374, 4.1445, 1.0992366, 4.1445, -3.3129771
0.4883824, -0.0129244, 4.15125, 0.0020752, 4.15125, -1.0064697, 4.15125, -0.1682739, 4.15125, -0.0992366, 4.15125, 0.2366412, 4.15125, -3.4503818
0.4891765, -0.0109102, 4.158, 0.0047607, 4.158, -1.0084839, 4.158, -0.166687, 4.158, -0.129771, 4.158, 0.1221374, 4.158, -3.4427481
0.4899706, -0.0109102, 4.16475, 0.0103149, 4.16475, -1.0089111, 4.16475, -0.1688232, 4.16475, 0.1374046, 4.16475, 0.0458015, 4.16475, -3.519084
0.4907647, -0.012253, 4.1715, 0.0183105, 4.1715, -1.0066528, 4.1715, -0.1679688, 4.1715, 0.3358779, 4.1715, 0.129771, 4.1715, -3.4732823
0.4915588, -0.0142672, 4.17825, 0.0230103, 4.17825, -1.0031738, 4.17825, -0.171936, 4.17825, 0.648855, 4.17825, 0.3053435, 4.17825, -3.1526718
0.4923529, -0.012253, 4.185, 0.0210571, 4.185, -1.0031128, 4.185, -0.1743774, 4.185, 0.5343512, 4.185, 0.4351145, 4.185, -3.3206108
0.4931471, -0.0082246, 4.19175, 0.0150146, 4.19175, -1.0042114, 4.19175, -0.1734619, 4.19175, 0.5877863, 4.19175, 1.1374046, 4.19175, -3.2137403
0.4939412, -0.008896, 4.1985, 0.0164795, 4.1985, -1.0038452, 4.1985, -0.171875, 4.1985, 0.7251908, 4.1985, 1.4351145, 4.1985, -3.3435113
0.4947353, -0.0129244, 4.20525, 0.015564, 4.20525, -1.0050659, 4.20525, -0.1726074, 4.20525, 0.5648855, 4.20525, 1.1908396, 4.20525, -3.1374047
0.4955294, -0.0166171, 4.212, 0.0100708, 4.212, -1.005249, 4.212, -0.1635742, 4.212, 0.9236641, 4.212, 1.2900764, 4.212, -3.0992367
0.4963235, -0.0129244, 4.21875, 0.0098877, 4.21875, -1.0042114, 4.21875, -0.1672974, 4.21875, 1.0152671, 4.21875, 1.2137405, 4.21875, -3.0229008
0.4971176, -0.012253, 4.2255, 0.0057983, 4.2255, -1.0003052, 4.2255, -0.1689453, 4.2255, 1.1526718, 4.2255, 0.8625954, 4.2255, -2.9465649
0.4979118, -0.0119173, 4.23225, 0.0108032, 4.23225, -1.0047607, 4.23225, -0.1696167, 4.23225, 0.9160305, 4.23225, 0.9312977, 4.23225, -3.1832061
0.4987059, -0.0114137, 4.239, 0.0145264, 4.239, -1.0061646, 4.239, -0.1630249, 4.239, 0.778626, 4.239, 1.1603054, 4.239, -3.1984732
0.4995, -0.0095674, 4.24575, 0.0162354, 4.24575, -1.0032349, 4.24575, -0.1641846, 4.24575, 1.0305344, 4.24575, 1.351145, 4.24575, -3.1679389
0.5002941, -0.010071, 4.2525, 0.013916, 4.2525, -1.0023193, 4.2525, -0.1652832, 4.2525, 1.129771, 4.2525, 0.8854962, 4.2525, -3.2442749
0.5010882, -0.012253, 4.25925, 0.0090942, 4.25925, -1, 4.25925, -0.1713867, 4.25925, 1.2366412, 4.25925, 0.6259542, 4.25925, -3.3129771
0.5018824, -0.0119173, 4.266, 0.0125122, 4.266, -0.9997559, 4.266, -0.1727295, 4.266, 0.9160305, 4.266, 1.0534351, 4.266, -2.9770992
0.5026765, -0.0129244, 4.27275, 0.0153809, 4.27275, -1.0043945, 4.27275, -0.1689453, 4.27275, 0.6030535, 4.27275, 1.1984733, 4.27275, -3.2748091
0.5034706, -0.0146029, 4.2795, 0.0131836, 4.2795, -1.0073853, 4.2795, -0.1654053, 4.2795, 0.8167939, 4.2795, 1.4351145, 4.2795, -3.2061069
0.5042647, -0.0135958, 4.28625, 0.0102539, 4.28625, -1.005249, 4.28625, -0.1732178, 4.28625, 0.7633588, 4.28625, 1.480916, 4.28625, -3.1832061
0.5050588, -0.0172885, 4.293, 0.0092163, 4.293, -1.0036621, 4.293, -0.1724243, 4.293, 0.5114504, 4.293, 0.961832, 4.293, -2.7099237
0.5058529, -0.0182956, 4.29975, 0.0100098, 4.29975, -1.0050659, 4.29975, -0.1704712, 4.29975, 0.6335878, 4.29975, 0.9847328, 4.29975, -2.8854961
0.5066471, -0.0181277, 4.3065, 0.0161133, 4.3065, -1.007019, 4.3065, -0.1690063, 4.3065, 0.2977099, 4.3065, 1.1984733, 4.3065, -3.038168
0.5074412, -0.0199741, 4.31325, 0.0148315, 4.31325, -1.0083618, 4.31325, -0.1637573, 4.31325, 0.3053435, 4.31325, 1.3282443, 4.31325, -2.9770992
0.5082353, -0.0199741, 4.32, 0.0145264, 4.32, -1.0062866, 4.32, -0.1619263, 4.32, 0.389313, 4.32, 1.5038168, 4.32, -3.0534351
0.5090294, -0.0203098, 4.32675, 0.0108643, 4.32675, -1.0028687, 4.32675, -0.166626, 4.32675, 0.6335878, 4.32675, 0.870229, 4.32675, -2.9847329
0.5098235, -0.0193027, 4.3335, 0.0115356, 4.3335, -1.0001831, 4.3335, -0.173645, 4.3335, 0.480916, 4.3335, 0.389313, 4.3335, -2.9312978
0.5106176, -0.0203098, 4.34025, 0.0130615, 4.34025, -1.0032959, 4.34025, -0.1740112, 4.34025, 0.4351145, 4.34025, 0.5419847, 4.34025, -2.961832
0.5114118, -0.0218204, 4.347, 0.0128174, 4.347, -1.0037842, 4.347, -0.1751709, 4.347, 0.5038168, 4.347, 0.9236641, 4.347, -2.9847329
0.5122059, -0.0229953, 4.35375, 0.0092773, 4.35375, -1.0027466, 4.35375, -0.1740723, 4.35375, 0.1984733, 4.35375, 1.0839695, 4.35375, -3.1755726
0.513, -0.0224918, 4.3605, 0.0111084, 4.3605, -1.0045776, 4.3605, -0.1711426, 4.3605, 0.389313, 4.3605, 0.7557252, 4.3605, -3.1068702
0.5137941, -0.0219883, 4.36725, 0.0092163, 4.36725, -1.0078735, 4.36725, -0.1679077, 4.36725, 0.5496183, 4.36725, 0.5419847, 4.36725, -2.9541984
0.5145882, -0.0218204, 4.374, 0.0078125, 4.374, -1.0083618, 4.374, -0.1723633, 4.374, 0.7328244, 4.374, 0.6946565, 4.374, -3.1145039
0.5153824, -0.0179599, 4.38075, 0.0087891, 4.38075, -1.0079956, 4.38075, -0.1730347, 4.38075, 0.6641222, 4.38075, 0.8244275, 4.38075, -3.0076337
0.5161765, -0.0186313, 4.3875, 0.0107422, 4.3875, -1.006958, 4.3875, -0.1721802, 4.3875, 0.6030535, 4.3875, 0.9236641, 4.3875, -3.3816793
0.5169706, -0.0186313, 4.39425, 0.0083618, 4.39425, -1.0059814, 4.39425, -0.1658325, 4.39425, 0.7862595, 4.39425, 1.1145039, 4.39425, -3.4274809
0.5177647, -0.018967, 4.401, 0.0090942, 4.401, -1.005188, 4.401, -0.1708374, 4.401, 0.8244275, 4.401, 0.8320611, 4.401, -3.3129771
0.5185588, -0.0157778, 4.40775, 0.0097046, 4.40775, -1.003418, 4.40775, -0.1741943, 4.40775, 1, 4.40775, 0.6183206, 4.40775, -3.0687022
0.5193529, -0.0139315, 4.4145, 0.0136719, 4.4145, -1.0043945, 4.4145, -0.1725464, 4.4145, 0.9312977, 4.4145, 0.961832, 4.4145, -3.3816793
0.5201471, -0.0152743, 4.42125, 0.0123901, 4.42125, -1.0038452, 4.42125, -0.1752319, 4.42125, 0.8244275, 4.42125, 1.1603054, 4.42125, -3.3664122
0.5209412, -0.0149386, 4.428, 0.0106201, 4.428, -1.0026855, 4.428, -0.1744385, 4.428, 0.5496183, 4.428, 1.0687023, 4.428, -3.221374
0.5217353, -0.01561, 4.43475, 0.0112305, 4.43475, -1.0030518, 4.43475, -0.1705933, 4.43475, 0.5954198, 4.43475, 1.0992366, 4.43475, -3.1068702
0.5225294, -0.0182956, 4.4415, 0.0115356, 4.4415, -1.0044556, 4.4415, -0.1721802, 4.4415, 0.5801527, 4.4415, 0.9770992, 4.4415, -3.0763359
0.5233235, -0.0164492, 4.44825, 0.0169067, 4.44825, -1.0014038, 4.44825, -0.1713257, 4.44825, 0.5343512, 4.44825, 1.1984733, 4.44825, -3.3053436
0.5241176, -0.012253, 4.455, 0.0162964, 4.455, -1.0009766, 4.455, -0.1687622, 4.455, 0.5877863, 4.455, 1.3435115, 4.455, -3.0839694
0.5249118, -0.0139315, 4.46175, 0.0154419, 4.46175, -0.9991455, 4.46175, -0.1694946, 4.46175, 0.3740458, 4.46175, 1.4274809, 4.46175, -3.0763359
0.5257059, -0.0182956, 4.4685, 0.0182495, 4.4685, -1.0006714, 4.4685, -0.1664429, 4.4685, 0.3282443, 4.4685, 1.6183206, 4.4685, -2.9923663
0.5265, -0.01561, 4.47525, 0.0159912, 4.47525, -1.0028687, 4.47525, -0.1682739, 4.47525, 0.2442748, 4.47525, 1.5954199, 4.47525, -2.9389312
0.5272941, -0.0149386, 4.482, 0.0140381, 4.482, -1.0024414, 4.482, -0.1708984, 4.482, 0.1145038, 4.482, 1.519084, 4.482, -2.6564887
0.5280882, -0.0132601, 4.48875, 0.0164795, 4.48875, -1.0005493, 4.48875, -0.1715698, 4.48875, 0.4427481, 4.48875, 1.7862595, 4.48875, -2.908397
0.5288824, -0.0125887, 4.4955, 0.0111694, 4.4955, -1.0037231, 4.4955, -0.1682129, 4.4955, 0.389313, 4.4955, 1.7633588, 4.4955, -2.8931298
0.5296765, -0.0142672, 4.50225, 0.0093384, 4.50225, -1.0061035, 4.50225, -0.1686401, 4.50225, 0.3969466, 4.50225, 1.4122137, 4.50225, -2.7938931
0.5304706, -0.0142672, 4.509, 0.0095215, 4.509, -1.00354, 4.509, -0.1699829, 4.509, 0.4656489, 4.509, 1.4732825, 4.509, -2.8473282
0.5312647, -0.0102388, 4.51575, 0.0078735, 4.51575, -1.0040283, 4.51575, -0.1702881, 4.51575, 0.6870229, 4.51575, 1.480916, 4.51575, -2.8854961
0.5320588, -0.0082246, 4.5225, 0.0097656, 4.5225, -1.0046387, 4.5225, -0.1712036, 4.5225, 0.6259542, 4.5225, 1.259542, 4.5225, -3.0152671
0.5328529, -0.0099031, 4.52925, 0.0085449, 4.52925, -1.0075073, 4.52925, -0.1748657, 4.52925, 0.2824427, 4.52925, 1.1679389, 4.52925, -2.9465649
0.5336471, -0.0082246, 4.536, 0.0089111, 4.536, -1.0075684, 4.536, -0.1687012, 4.536, 0.4427481, 4.536, 1.0458015, 4.536, -2.9312978
0.5344412, -0.0085603, 4.54275, 0.0076294, 4.54275, -1.0078125, 4.54275, -0.1727295, 4.54275, 0.5877863, 4.54275, 0.9847328, 4.54275, -3.0992367
0.5352353, -0.0109102, 4.5495, 0.005188, 4.5495, -1.0054321, 4.5495, -0.1757202, 4.5495, 0.5954198, 4.5495, 0.9770992, 4.5495, -2.9465649
0.5360294, -0.012253, 4.55625, 0.0075684, 4.55625, -1.0009766, 4.55625, -0.1751709, 4.55625, 0.7709923, 4.55625, 1, 4.55625, -3.0152671
0.5368235, -0.0125887, 4.563, 0.012207, 4.563, -1.0021973, 4.563, -0.1783447, 4.563, 0.6870229, 4.563, 0.8473282, 4.563, -2.8396947
0.5376176, -0.0112459, 4.56975, 0.015564, 4.56975, -1.0020142, 4.56975, -0.1724854, 4.56975, 0.8091603, 4.56975, 0.8091603, 4.56975, -3.091603
0.5384118, -0.0135958, 4.5765, 0.0155029, 4.5765, -1.0010376, 4.5765, -0.1723633, 4.5765, 0.8167939, 4.5765, 1.0229008, 4.5765, -3.091603
0.5392059, -0.01561, 4.58325, 0.0168457, 4.58325, -1.0022583, 4.58325, -0.1777954, 4.58325, 0.6564885, 4.58325, 1.0992366, 4.58325, -2.961832
0.54, -0.0169528, 4.59, 0.0161133, 4.59, -1.0033569, 4.59, -0.1749268, 4.59, 0.5648855, 4.59, 1.351145, 4.59, -2.778626
0.5407941, -0.0137636, 4.59675, 0.0161133, 4.59675, -1.0039673, 4.59675, -0.1744995, 4.59675, 0.4351145, 4.59675, 1.5648855, 4.59675, -2.8549619
0.5415882, -0.0135958, 4.6035, 0.0159302, 4.6035, -1.0053101, 4.6035, -0.1708374, 4.6035, 0.5801527, 4.6035, 1.5343511, 4.6035, -2.9465649
0.5423824, -0.0152743, 4.61025, 0.0136108, 4.61025, -1.0039062, 4.61025, -0.1715088, 4.61025, 0.5419847, 4.61025, 1.6183206, 4.61025, -2.8091602
0.5431765, -0.0135958, 4.617, 0.0106201, 4.617, -1.0038452, 4.617, -0.1688843, 4.617, 0.6793893, 4.617, 1.7251909, 4.617, -2.6335878
0.5439706, -0.0135958, 4.62375, 0.0117188, 4.62375, -1.0088501, 4.62375, -0.1669312, 4.62375, 0.7251908, 4.62375, 1.6870229, 4.62375, -2.6641221
0.5447647, -0.01561, 4.6305, 0.0107422, 4.6305, -1.0079956, 4.6305, -0.1679077, 4.6305, 1.0992366, 4.6305, 1.4351145, 4.6305, -2.6030533
0.5455588, -0.0159457, 4.63725, 0.006897, 4.63725, -1.0042114, 4.63725, -0.1685181, 4.63725, 0.8549618, 4.63725, 1.2748091, 4.63725, -2.6641221
0.5463529, -0.01561, 4.644, 0.0057373, 4.644, -1.0049438, 4.644, -0.1696167, 4.644, 1.0305344, 4.644, 1.0229008, 4.644, -2.5114503
0.5471471, -0.0125887, 4.65075, 0.0043945, 4.65075, -1.0020752, 4.65075, -0.1762085, 4.65075, 0.9694657, 4.65075, 1.0305344, 4.65075, -2.610687
0.5479412, -0.014435, 4.6575, 0.0058594, 4.6575, -1.0014648, 4.6575, -0.1749878, 4.6575, 0.961832, 4.6575, 0.8854962, 4.6575, -2.5725191
0.5487353, -0.0176242, 4.66425, 0.0107422, 4.66425, -1.0012817, 4.66425, -0.171936, 4.66425, 1.0229008, 4.66425, 0.8091603, 4.66425, -2.6183207
0.5495294, -0.018967, 4.671, 0.0112915, 4.671, -1.0041504, 4.671, -0.1713867, 4.671, 1.129771, 4.671, 1.0458015, 4.671, -2.740458
0.5503235, -0.0243381, 4.67775, 0.0089722, 4.67775, -1.0072632, 4.67775, -0.1706543, 4.67775, 1.0229008, 4.67775, 1.0839695, 4.67775, -2.5801528
0.5511176, -0.0216526, 4.6845, 0.0075073, 4.6845, -1.0076294, 4.6845, -0.1738281, 4.6845, 0.9236641, 4.6845, 1.1145039, 4.6845, -2.8091602
0.5519118, -0.0216526, 4.69125, 0.0100708, 4.69125, -1.0036621, 4.69125, -0.1740112, 4.69125, 0.8625954, 4.69125, 1.3587786, 4.69125, -2.7557251
0.5527059, -0.0219883, 4.698, 0.0021973, 4.698, -1.0050049, 4.698, -0.1689453, 4.698, 0.9923664, 4.698, 1.4351145, 4.698, -2.8549619
0.5535, -0.0206455, 4.70475, 0.0025635, 4.70475, -1.006958, 4.70475, -0.1687012, 4.70475, 1.0458015, 4.70475, 1.2900764, 4.70475, -2.7862597
0.5542941, -0.0182956, 4.7115, 0.0089111, 4.7115, -1.0108643, 4.7115, -0.1732178, 4.7115, 1.2519084, 4.7115, 0.908397, 4.7115, -2.7022901
0.5550882, -0.0203098, 4.71825, 0.0064697, 4.71825, -1.0053711, 4.71825, -0.1745605, 4.71825, 1.4503816, 4.71825, 0.7938932, 4.71825, -2.6183207
0.5558824, -0.0203098, 4.725, 0.0128174, 4.725, -1.0028687, 4.725, -0.1716919, 4.725, 1.0992366, 4.725, 0.5877863, 4.725, -2.8396947
0.5566765, -0.0209812, 4.73175, 0.0064087, 4.73175, -1.0024414, 4.73175, -0.1749878, 4.73175, 0.6641222, 4.73175, 0.8396947, 4.73175, -2.7251909
0.5574706, -0.0203098, 4.7385, 0.0011597, 4.7385, -1.0036011, 4.7385, -0.178833, 4.7385, 0.8854962, 4.7385, 0.6870229, 4.7385, -2.7022901
0.5582647, -0.0169528, 4.74525, 0.0024414, 4.74525, -1.0062866, 4.74525, -0.1809692, 4.74525, 0.8320611, 4.74525, 0.3587786, 4.74525, -2.8091602
0.5590588, -0.0112459, 4.752, 0.0085449, 4.752, -1.0043335, 4.752, -0.1815796, 4.752, 0.4198473, 4.752, 0.5877863, 4.752, -3.0076337
0.5598529, -0.012253, 4.75875, 0.0102539, 4.75875, -1.0001831, 4.75875, -0.1785889, 4.75875, 0.648855, 4.75875, 0.908397, 4.75875, -2.9312978
0.5606471, -0.0171206, 4.7655, 0.0122681, 4.7655, -1.0025024, 4.7655, -0.1729126, 4.7655, 0.7099237, 4.7655, 1.1145039, 4.7655, -2.8549619
0.5614412, -0.0172885, 4.77225, 0.0095825, 4.77225, -1.0048828, 4.77225, -0.1723022, 4.77225, 0.6793893, 4.77225, 1.0992366, 4.77225, -2.740458
0.5622353, -0.0152743, 4.779, 0.0073242, 4.779, -1.0047607, 4.779, -0.1754761, 4.779, 0.6564885, 4.779, 0.9312977, 4.779, -2.8549619
0.5630294, -0.0129244, 4.78575, 0.0080566, 4.78575, -1.0044556, 4.78575, -0.1758423, 4.78575, 0.3282443, 4.78575, 1.0687023, 4.78575, -2.9541984
0.5638235, -0.0095674, 4.7925, 0.0112305, 4.7925, -1.0032349, 4.7925, -0.1710815, 4.7925, 0.4122137, 4.7925, 0.8778626, 4.7925, -2.9312978
0.5646176, -0.010071, 4.79925, 0.0092773, 4.79925, -1.0054932, 4.79925, -0.1716919, 4.79925, 0.4732825, 4.79925, 0.1450382, 4.79925, -2.9770992
0.5654118, -0.0115816, 4.806, 0.0057983, 4.806, -1.0041504, 4.806, -0.1768188, 4.806, 0.3740458, 4.806, 0.2977099, 4.806, -2.8549619
0.5662059, -0.0115816, 4.81275, 0.005249, 4.81275, -1.0039673, 4.81275, -0.1777954, 4.81275, 0.2671756, 4.81275, 1.1145039, 4.81275, -2.8778627
0.567, -0.0124208, 4.8195, 0.0070801, 4.8195, -1.0053101, 4.8195, -0.175354, 4.8195, 0.2900763, 4.8195, 0.870229, 4.8195, -2.9312978
0.5677941, -0.0075532, 4.82625, 0.0076294, 4.82625, -1.0045166, 4.82625, -0.1757812, 4.82625, 0.5343512, 4.82625, 0.5496183, 4.82625, -2.9847329
0.5685882, -0.0105745, 4.833, 0.0096436, 4.833, -1.0040283, 4.833, -0.1774292, 4.833, 0.6946565, 4.833, 0.7557252, 4.833, -2.8320611
0.5693824, -0.0149386, 4.83975, 0.010437, 4.83975, -1.0042725, 4.83975, -0.1758423, 4.83975, 0.7099237, 4.83975, 0.5954198, 4.83975, -2.8931298
0.5701765, -0.0166171, 4.8465, 0.0095215, 4.8465, -1.0046387, 4.8465, -0.1712646, 4.8465, 0.7251908, 4.8465, 0.5496183, 4.8465, -3.0610688
0.5709706, -0.014435, 4.85325, 0.0075684, 4.85325, -1.0078125, 4.85325, -0.1726074, 4.85325, 0.7099237, 4.85325, 0.7175573, 4.85325, -3.1832061
0.5717647, -0.0124208, 4.86, 0.0092163, 4.86, -1.0053711, 4.86, -0.1757812, 4.86, 0.7862595, 4.86, 0.8549618, 4.86, -3.0534351
0.5725588, -0.0162814, 4.86675, 0.0037231, 4.86675, -1.0067749, 4.86675, -0.1752319, 4.86675, 0.6564885, 4.86675, 0.7709923, 4.86675, -3.1679389
0.5733529, -0.0166171, 4.8735, 0.0027466, 4.8735, -1.0056763, 4.8735, -0.1748047, 4.8735, 0.8167939, 4.8735, 0.3282443, 4.8735, -3.0992367
0.5741471, -0.0139315, 4.88025, 0.0025635, 4.88025, -1.0050049, 4.88025, -0.171875, 4.88025, 0.8854962, 4.88025, 0.2900763, 4.88025, -3.1755726
0.5749412, -0.0109102, 4.887, 0.0092163, 4.887, -1.0028687, 4.887, -0.1732788, 4.887, 0.9694657, 4.887, 0.1755725, 4.887, -3.0076337
0.5757353, -0.012253, 4.89375, 0.0141602, 4.89375, -0.9988403, 4.89375, -0.1728516, 4.89375, 0.9236641, 4.89375, 0.6030535, 4.89375, -2.9541984
0.5765294, -0.0162814, 4.9005, 0.0159912, 4.9005, -1.0029907, 4.9005, -0.1744385, 4.9005, 0.961832, 4.9005, 0.5954198, 4.9005, -2.8396947
0.5773235, -0.012253, 4.90725, 0.017395, 4.90725, -1.0009155, 4.90725, -0.1773071, 4.90725, 0.740458, 4.90725, 0.8167939, 4.90725, -2.9007633
0.5781176, -0.0132601, 4.914, 0.0137329, 4.914, -1.0016479, 4.914, -0.1760864, 4.914, 0.9694657, 4.914, 1.1145039, 4.914, -2.8244274
0.5789118, -0.012253, 4.92075, 0.0119019, 4.92075, -1.0042114, 4.92075, -0.173584, 4.92075, 0.961832, 4.92075, 1.0992366, 4.92075, -2.9923663
0.5797059, -0.0112459, 4.9275, 0.012146, 4.9275, -0.9989624, 4.9275, -0.1754761, 4.9275, 0.4732825, 4.9275, 0.6870229, 4.9275, -2.7938931
0.5805, -0.0172885, 4.93425, 0.007019, 4.93425, -1.0010986, 4.93425, -0.1696167, 4.93425, 0.3129771, 4.93425, 0.3435115, 4.93425, -2.7938931
0.5812941, -0.0213169, 4.941, 0.0085449, 4.941, -1.0012817, 4.941, -0.1725464, 4.941, 0.3129771, 4.941, 0.1832061, 4.941, -2.7328243
0.5820882, -0.0213169, 4.94775, 0.0061646, 4.94775, -1.0061646, 4.94775, -0.1777344, 4.94775, 0.6793893, 4.94775, -0.0152672, 4.94775, -2.8473282
0.5828824, -0.0172885, 4.9545, 0.0057373, 4.9545, -1.0081177, 4.9545, -0.1729736, 4.9545, 0.4656489, 4.9545, 0.1603053, 4.9545, -2.908397
0.5836765, -0.0152743, 4.96125, 0.0073853, 4.96125, -1.005249, 4.96125, -0.1771851, 4.96125, 0.740458, 4.96125, 0.389313, 4.96125, -3.0458016
0.5844706, -0.0142672, 4.968, 0.0089111, 4.968, -1.0025635, 4.968, -0.1727905, 4.968, 0.8015267, 4.968, 0.3053435, 4.968, -2.8244274
0.5852647, -0.0149386, 4.97475, 0.0064087, 4.97475, -1.005249, 4.97475, -0.1708374, 4.97475, 0.8854962, 4.97475, 0, 4.97475, -2.9236641
0.5860588, -0.01561, 4.9815, 0.0040283, 4.9815, -1.005127, 4.9815, -0.1699219, 4.9815, 1.2442749, 4.9815, 0.1984733, 4.9815, -3
0.5868529, -0.0139315, 4.98825, 0.0025635, 4.98825, -1.0047607, 4.98825, -0.1728516, 4.98825, 1.1603054, 4.98825, 0.5496183, 4.98825, -2.7099237
0.5876471, -0.0119173, 4.995, 0.0039673, 4.995, -1.0061646, 4.995, -0.178833, 4.995, 1.0458015, 4.995, 0.259542, 4.995, -2.8549619
0.5884412, -0.0115816, 5.00175, 0.0025024, 5.00175, -1.0050659, 5.00175, -0.1748047, 5.00175, 0.740458, 5.00175, 0.3129771, 5.00175, -2.7862597
0.5892353, -0.0125887, 5.0085, 0.0061035, 5.0085, -1.0046387, 5.0085, -0.177002, 5.0085, 0.8854962, 5.0085, -0.1450382, 5.0085, -2.6946564
0.5900294, -0.0135958, 5.01525, 0.0064087, 5.01525, -1.003479, 5.01525, -0.1818848, 5.01525, 0.6335878, 5.01525, -0.1145038, 5.01525, -2.6641221
0.5908235, -0.0149386, 5.022, 0.0082397, 5.022, -1.003418, 5.022, -0.1799927, 5.022, 0.5954198, 5.022, 0.3587786, 5.022, -2.8625953
0.5916176, -0.0149386, 5.02875, 0.0110474, 5.02875, -1.005249, 5.02875, -0.1792603, 5.02875, 0.6793893, 5.02875, 0.5801527, 5.02875, -2.908397
0.5924118, -0.0142672, 5.0355, 0.0087891, 5.0355, -1.0037842, 5.0355, -0.1791992, 5.0355, 0.740458, 5.0355, 0.3206107, 5.0355, -2.8167939
0.5932059, -0.0142672, 5.04225, 0.0058594, 5.04225, -1.0037842, 5.04225, -0.1761475, 5.04225, 0.9160305, 5.04225, 0.1374046, 5.04225, -2.9541984
0.594, -0.0169528, 5.049, 0.0036011, 5.049, -1.0028076, 5.049, -0.1780396, 5.049, 0.8396947, 5.049, 0.1755725, 5.049, -3.0992367
0.5947941, -0.0162814, 5.05575, 0.0044556, 5.05575, -1.0059204, 5.05575, -0.1786499, 5.05575, 0.740458, 5.05575, 0.1068702, 5.05575, -3.091603
0.5955882, -0.014435, 5.0625, 0.0089111, 5.0625, -1.0038452, 5.0625, -0.177124, 5.0625, 0.6641222, 5.0625, 0.2900763, 5.0625, -2.9923663
0.5963824, -0.0169528, 5.06925, 0.0118408, 5.06925, -1.0046997, 5.06925, -0.1728516, 5.06925, 0.7709923, 5.06925, 0.6183206, 5.06925, -3.0534351
0.5971765, -0.0162814, 5.076, 0.0119019, 5.076, -1.0036011, 5.076, -0.1744385, 5.076, 0.9007633, 5.076, 0.4427481, 5.076, -3.1832061
0.5979706, -0.0182956, 5.08275, 0.0119629, 5.08275, -1.0007324, 5.08275, -0.1785278, 5.08275, 0.9923664, 5.08275, 0.6030535, 5.08275, -3.0229008
0.5987647, -0.0151064, 5.0895, 0.0112305, 5.0895, -1.0038452, 5.0895, -0.1783447, 5.0895, 0.9847328, 5.0895, 0.648855, 5.0895, -3.0687022
0.5995588, -0.0159457, 5.09625, 0.0106201, 5.09625, -1.0042725, 5.09625, -0.1724854, 5.09625, 0.908397, 5.09625, 1.0763359, 5.09625, -3.0610688
0.6003529, -0.0176242, 5.103, 0.0084229, 5.103, -1.0033569, 5.103, -0.1697998, 5.103, 0.8549618, 5.103, 1, 5.103, -3.1068702
0.6011471, -0.0139315, 5.10975, 0.0103149, 5.10975, -1.0014038, 5.10975, -0.1730957, 5.10975, 0.8931298, 5.10975, 0.7099237, 5.10975, -2.9541984
0.6019412, -0.0135958, 5.1165, 0.0074463, 5.1165, -1.0010986, 5.1165, -0.171814, 5.1165, 0.9694657, 5.1165, 0.8778626, 5.1165, -2.9160306
0.6027353, -0.0132601, 5.12325, 0.0039062, 5.12325, -1.00177, 5.12325, -0.1713257, 5.12325, 1.2442749, 5.12325, 0.6564885, 5.12325, -2.9923663
0.6035294, -0.0137636, 5.13, 0.0068359, 5.13, -1.0043335, 5.13, -0.1721191, 5.13, 1.2137405, 5.13, 0.480916, 5.13, -2.8244274
0.6043235, -0.0119173, 5.13675, 0.0073853, 5.13675, -1.0041504, 5.13675, -0.1748047, 5.13675, 1.1068702, 5.13675, 0.389313, 5.13675, -2.8091602
0.6051176, -0.0115816, 5.1435, 0.0080566, 5.1435, -1.0032959, 5.1435, -0.1802368, 5.1435, 1.1374046, 5.1435, 0.259542, 5.1435, -3.0229008
0.6059118, -0.0129244, 5.15025, 0.0089722, 5.15025, -1.0026855, 5.15025, -0.1783447, 5.15025, 1.4274809, 5.15025, 0.7022901, 5.15025, -3
0.6067059, -0.0149386, 5.157, 0.0100098, 5.157, -1.0059814, 5.157, -0.1784058, 5.157, 1.2977099, 5.157, 1.1068702, 5.157, -2.9007633
0.6075, -0.0184634, 5.16375, 0.005127, 5.16375, -1.0060425, 5.16375, -0.1705322, 5.16375, 1.259542, 5.16375, 1.4503816, 5.16375, -2.9312978
0.6082941, -0.0176242, 5.1705, 0.0059204, 5.1705, -1.0039062, 5.1705, -0.1743774, 5.1705, 1.3969465, 5.1705, 1.5038168, 5.1705, -2.9312978
0.6090882, -0.0174563, 5.17725, 0.00354, 5.17725, -1.0056152, 5.17725, -0.1751099, 5.17725, 1.1450381, 5.17725, 1.0229008, 5.17725, -2.8244274
0.6098824, -0.0204776, 5.184, 0.0011597, 5.184, -1.0058594, 5.184, -0.1773682, 5.184, 1.2137405, 5.184, 0.7557252, 5.184, -3.0152671
0.6106765, -0.0213169, 5.19075, 0.0063477, 5.19075, -1.0048218, 5.19075, -0.1785278, 5.19075, 1.1526718, 5.19075, 0.8396947, 5.19075, -2.9541984
0.6114706, -0.0216526, 5.1975, 0.005249, 5.1975, -1.0042114, 5.1975, -0.1791382, 5.1975, 1.0992366, 5.1975, 0.6946565, 5.1975, -2.9007633
0.6122647, -0.0199741, 5.20425, 0.0099487, 5.20425, -1.0043945, 5.20425, -0.1758423, 5.20425, 1.0305344, 5.20425, 0.4503817, 5.20425, -2.9236641
0.6130588, -0.0186313, 5.211, 0.0062866, 5.211, -1.0048218, 5.211, -0.1768188, 5.211, 1.0229008, 5.211, 0.4961832, 5.211, -2.8473282
0.6138529, -0.0198062, 5.21775, 0.0070801, 5.21775, -1.0027466, 5.21775, -0.1800537, 5.21775, 1.0458015, 5.21775, 0.6717557, 5.21775, -3.1603053
0.6146471, -0.0196384, 5.2245, 0.0067139, 5.2245, -1.0059814, 5.2245, -0.1776123, 5.2245, 1.0305344, 5.2245, 0.6564885, 5.2245, -3.0534351
0.6154412, -0.017792, 5.23125, 0.0065308, 5.23125, -1.0032959, 5.23125, -0.1787109, 5.23125, 1.2824427, 5.23125, 0.5267175, 5.23125, -3.1679389
0.6162353, -0.0142672, 5.238, 0.0073853, 5.238, -1.0033569, 5.238, -0.1763306, 5.238, 1.1145039, 5.238, 0.4732825, 5.238, -3.0458016
0.6170294, -0.0125887, 5.24475, 0.0136719, 5.24475, -1.0002441, 5.24475, -0.1749878, 5.24475, 1.2290076, 5.24475, 0.8778626, 5.24475, -3.0839694
0.6178235, -0.0129244, 5.2515, 0.0118408, 5.2515, -1.0030518, 5.2515, -0.1752319, 5.2515, 1.091603, 5.2515, 1.091603, 5.2515, -3.0992367
0.6186176, -0.0115816, 5.25825, 0.0096436, 5.25825, -1.0006714, 5.25825, -0.1744385, 5.25825, 1.0687023, 5.25825, 0.870229, 5.25825, -3.1679389
0.6194118, -0.0129244, 5.265, 0.0072632, 5.265, -1.0013428, 5.265, -0.1724243, 5.265, 1.0839695, 5.265, 1.2137405, 5.265, -3.0839694
0.6202059, -0.012253, 5.27175, 0.0042725, 5.27175, -1.0039673, 5.27175, -0.1692505, 5.27175, 1.1068702, 5.27175, 1.1526718, 5.27175, -3.0839694
0.621, -0.0130922, 5.2785, 0.0012817, 5.2785, -1.00177, 5.2785, -0.1665039, 5.2785, 1.091603, 5.2785, 1.1908396, 5.2785, -3.0076337
0.6217941, -0.0135958, 5.28525, 0.005249, 5.28525, -1.0043335, 5.28525, -0.1673584, 5.28525, 1.0076336, 5.28525, 0.6717557, 5.28525, -3.1068702
0.6225882, -0.0139315, 5.292, 0.0073853, 5.292, -1.003418, 5.292, -0.1686401, 5.292, 1.221374, 5.292, 0.7480916, 5.292, -3.2290077
0.6233824, -0.0125887, 5.29875, 0.0083618, 5.29875, -1.0032959, 5.29875, -0.1690063, 5.29875, 1.2671756, 5.29875, 0.6183206, 5.29875, -3.2061069
0.6241765, -0.0095674, 5.3055, 0.0043945, 5.3055, -1.0006104, 5.3055, -0.1749268, 5.3055, 1.0076336, 5.3055, 0.5496183, 5.3055, -3.0763359
0.6249706, -0.0092317, 5.31225, 0.0043335, 5.31225, -1.0007324, 5.31225, -0.1731567, 5.31225, 0.5801527, 5.31225, 0.4122137, 5.31225, -3.129771
0.6257647, -0.0095674, 5.319, 0.0065918, 5.319, -1.0065918, 5.319, -0.1717529, 5.319, 0.6717557, 5.319, 0.480916, 5.319, -3.1908398
0.6265588, -0.0095674, 5.32575, 0.0093994, 5.32575, -1.005188, 5.32575, -0.1746216, 5.32575, 0.7633588, 5.32575, 0.5954198, 5.32575, -3.2137403
0.6273529, -0.008896, 5.3325, 0.0081787, 5.3325, -1.0044556, 5.3325, -0.1796265, 5.3325, 0.5725191, 5.3325, 0.6335878, 5.3325, -3
0.6281471, -0.0102388, 5.33925, 0.0043335, 5.33925, -1.0044556, 5.33925, -0.1750488, 5.33925, 0.8015267, 5.33925, 0.5038168, 5.33925, -3.1374047
0.6289412, -0.011078, 5.346, 0.0020142, 5.346, -1.0064087, 5.346, -0.1697388, 5.346, 0.6412213, 5.346, 0.4961832, 5.346, -3.1679389
0.6297353, -0.0142672, 5.35275, 0.0026855, 5.35275, -1.0028076, 5.35275, -0.175354, 5.35275, 0.7862595, 5.35275, 0.7251908, 5.35275, -3.0763359
0.6305294, -0.0130922, 5.3595, 0.0046387, 5.3595, -1.0032959, 5.3595, -0.1775513, 5.3595, 1.1450381, 5.3595, 0.610687, 5.3595, -2.8167939
0.6313235, -0.0139315, 5.36625, 0.0064697, 5.36625, -1.0015869, 5.36625, -0.1761475, 5.36625, 1.1832061, 5.36625, 0.6793893, 5.36625, -3.0458016
0.6321176, -0.0169528, 5.373, 0.0094604, 5.373, -1.003418, 5.373, -0.1758423, 5.373, 0.9923664, 5.373, 0.6412213, 5.373, -3.1679389
0.6329118, -0.0151064, 5.37975, 0.0112915, 5.37975, -1.0018921, 5.37975, -0.1766357, 5.37975, 0.908397, 5.37975, 0.8167939, 5.37975, -3.0610688
0.6337059, -0.0142672, 5.3865, 0.0139771, 5.3865, -1.003479, 5.3865, -0.1820068, 5.3865, 0.8167939, 5.3865, 1.0229008, 5.3865, -2.908397
0.6345, -0.0142672, 5.39325, 0.0148926, 5.39325, -1.0003662, 5.39325, -0.1754761, 5.39325, 0.7022901, 5.39325, 1.2442749, 5.39325, -3.0763359
0.6352941, -0.0139315, 5.4, 0.0122681, 5.4, -1.0009155, 5.4, -0.1760254, 5.4, 0.7099237, 5.4, 1.4274809, 5.4, -3.0992367
0.6360882, -0.0119173, 5.40675, 0.0112305, 5.40675, -1.0018921, 5.40675, -0.1763916, 5.40675, 0.9694657, 5.40675, 1.6030535, 5.40675, -3.0076337
0.6368824, -0.012253, 5.4135, 0.0048218, 5.4135, -1.0031128, 5.4135, -0.1743774, 5.4135, 0.7938932, 5.4135, 1.2900764, 5.4135, -2.9389312
0.6376765, -0.0159457, 5.42025, 0.003479, 5.42025, -1.0023804, 5.42025, -0.1696777, 5.42025, 0.8015267, 5.42025, 1.0839695, 5.42025, -3.0229008
0.6384706, -0.0149386, 5.427, 0.0054932, 5.427, -0.9995728, 5.427, -0.1752319, 5.427, 0.8854962, 5.427, 1.1221374, 5.427, -3.0839694
0.6392647, -0.0135958, 5.43375, 0.0056152, 5.43375, -0.9991455, 5.43375, -0.1748047, 5.43375, 0.9389313, 5.43375, 1, 5.43375, -2.9770992
0.6400588, -0.0142672, 5.4405, 0.0050659, 5.4405, -0.9995728, 5.4405, -0.1704102, 5.4405, 0.9770992, 5.4405, 1.038168, 5.4405, -3.0992367
0.6408529, -0.01561, 5.44725, 0.0033569, 5.44725, -1.0033569, 5.44725, -0.1723022, 5.44725, 1.2824427, 5.44725, 1.0305344, 5.44725, -3.1603053
0.6416471, -0.0176242, 5.454, 0.0032959, 5.454, -1.0031128, 5.454, -0.1773071, 5.454, 1.2137405, 5.454, 1.0839695, 5.454, -3.351145
0.6424412, -0.0209812, 5.46075, 0.0031738, 5.46075, -1.0078735, 5.46075, -0.1773682, 5.46075, 1.3206106, 5.46075, 0.9236641, 5.46075, -3.4351146
0.6432353, -0.021149, 5.4675, 0.0040283, 5.4675, -1.0072021, 5.4675, -0.1734619, 5.4675, 1.519084, 5.4675, 0.9694657, 5.4675, -3.1603053
0.6440294, -0.0203098, 5.47425, 0.0041504, 5.47425, -1.0067139, 5.47425, -0.1719971, 5.47425, 1.4503816, 5.47425, 0.8244275, 5.47425, -3.1679389
0.6448235, -0.0172885, 5.481, 0.0037842, 5.481, -1.0088501, 5.481, -0.1711426, 5.481, 1.1984733, 5.481, 0.7633588, 5.481, -3.129771
0.6456176, -0.0157778, 5.48775, 0.0090942, 5.48775, -1.0063477, 5.48775, -0.1727295, 5.48775, 1.2442749, 5.48775, 0.5038168, 5.48775, -3.259542
0.6464118, -0.0169528, 5.4945, 0.0111694, 5.4945, -1.0058594, 5.4945, -0.1709595, 5.4945, 1.2977099, 5.4945, 0.6183206, 5.4945, -3.1832061
0.6472059, -0.018967, 5.50125, 0.0043335, 5.50125, -1.0059204, 5.50125, -0.1745605, 5.50125, 1.129771, 5.50125, 0.4580153, 5.50125, -3.259542
0.648, -0.0171206, 5.508, 0.0065308, 5.508, -1.0031738, 5.508, -0.1746826, 5.508, 1.2442749, 5.508, 0.5343512, 5.508, -3.129771
0.6487941, -0.0203098, 5.51475, 0.0076904, 5.51475, -1.0014648, 5.51475, -0.1773682, 5.51475, 1.4656489, 5.51475, 0.6870229, 5.51475, -3
0.6495882, -0.0216526, 5.5215, 0.0094604, 5.5215, -1.0025024, 5.5215, -0.1831665, 5.5215, 1.2671756, 5.5215, 0.2671756, 5.5215, -3.2061069
0.6503824, -0.018967, 5.52825, 0.0110474, 5.52825, -1.0007935, 5.52825, -0.1815796, 5.52825, 0.6870229, 5.52825, 0.2366412, 5.52825, -3.1832061
0.6511765, -0.0196384, 5.535, 0.0119629, 5.535, -1.0036621, 5.535, -0.1786499, 5.535, 0.8320611, 5.535, 0.5725191, 5.535, -3.2290077
0.6519706, -0.0193027, 5.54175, 0.0117188, 5.54175, -1.0006714, 5.54175, -0.173645, 5.54175, 0.9389313, 5.54175, 0.908397, 5.54175, -3.1755726
0.6527647, -0.0206455, 5.5485, 0.0125122, 5.5485, -1.0007324, 5.5485, -0.1751709, 5.5485, 0.8778626, 5.5485, 1.2290076, 5.5485, -3.2442749
0.6535588, -0.0218204, 5.55525, 0.0095825, 5.55525, -1.0044556, 5.55525, -0.1707764, 5.55525, 1, 5.55525, 1.221374, 5.55525, -3.2442749
0.6543529, -0.023331, 5.562, 0.0026855, 5.562, -1.0032349, 5.562, -0.1798096, 5.562, 1.0763359, 5.562, 1.091603, 5.562, -3.3053436
0.6551471, -0.0204776, 5.56875, 0.0015869, 5.56875, -1.0025635, 5.56875, -0.1739502, 5.56875, 0.8473282, 5.56875, 0.8320611, 5.56875, -3.3129771
0.6559412, -0.017792, 5.5755, 0.0010376, 5.5755, -1.003479, 5.5755, -0.1710205, 5.5755, 1.0534351, 5.5755, 0.6564885, 5.5755, -3.4503818
0.6567353, -0.0171206, 5.58225, 0.0056763, 5.58225, -1.0042725, 5.58225, -0.1729736, 5.58225, 0.961832, 5.58225, 0.4122137, 5.58225, -3.3358779
0.6575294, -0.0169528, 5.589, 0.0065918, 5.589, -1.0009155, 5.589, -0.1773071, 5.589, 1.1755725, 5.589, 0.3969466, 5.589, -3.2366412
0.6583235, -0.0194705, 5.59575, 0.0068359, 5.59575, -1.0030518, 5.59575, -0.1793213, 5.59575, 0.9312977, 5.59575, 0.5725191, 5.59575, -3.1526718
0.6591176, -0.0209812, 5.6025, 0.0067139, 5.6025, -1.0032349, 5.6025, -0.1773071, 5.6025, 0.908397, 5.6025, 0.5038168, 5.6025, -3.2519083
0.6599118, -0.0186313, 5.60925, 0.0061035, 5.60925, -1.0032349, 5.60925, -0.1780396, 5.60925, 0.9770992, 5.60925, 0.5725191, 5.60925, -3.1984732
0.6607059, -0.0169528, 5.616, 0.0077515, 5.616, -1.0047607, 5.616, -0.1773071, 5.616, 0.9007633, 5.616, 0.6641222, 5.616, -3.3435113
0.6615, -0.0186313, 5.62275, 0.0084839, 5.62275, -1.0048218, 5.62275, -0.1777344, 5.62275, 0.6793893, 5.62275, 0.7862595, 5.62275, -3.4580152
0.6622941, -0.0142672, 5.6295, 0.0114746, 5.6295, -1.0058594, 5.6295, -0.1748657, 5.6295, 0.8549618, 5.6295, 0.9770992, 5.6295, -3.2900763
0.6630882, -0.0104067, 5.63625, 0.0115356, 5.63625, -1.0062256, 5.63625, -0.1760254, 5.63625, 0.8320611, 5.63625, 1, 5.63625, -3.2061069
0.6638824, -0.008896, 5.643, 0.0081787, 5.643, -1.0076904, 5.643, -0.1741333, 5.643, 0.8396947, 5.643, 1.0076336, 5.643, -3.3282442
0.6646765, -0.0075532, 5.64975, 0.0065308, 5.64975, -1.0049438, 5.64975, -0.1682739, 5.64975, 1.038168, 5.64975, 1.1755725, 5.64975, -3.3969467
0.6654706, -0.0072175, 5.6565, 0.007019, 5.6565, -1.003418, 5.6565, -0.1719971, 5.6565, 1.0763359, 5.6565, 0.9770992, 5.6565, -3.4198472
0.6662647, -0.008896, 5.66325, 0.0027466, 5.66325, -1.0029297, 5.66325, -0.1763916, 5.66325, 1.2671756, 5.66325, 1.0839695, 5.66325, -3.3358779
0.6670588, -0.008896, 5.67, 0.0042725, 5.67, -1.0026245, 5.67, -0.1765137, 5.67, 1.1908396, 5.67, 0.8549618, 5.67, -3.3587787
0.6678529, -0.012253, 5.67675, 0.005188, 5.67675, -1.0029907, 5.67675, -0.1769409, 5.67675, 1.1832061, 5.67675, 0.5954198, 5.67675, -3.4580152
0.6686471, -0.0166171, 5.6835, 0.005249, 5.6835, -1.0033569, 5.6835, -0.1791992, 5.6835, 1.351145, 5.6835, 0.4580153, 5.6835, -3.5114503
0.6694412, -0.0129244, 5.69025, 0.0059204, 5.69025, -1.0004883, 5.69025, -0.1794434, 5.69025, 1.1832061, 5.69025, 0.389313, 5.69025, -3.4961832
0.6702353, -0.0135958, 5.697, 0.0094604, 5.697, -1.0014038, 5.697, -0.1743164, 5.697, 1.5038168, 5.697, 0.4580153, 5.697, -3.5267177
0.6710294, -0.0151064, 5.70375, 0.0095825, 5.70375, -1.0041504, 5.70375, -0.1790771, 5.70375, 1.3664122, 5.70375, 0.610687, 5.70375, -3.4656489
0.6718235, -0.0151064, 5.7105, 0.0135498, 5.7105, -0.9996338, 5.7105, -0.1794434, 5.7105, 1.519084, 5.7105, 0.8931298, 5.7105, -3.3969467
0.6726176, -0.0166171, 5.71725, 0.0094604, 5.71725, -1.0040894, 5.71725, -0.1726074, 5.71725, 1.1984733, 5.71725, 1.2748091, 5.71725, -3.4580152
0.6734118, -0.0182956, 5.724, 0.0072021, 5.724, -1.0038452, 5.724, -0.1751099, 5.724, 1.2671756, 5.724, 1.2366412, 5.724, -3.4427481
0.6742059, -0.0162814, 5.73075, 0.0073242, 5.73075, -1.0054932, 5.73075, -0.1730957, 5.73075, 1.3282443, 5.73075, 0.9694657, 5.73075, -3.4580152
0.675, -0.0139315, 5.7375, 0.0032959, 5.7375, -1.0067749, 5.7375, -0.1727905, 5.7375, 1.4351145, 5.7375, 1.0534351, 5.7375, -3.1984732
0.6757941, -0.0135958, 5.74425, 0.0065308, 5.74425, -1.0053101, 5.74425, -0.1707153, 5.74425, 1.5572519, 5.74425, 0.870229, 5.74425, -3.2748091
0.6765882, -0.0142672, 5.751, 0.0050049, 5.751, -1.0049438, 5.751, -0.1738281, 5.751, 1.5877863, 5.751, 0.5954198, 5.751, -3.2900763
0.6773824, -0.01561, 5.75775, 0.0045776, 5.75775, -1.0056152, 5.75775, -0.1738892, 5.75775, 1.4122137, 5.75775, 0.7022901, 5.75775, -3.1603053
0.6781765, -0.0142672, 5.7645, 0.0029907, 5.7645, -1.0032959, 5.7645, -0.1724854, 5.7645, 1.6183206, 5.7645, 0.4580153, 5.7645, -3.4198472
