Application:, Trigno Discover (1.7.0)
Date/Time:, 2026/9/9 下午 03:29:44
Collection Length (seconds):, 105.327
Avanti Sensor 11 (69574)
sensor mode: 50
EMG 1 Time Series (s), EMG 1 (mV), ACC X Time Series (s), ACC X (G), ACC Y Time Series (s), ACC Y (G), ACC Z Time Series (s), ACC Z (G), GYRO X Time Series (s), GYRO X (deg/s), GYRO Y Time Series (s), GYRO Y (deg/s), GYRO Z Time Series (s), GYRO Z (deg/s)
, 1259.2593 Hz, , 148.1481 Hz, , 148.1481 Hz, , 148.1481 Hz, , 148.1481 Hz, , 148.1481 Hz, , 148.1481 Hz
0, -0.0162814, 0, -0.0175171, 0, -1.005127, 0, -0.1431274, 0, 0.6335878, 0, 0.480916, 0, -2.9694657
0.0007941, -0.0199741, 0.00675, -0.020752, 0.00675, -1.0085449, 0.00675, -0.1421509, 0.00675, 0.8244275, 0.00675, 0.5572519, 0.00675, -3.0458016
0.0015882, -0.0172885, 0.0135, -0.0198364, 0.0135, -1.0065918, 0.0135, -0.1416626, 0.0135, 0.9160305, 0.0135, 0.4656489, 0.0135, -2.9465649
0.0023824, -0.0169528, 0.02025, -0.0184937, 0.02025, -1.0040283, 0.02025, -0.1445312, 0.02025, 1.1068702, 0.02025, 0.2366412, 0.02025, -2.9465649
0.0031765, -0.0149386, 0.027, -0.0159912, 0.027, -1.0026245, 0.027, -0.1434326, 0.027, 1.221374, 0.027, 0.3053435, 0.027, -2.9694657
0.0039706, -0.0186313, 0.03375, -0.0126953, 0.03375, -1.006897, 0.03375, -0.1479492, 0.03375, 1.1755725, 0.03375, 0.4122137, 0.03375, -2.8091602
0.0047647, -0.0193027, 0.0405, -0.0147095, 0.0405, -1.0088501, 0.0405, -0.1412354, 0.0405, 0.9923664, 0.0405, 0.6793893, 0.0405, -2.8320611
0.0055588, -0.0206455, 0.04725, -0.0155029, 0.04725, -1.0073242, 0.04725, -0.1428223, 0.04725, 1.221374, 0.04725, 0.5267175, 0.04725, -2.9923663
0.0063529, -0.0236667, 0.054, -0.0189819, 0.054, -1.0106201, 0.054, -0.1439819, 0.054, 1.038168, 0.054, 0.5572519, 0.054, -2.8244274
0.0071471, -0.0223239, 0.06075, -0.0183716, 0.06075, -1.0088501, 0.06075, -0.1425781, 0.06075, 1.038168, 0.06075, 0.7099237, 0.06075, -2.9694657
0.0079412, -0.0243381, 0.0675, -0.0204468, 0.0675, -1.0062256, 0.0675, -0.1401367, 0.0675, 0.8473282, 0.0675, 0.7480916, 0.0675, -2.9312978
0.0087353, -0.0283665, 0.07425, -0.0210571, 0.07425, -1.0046387, 0.07425, -0.1390991, 0.07425, 0.480916, 0.07425, 0.8931298, 0.07425, -2.7709923
0.0095294, -0.0280308, 0.081, -0.0216675, 0.081, -1.008606, 0.081, -0.1425171, 0.081, 0.4503817, 0.081, 0.5877863, 0.081, -2.7862597
0.0103235, -0.0246738, 0.08775, -0.0223389, 0.08775, -1.0076294, 0.08775, -0.1469727, 0.08775, 0.2290076, 0.08775, 0.3969466, 0.08775, -2.9694657
0.0111176, -0.0256809, 0.0945, -0.0181274, 0.0945, -1.0031128, 0.0945, -0.1470947, 0.0945, -0.3053435, 0.0945, 0.2977099, 0.0945, -3
0.0119118, -0.0253452, 0.10125, -0.0169067, 0.10125, -1.0065918, 0.10125, -0.1391602, 0.10125, -0.4580153, 0.10125, 0.3587786, 0.10125, -2.778626
0.0127059, -0.0263523, 0.108, -0.015564, 0.108, -1.0053101, 0.108, -0.140564, 0.108, -0.2977099, 0.108, 0.480916, 0.108, -2.8854961
0.0135, -0.0253452, 0.11475, -0.0186157, 0.11475, -1.0054321, 0.11475, -0.1444092, 0.11475, -0.351145, 0.11475, 0.3969466, 0.11475, -3.0152671
0.0142941, -0.0270237, 0.1215, -0.020752, 0.1215, -1.0056763, 0.1215, -0.1413574, 0.1215, -0.1908397, 0.1215, 0.6335878, 0.1215, -2.9694657
0.0150882, -0.0240024, 0.12825, -0.0215454, 0.12825, -1.0073242, 0.12825, -0.1416626, 0.12825, -0.0229008, 0.12825, 0.8167939, 0.12825, -2.8778627
0.0158824, -0.0223239, 0.135, -0.0229492, 0.135, -1.005188, 0.135, -0.1434326, 0.135, 0.129771, 0.135, 0.7099237, 0.135, -3.0687022
0.0166765, -0.0206455, 0.14175, -0.0210571, 0.14175, -1.0040894, 0.14175, -0.1469727, 0.14175, 0.1908397, 0.14175, 0.6717557, 0.14175, -3.0687022
0.0174706, -0.01561, 0.1485, -0.0211182, 0.1485, -1.0064697, 0.1485, -0.1428223, 0.1485, 0.2290076, 0.1485, 0.8549618, 0.1485, -3.0534351
0.0182647, -0.0114137, 0.15525, -0.0170288, 0.15525, -1.0064087, 0.15525, -0.1417847, 0.15525, 0.1679389, 0.15525, 0.8244275, 0.15525, -3.1145039
0.0190588, -0.0135958, 0.162, -0.0206909, 0.162, -1.0072632, 0.162, -0.1413574, 0.162, 0.2519084, 0.162, 0.6564885, 0.162, -2.9694657
0.0198529, -0.0142672, 0.16875, -0.0224609, 0.16875, -1.0087891, 0.16875, -0.144165, 0.16875, 0.4732825, 0.16875, 0.6030535, 0.16875, -3.0229008
0.0206471, -0.0097353, 0.1755, -0.0186768, 0.1755, -1.0082397, 0.1755, -0.1472168, 0.1755, 0.3206107, 0.1755, 0.5877863, 0.1755, -3.091603
0.0214412, -0.0090639, 0.18225, -0.0177612, 0.18225, -1.0081787, 0.18225, -0.1477051, 0.18225, 0.519084, 0.18225, 0.7557252, 0.18225, -2.9923663
0.0222353, -0.0102388, 0.189, -0.019043, 0.189, -1.0079956, 0.189, -0.1452026, 0.189, 0.4885496, 0.189, 0.8015267, 0.189, -3.0992367
0.0230294, -0.0105745, 0.19575, -0.0134277, 0.19575, -1.005188, 0.19575, -0.1420288, 0.19575, 0.5572519, 0.19575, 0.7022901, 0.19575, -3.1221373
0.0238235, -0.0077211, 0.2025, -0.0172729, 0.2025, -1.0046387, 0.2025, -0.1422119, 0.2025, 0.6412213, 0.2025, 0.5343512, 0.2025, -3.1450381
0.0246176, -0.0085603, 0.20925, -0.0217896, 0.20925, -1.0079346, 0.20925, -0.1436157, 0.20925, 0.6946565, 0.20925, 0.740458, 0.20925, -3.1221373
0.0254118, -0.0167849, 0.216, -0.0221558, 0.216, -1.0063477, 0.216, -0.1426392, 0.216, 0.6335878, 0.216, 0.6183206, 0.216, -3.0610688
0.0262059, -0.0142672, 0.22275, -0.0224609, 0.22275, -1.0058594, 0.22275, -0.138855, 0.22275, 0.740458, 0.22275, 0.5801527, 0.22275, -2.9847329
0.027, -0.0102388, 0.2295, -0.0192261, 0.2295, -1.0045776, 0.2295, -0.1403198, 0.2295, 0.9389313, 0.2295, 0.3816794, 0.2295, -2.9770992
0.0277941, -0.0109102, 0.23625, -0.0146484, 0.23625, -1.0025635, 0.23625, -0.1474609, 0.23625, 1.2900764, 0.23625, 0.3206107, 0.23625, -2.9770992
0.0285882, -0.0104067, 0.243, -0.0181885, 0.243, -1.0020752, 0.243, -0.1489868, 0.243, 1.1984733, 0.243, 0.4274809, 0.243, -3.0534351
0.0293824, -0.0085603, 0.24975, -0.0161743, 0.24975, -1.0003662, 0.24975, -0.1438599, 0.24975, 1.0305344, 0.24975, 0.519084, 0.24975, -3.0763359
0.0301765, -0.0117494, 0.2565, -0.0147095, 0.2565, -1.0020142, 0.2565, -0.1454468, 0.2565, 0.8396947, 0.2565, 0.610687, 0.2565, -3.129771
0.0309706, -0.0162814, 0.26325, -0.019165, 0.26325, -1.0040283, 0.26325, -0.1437988, 0.26325, 0.7328244, 0.26325, 0.8167939, 0.26325, -3
0.0317647, -0.0179599, 0.27, -0.0167847, 0.27, -1.0055542, 0.27, -0.1437378, 0.27, 0.8778626, 0.27, 1.0229008, 0.27, -2.9312978
0.0325588, -0.0176242, 0.27675, -0.0213013, 0.27675, -1.0054932, 0.27675, -0.145752, 0.27675, 1.1832061, 0.27675, 0.8091603, 0.27675, -3.091603
0.0333529, -0.0149386, 0.2835, -0.0216064, 0.2835, -1.0048218, 0.2835, -0.1488647, 0.2835, 1.129771, 0.2835, 0.2290076, 0.2835, -3.0992367
0.0341471, -0.0135958, 0.29025, -0.0216675, 0.29025, -1.0089111, 0.29025, -0.1420898, 0.29025, 1.129771, 0.29025, -0.0610687, 0.29025, -3.0534351
0.0349412, -0.0154421, 0.297, -0.0250854, 0.297, -1.0089111, 0.297, -0.1451416, 0.297, 1.1832061, 0.297, 0.1755725, 0.297, -3.2137403
0.0357353, -0.0139315, 0.30375, -0.0181274, 0.30375, -1.0082397, 0.30375, -0.1550293, 0.30375, 1.1374046, 0.30375, 0.1908397, 0.30375, -3.1984732
0.0365294, -0.0115816, 0.3105, -0.0180664, 0.3105, -1.0050659, 0.3105, -0.1501465, 0.3105, 0.740458, 0.3105, 0.1908397, 0.3105, -3.2748091
0.0373235, -0.0104067, 0.31725, -0.019104, 0.31725, -1.0058594, 0.31725, -0.1477661, 0.31725, 0.8320611, 0.31725, 0.1755725, 0.31725, -3.259542
0.0381176, -0.0109102, 0.324, -0.0211182, 0.324, -1.0063477, 0.324, -0.1467896, 0.324, 0.6946565, 0.324, 0.389313, 0.324, -3.091603
0.0389118, -0.0085603, 0.33075, -0.0241089, 0.33075, -1.0058594, 0.33075, -0.1552124, 0.33075, 0.5877863, 0.33075, 0.2442748, 0.33075, -3.2824428
0.0397059, -0.0050355, 0.3375, -0.0239868, 0.3375, -1.0056152, 0.3375, -0.1549072, 0.3375, 0.2748092, 0.3375, 0.0839695, 0.3375, -3.2137403
0.0405, -0.0062104, 0.34425, -0.0264282, 0.34425, -1.0060425, 0.34425, -0.1431274, 0.34425, 0.3969466, 0.34425, 0.3053435, 0.34425, -3.1526718
0.0412941, -0.0045319, 0.351, -0.0199585, 0.351, -1.0091553, 0.351, -0.1453247, 0.351, 0.3282443, 0.351, 0.3740458, 0.351, -3.2442749
0.0420882, -0.010071, 0.35775, -0.0218506, 0.35775, -1.0128784, 0.35775, -0.1448975, 0.35775, 0.389313, 0.35775, 0.2671756, 0.35775, -3.1603053
0.0428824, -0.0095674, 0.3645, -0.0229492, 0.3645, -1.0111694, 0.3645, -0.1451416, 0.3645, 0.3816794, 0.3645, 0.2442748, 0.3645, -3.2137403
0.0436765, -0.0112459, 0.37125, -0.0183105, 0.37125, -1.0070801, 0.37125, -0.1460571, 0.37125, 0.4656489, 0.37125, 0.221374, 0.37125, -3.0229008
0.0444706, -0.0142672, 0.378, -0.0167847, 0.378, -1.0081787, 0.378, -0.1480713, 0.378, 0.5496183, 0.378, 0.221374, 0.378, -2.9465649
0.0452647, -0.0159457, 0.38475, -0.0192871, 0.38475, -1.0046997, 0.38475, -0.1464844, 0.38475, 0.610687, 0.38475, 0.6564885, 0.38475, -2.8778627
0.0460588, -0.0164492, 0.3915, -0.0180054, 0.3915, -1.0036011, 0.3915, -0.1469727, 0.3915, 0.3282443, 0.3915, 1.091603, 0.3915, -3.2519083
0.0468529, -0.0172885, 0.39825, -0.0167847, 0.39825, -1.0008545, 0.39825, -0.1421509, 0.39825, 0.3435115, 0.39825, 1.0458015, 0.39825, -3.259542
0.0476471, -0.0186313, 0.405, -0.0172119, 0.405, -1.0036621, 0.405, -0.1422119, 0.405, 0.3053435, 0.405, 1.0992366, 0.405, -3.1908398
0.0484412, -0.018967, 0.41175, -0.0211182, 0.41175, -1.0043945, 0.41175, -0.1446533, 0.41175, 0.3282443, 0.41175, 1.1145039, 0.41175, -3.3435113
0.0492353, -0.0199741, 0.4185, -0.0211792, 0.4185, -1.0084839, 0.4185, -0.1412964, 0.4185, 0.519084, 0.4185, 1, 0.4185, -3.2671757
0.0500294, -0.0209812, 0.42525, -0.0219727, 0.42525, -1.008606, 0.42525, -0.1409302, 0.42525, 0.8549618, 0.42525, 0.6335878, 0.42525, -3.2519083
0.0508235, -0.0219883, 0.432, -0.0183105, 0.432, -1.0075073, 0.432, -0.1471558, 0.432, 0.7251908, 0.432, 0.4656489, 0.432, -3.1908398
0.0516176, -0.0181277, 0.43875, -0.0133667, 0.43875, -1.0075684, 0.43875, -0.1460571, 0.43875, 0.8396947, 0.43875, 0.6641222, 0.43875, -3.1450381
0.0524118, -0.0176242, 0.4455, -0.0122681, 0.4455, -1.0040283, 0.4455, -0.1419678, 0.4455, 0.7480916, 0.4455, 0.6183206, 0.4455, -3.4351146
0.0532059, -0.0204776, 0.45225, -0.0157471, 0.45225, -1.0026855, 0.45225, -0.1488647, 0.45225, 0.6564885, 0.45225, 0.6259542, 0.45225, -3.3053436
0.054, -0.0167849, 0.459, -0.0165405, 0.459, -1.0076904, 0.459, -0.1494751, 0.459, 0.7099237, 0.459, 0.8091603, 0.459, -3.2671757
0.0547941, -0.0137636, 0.46575, -0.0204468, 0.46575, -1.0049438, 0.46575, -0.1528931, 0.46575, 0.7938932, 0.46575, 0.9847328, 0.46575, -3.4122138
0.0555882, -0.0159457, 0.4725, -0.0214233, 0.4725, -1.0029297, 0.4725, -0.1490479, 0.4725, 0.908397, 0.4725, 1.0152671, 0.4725, -3.5419848
0.0563824, -0.0171206, 0.47925, -0.0181274, 0.47925, -1.0050049, 0.47925, -0.1474609, 0.47925, 0.9007633, 0.47925, 1.0534351, 0.47925, -3.5419848
0.0571765, -0.0171206, 0.486, -0.0213623, 0.486, -1.0045166, 0.486, -0.1456299, 0.486, 0.9770992, 0.486, 0.8396947, 0.486, -3.2519083
0.0579706, -0.0157778, 0.49275, -0.0215454, 0.49275, -1.0075684, 0.49275, -0.144165, 0.49275, 1.2442749, 0.49275, 0.6183206, 0.49275, -3.2442749
0.0587647, -0.0193027, 0.4995, -0.0202026, 0.4995, -1.005249, 0.4995, -0.144043, 0.4995, 1.2137405, 0.4995, 0.5801527, 0.4995, -3.2366412
0.0595588, -0.0198062, 0.50625, -0.0206909, 0.50625, -1.0080566, 0.50625, -0.1461182, 0.50625, 1.2290076, 0.50625, 0.5114504, 0.50625, -3.3358779
0.0603529, -0.0169528, 0.513, -0.0176392, 0.513, -1.0089722, 0.513, -0.1447754, 0.513, 1.4045801, 0.513, 0.259542, 0.513, -3.3435113
0.0611471, -0.0119173, 0.51975, -0.0182495, 0.51975, -1.0076904, 0.51975, -0.1462402, 0.51975, 1.4045801, 0.51975, 0.1679389, 0.51975, -3.3816793
0.0619412, -0.0135958, 0.5265, -0.0187378, 0.5265, -1.0057983, 0.5265, -0.1484985, 0.5265, 1.0305344, 0.5265, 0.2824427, 0.5265, -3.2519083
0.0627353, -0.0157778, 0.53325, -0.0200806, 0.53325, -1.0031738, 0.53325, -0.1478271, 0.53325, 1.0458015, 0.53325, 0.1984733, 0.53325, -3.2748091
0.0635294, -0.0176242, 0.54, -0.0187378, 0.54, -1.0061646, 0.54, -0.1478882, 0.54, 0.908397, 0.54, 0.7175573, 0.54, -3.221374
0.0643235, -0.01561, 0.54675, -0.0214844, 0.54675, -1.0056152, 0.54675, -0.1480713, 0.54675, 0.9236641, 0.54675, 0.7175573, 0.54675, -3.3740458
0.0651176, -0.0152743, 0.5535, -0.0200195, 0.5535, -1.0054321, 0.5535, -0.1463013, 0.5535, 0.9541985, 0.5535, 0.6641222, 0.5535, -3.1832061
0.0659118, -0.0129244, 0.56025, -0.0194092, 0.56025, -1.0064697, 0.56025, -0.1431885, 0.56025, 1.0305344, 0.56025, 0.3816794, 0.56025, -3.2137403
0.0667059, -0.0099031, 0.567, -0.0195312, 0.567, -1.0061646, 0.567, -0.1503906, 0.567, 1.2137405, 0.567, 0.4274809, 0.567, -3.1755726
0.0675, -0.008896, 0.57375, -0.0164795, 0.57375, -1.0022583, 0.57375, -0.1473999, 0.57375, 1.3206106, 0.57375, 0.5801527, 0.57375, -3.259542
0.0682941, -0.0115816, 0.5805, -0.0147705, 0.5805, -1.0033569, 0.5805, -0.1453857, 0.5805, 1.1526718, 0.5805, 0.740458, 0.5805, -3.2671757
0.0690882, -0.011078, 0.58725, -0.0144043, 0.58725, -1.0020752, 0.58725, -0.1455078, 0.58725, 0.9465649, 0.58725, 0.740458, 0.58725, -3.1145039
0.0698824, -0.0095674, 0.594, -0.015564, 0.594, -1.0041504, 0.594, -0.1452637, 0.594, 0.9312977, 0.594, 0.7557252, 0.594, -3.3358779
0.0706765, -0.0095674, 0.60075, -0.0186768, 0.60075, -1.0084229, 0.60075, -0.1477051, 0.60075, 1.1450381, 0.60075, 0.6412213, 0.60075, -3.2290077
0.0714706, -0.012253, 0.6075, -0.0148926, 0.6075, -1.0043335, 0.6075, -0.149353, 0.6075, 1.0763359, 0.6075, 0.7938932, 0.6075, -3.091603
0.0722647, -0.01561, 0.61425, -0.0181885, 0.61425, -1.003479, 0.61425, -0.1484375, 0.61425, 0.9541985, 0.61425, 0.8625954, 0.61425, -3.1679389
0.0730588, -0.0135958, 0.621, -0.020813, 0.621, -1.003479, 0.621, -0.1470337, 0.621, 0.9541985, 0.621, 0.8549618, 0.621, -3.1984732
0.0738529, -0.0115816, 0.62775, -0.0223389, 0.62775, -1.0075684, 0.62775, -0.1463623, 0.62775, 1.0839695, 0.62775, 0.6793893, 0.62775, -3.0763359
0.0746471, -0.0125887, 0.6345, -0.0227661, 0.6345, -1.0062256, 0.6345, -0.1473999, 0.6345, 1.0610687, 0.6345, 0.5419847, 0.6345, -3.2748091
0.0754412, -0.0142672, 0.64125, -0.0220337, 0.64125, -1.0072632, 0.64125, -0.1478271, 0.64125, 1.1679389, 0.64125, 0.4122137, 0.64125, -3.1679389
0.0762353, -0.0149386, 0.648, -0.0202026, 0.648, -1.0093384, 0.648, -0.1497192, 0.648, 1.1068702, 0.648, 0.1145038, 0.648, -3.4198472
0.0770294, -0.0152743, 0.65475, -0.0167847, 0.65475, -1.005188, 0.65475, -0.1480713, 0.65475, 1.0687023, 0.65475, 0.0076336, 0.65475, -3.3282442
0.0778235, -0.0130922, 0.6615, -0.0170898, 0.6615, -1.0063477, 0.6615, -0.1487427, 0.6615, 1.3282443, 0.6615, 0.1603053, 0.6615, -3.3664122
0.0786176, -0.0139315, 0.66825, -0.0167236, 0.66825, -1.0043945, 0.66825, -0.1496582, 0.66825, 1.2900764, 0.66825, 0.4580153, 0.66825, -3.3816793
0.0794118, -0.0176242, 0.675, -0.0170288, 0.675, -1.0059814, 0.675, -0.1453247, 0.675, 1.1679389, 0.675, 0.3587786, 0.675, -3.2900763
0.0802059, -0.0182956, 0.68175, -0.0184937, 0.68175, -1.0016479, 0.68175, -0.1551514, 0.68175, 0.9312977, 0.68175, 0.2061069, 0.68175, -3.2061069
0.081, -0.0109102, 0.6885, -0.0183716, 0.6885, -1.0036011, 0.6885, -0.1533813, 0.6885, 1.0076336, 0.6885, 0.2442748, 0.6885, -3.2442749
0.0817941, -0.012253, 0.69525, -0.0193481, 0.69525, -1.0083008, 0.69525, -0.1483765, 0.69525, 1.0839695, 0.69525, 0.4122137, 0.69525, -3.1450381
0.0825882, -0.0135958, 0.702, -0.0162964, 0.702, -1.0054932, 0.702, -0.1453857, 0.702, 1.1068702, 0.702, 0.6259542, 0.702, -3.091603
0.0833824, -0.0095674, 0.70875, -0.0144653, 0.70875, -1.0039062, 0.70875, -0.1453247, 0.70875, 1.1908396, 0.70875, 0.9312977, 0.70875, -3.1679389
0.0841765, -0.0104067, 0.7155, -0.0159302, 0.7155, -1.00354, 0.7155, -0.1435547, 0.7155, 1.2977099, 0.7155, 0.7633588, 0.7155, -3.1679389
0.0849706, -0.0109102, 0.72225, -0.0137329, 0.72225, -1.0040894, 0.72225, -0.1445923, 0.72225, 1.2290076, 0.72225, 1.1832061, 0.72225, -2.9770992
0.0857647, -0.0085603, 0.729, -0.0163574, 0.729, -1.0061035, 0.729, -0.1435547, 0.729, 1.4122137, 0.729, 1.1145039, 0.729, -2.9770992
0.0865588, -0.0065461, 0.73575, -0.0175171, 0.73575, -1.0074463, 0.73575, -0.1421509, 0.73575, 1.3435115, 0.73575, 1.2137405, 0.73575, -3.091603
0.0873529, -0.0109102, 0.7425, -0.0202026, 0.7425, -1.0062866, 0.7425, -0.1450195, 0.7425, 1.2977099, 0.7425, 1.4198474, 0.7425, -2.9236641
0.0881471, -0.0149386, 0.74925, -0.0189209, 0.74925, -1.0031738, 0.74925, -0.1443481, 0.74925, 1.4198474, 0.74925, 1.1450381, 0.74925, -2.8625953
0.0889412, -0.0166171, 0.756, -0.0175781, 0.756, -1.0092773, 0.756, -0.1459961, 0.756, 1.3053435, 0.756, 0.9007633, 0.756, -3.0763359
0.0897353, -0.0182956, 0.76275, -0.0197144, 0.76275, -1.0068359, 0.76275, -0.1456909, 0.76275, 1.5419847, 0.76275, 1.1603054, 0.76275, -3.1755726
0.0905294, -0.0176242, 0.7695, -0.020874, 0.7695, -1.0050049, 0.7695, -0.1466064, 0.7695, 1.5419847, 0.7695, 0.961832, 0.7695, -3.0687022
0.0913235, -0.0169528, 0.77625, -0.0175171, 0.77625, -1.0067139, 0.77625, -0.1480103, 0.77625, 1.2900764, 0.77625, 0.8091603, 0.77625, -3.0076337
0.0921176, -0.01561, 0.783, -0.017395, 0.783, -1.0046997, 0.783, -0.1483154, 0.783, 1.519084, 0.783, 0.8167939, 0.783, -2.9312978
0.0929118, -0.0162814, 0.78975, -0.0147095, 0.78975, -1.0088501, 0.78975, -0.1538696, 0.78975, 1.4732825, 0.78975, 0.9389313, 0.78975, -3.0534351
0.0937059, -0.01561, 0.7965, -0.0177612, 0.7965, -1.0039062, 0.7965, -0.1477661, 0.7965, 1.4656489, 0.7965, 1.1526718, 0.7965, -3.2366412
0.0945, -0.0149386, 0.80325, -0.0203857, 0.80325, -1.0059814, 0.80325, -0.1489258, 0.80325, 1.4961832, 0.80325, 1.1755725, 0.80325, -3.0992367
0.0952941, -0.0223239, 0.81, -0.0236206, 0.81, -1.0056763, 0.81, -0.149353, 0.81, 1.7251909, 0.81, 1.1679389, 0.81, -3.1068702
0.0960882, -0.0206455, 0.81675, -0.0252075, 0.81675, -1.0053711, 0.81675, -0.1516724, 0.81675, 1.610687, 0.81675, 1.0687023, 0.81675, -3.1221373
0.0968824, -0.0162814, 0.8235, -0.0213013, 0.8235, -1.0125122, 0.8235, -0.1481323, 0.8235, 1.6641221, 0.8235, 1.1679389, 0.8235, -3.2824428
0.0976765, -0.0169528, 0.83025, -0.0216064, 0.83025, -1.0097046, 0.83025, -0.147583, 0.83025, 1.7557251, 0.83025, 1.2061069, 0.83025, -3.3282442
0.0984706, -0.0149386, 0.837, -0.0216064, 0.837, -1.0081177, 0.837, -0.1472168, 0.837, 1.6870229, 0.837, 0.9389313, 0.837, -3.2442749
0.0992647, -0.0139315, 0.84375, -0.0193481, 0.84375, -1.0063477, 0.84375, -0.1483154, 0.84375, 1.7099236, 0.84375, 0.8473282, 0.84375, -3.2824428
0.1000588, -0.0135958, 0.8505, -0.0200195, 0.8505, -1.0065308, 0.8505, -0.1516724, 0.8505, 1.6946565, 0.8505, 0.870229, 0.8505, -3.3282442
0.1008529, -0.0129244, 0.85725, -0.0198975, 0.85725, -1.0076904, 0.85725, -0.1523438, 0.85725, 1.9847329, 0.85725, 0.8396947, 0.85725, -3.1603053
0.1016471, -0.0117494, 0.864, -0.0172729, 0.864, -1.0074463, 0.864, -0.1513672, 0.864, 1.9160305, 0.864, 1.0687023, 0.864, -3.259542
0.1024412, -0.012253, 0.87075, -0.0171509, 0.87075, -1.003479, 0.87075, -0.1481934, 0.87075, 1.8854961, 0.87075, 1.129771, 0.87075, -3.0763359
0.1032353, -0.008896, 0.8775, -0.0205688, 0.8775, -1.0066528, 0.8775, -0.1485596, 0.8775, 2.0839694, 0.8775, 1.1145039, 0.8775, -3.0610688
0.1040294, -0.008896, 0.88425, -0.0199585, 0.88425, -1.0064087, 0.88425, -0.147583, 0.88425, 2.1603053, 0.88425, 0.8854962, 0.88425, -3.2977099
0.1048235, -0.0115816, 0.891, -0.0148315, 0.891, -1.0028687, 0.891, -0.145752, 0.891, 2.129771, 0.891, 0.9312977, 0.891, -3.1755726
0.1056176, -0.0164492, 0.89775, -0.0166626, 0.89775, -1.0019531, 0.89775, -0.1447754, 0.89775, 2.2290077, 0.89775, 0.778626, 0.89775, -3.1450381
0.1064118, -0.0166171, 0.9045, -0.0192261, 0.9045, -1.0076904, 0.9045, -0.1445923, 0.9045, 2.4274809, 0.9045, 0.9236641, 0.9045, -3.1526718
0.1072059, -0.0199741, 0.91125, -0.0184326, 0.91125, -1.0075684, 0.91125, -0.1433716, 0.91125, 2.259542, 0.91125, 0.9847328, 0.91125, -3.3664122
0.108, -0.0206455, 0.918, -0.017334, 0.918, -1.007019, 0.918, -0.144104, 0.918, 2.5114503, 0.918, 1.1679389, 0.918, -3.1068702
0.1087941, -0.0209812, 0.92475, -0.0170288, 0.92475, -1.0050659, 0.92475, -0.1452637, 0.92475, 2.6717558, 0.92475, 1.1374046, 0.92475, -2.9923663
0.1095882, -0.0248417, 0.9315, -0.0163574, 0.9315, -1.0062866, 0.9315, -0.1434937, 0.9315, 2.4732823, 0.9315, 1.1068702, 0.9315, -3.0610688
0.1103824, -0.0243381, 0.93825, -0.0163574, 0.93825, -1.0031128, 0.93825, -0.1437378, 0.93825, 2.6793892, 0.93825, 1.0305344, 0.93825, -3.1450381
0.1111765, -0.0243381, 0.945, -0.0216675, 0.945, -1.0057373, 0.945, -0.1461182, 0.945, 2.4122138, 0.945, 1.3206106, 0.945, -3.1526718
0.1119706, -0.023331, 0.95175, -0.0183105, 0.95175, -1.0100708, 0.95175, -0.1480713, 0.95175, 2.2061069, 0.95175, 1.1832061, 0.95175, -3.1145039
0.1127647, -0.0198062, 0.9585, -0.0184326, 0.9585, -1.0064087, 0.9585, -0.1472168, 0.9585, 2.3129771, 0.9585, 1.1450381, 0.9585, -3.259542
0.1135588, -0.0169528, 0.96525, -0.0204468, 0.96525, -1.0082397, 0.96525, -0.145813, 0.96525, 2.4122138, 0.96525, 0.8549618, 0.96525, -3.1755726
0.1143529, -0.0162814, 0.972, -0.0220337, 0.972, -1.0079346, 0.972, -0.1445312, 0.972, 2.6030533, 0.972, 0.7862595, 0.972, -3.1374047
0.1151471, -0.0112459, 0.97875, -0.019165, 0.97875, -1.0091553, 0.97875, -0.1469116, 0.97875, 2.5496182, 0.97875, 0.8396947, 0.97875, -3.2061069
0.1159412, -0.0102388, 0.9855, -0.019165, 0.9855, -1.0085449, 0.9855, -0.1494751, 0.9855, 2.8625953, 0.9855, 0.7022901, 0.9855, -3.1679389
0.1167353, -0.0082246, 0.99225, -0.0197144, 0.99225, -1.0078735, 0.99225, -0.1508179, 0.99225, 2.7099237, 0.99225, 0.7633588, 0.99225, -3.2748091
0.1175294, -0.0062104, 0.999, -0.0177002, 0.999, -1.003479, 0.999, -0.1483765, 0.999, 2.7328243, 0.999, 0.9923664, 0.999, -3.221374
0.1183235, -0.0072175, 1.00575, -0.017334, 1.00575, -1.0066528, 1.00575, -0.1508789, 1.00575, 2.8167939, 1.00575, 1.2137405, 1.00575, -3.2748091
0.1191176, -0.0097353, 1.0125, -0.0186768, 1.0125, -1.0089722, 1.0125, -0.1467896, 1.0125, 2.8854961, 1.0125, 1.4122137, 1.0125, -3.1145039
0.1199118, -0.0119173, 1.01925, -0.0166016, 1.01925, -1.0064087, 1.01925, -0.1447144, 1.01925, 2.870229, 1.01925, 1.740458, 1.01925, -3.1374047
0.1207059, -0.0149386, 1.026, -0.0166016, 1.026, -1.0046997, 1.026, -0.1450806, 1.026, 2.8625953, 1.026, 1.8244275, 1.026, -3.091603
0.1215, -0.0164492, 1.03275, -0.020874, 1.03275, -1.0079346, 1.03275, -0.1429443, 1.03275, 2.6793892, 1.03275, 1.7022901, 1.03275, -3.1068702
0.1222941, -0.0142672, 1.0395, -0.0202637, 1.0395, -1.0117798, 1.0395, -0.140686, 1.0395, 2.9007633, 1.0395, 1.221374, 1.0395, -3.221374
0.1230882, -0.0162814, 1.04625, -0.0263062, 1.04625, -1.0125122, 1.04625, -0.1376343, 1.04625, 2.8244274, 1.04625, 1.1908396, 1.04625, -2.9923663
0.1238824, -0.014435, 1.053, -0.0244141, 1.053, -1.008728, 1.053, -0.1372681, 1.053, 3.1374047, 1.053, 1, 1.053, -3
0.1246765, -0.0139315, 1.05975, -0.022522, 1.05975, -1.0078125, 1.05975, -0.1445923, 1.05975, 3.129771, 1.05975, 0.6717557, 1.05975, -3.0839694
0.1254706, -0.012253, 1.0665, -0.0209351, 1.0665, -1.0072632, 1.0665, -0.1409912, 1.0665, 3.0687022, 1.0665, 0.8931298, 1.0665, -3
0.1262647, -0.0099031, 1.07325, -0.0219116, 1.07325, -1.0094604, 1.07325, -0.1416626, 1.07325, 3.2061069, 1.07325, 0.9007633, 1.07325, -3.1526718
0.1270588, -0.0082246, 1.08, -0.0193481, 1.08, -1.0073853, 1.08, -0.1445923, 1.08, 3.2290077, 1.08, 0.740458, 1.08, -3.1603053
0.1278529, -0.0109102, 1.08675, -0.0172729, 1.08675, -1.005188, 1.08675, -0.1455078, 1.08675, 3.2748091, 1.08675, 0.8549618, 1.08675, -3.351145
0.1286471, -0.0115816, 1.0935, -0.0164185, 1.0935, -1.0095825, 1.0935, -0.1450195, 1.0935, 3.1374047, 1.0935, 0.8549618, 1.0935, -3.2442749
0.1294412, -0.0132601, 1.10025, -0.0169067, 1.10025, -1.0097656, 1.10025, -0.1452637, 1.10025, 2.9389312, 1.10025, 0.9694657, 1.10025, -3.3816793
0.1302353, -0.0166171, 1.107, -0.0195312, 1.107, -1.0110474, 1.107, -0.1432495, 1.107, 2.7480917, 1.107, 1.1068702, 1.107, -3.5496182
0.1310294, -0.0162814, 1.11375, -0.0229492, 1.11375, -1.0100098, 1.11375, -0.1422729, 1.11375, 2.9312978, 1.11375, 1.0839695, 1.11375, -3.6030533
0.1318235, -0.0157778, 1.1205, -0.0237427, 1.1205, -1.0065918, 1.1205, -0.147522, 1.1205, 3.1526718, 1.1205, 0.9312977, 1.1205, -3.5419848
0.1326176, -0.0152743, 1.12725, -0.0240479, 1.12725, -1.008667, 1.12725, -0.1467285, 1.12725, 2.7480917, 1.12725, 0.7557252, 1.12725, -3.6870229
0.1334118, -0.0135958, 1.134, -0.0249634, 1.134, -1.0100098, 1.134, -0.1385498, 1.134, 2.8854961, 1.134, 0.5801527, 1.134, -3.8320611
0.1342059, -0.0142672, 1.14075, -0.0252686, 1.14075, -1.0092163, 1.14075, -0.1411743, 1.14075, 2.519084, 1.14075, 0.7099237, 1.14075, -3.5725191
0.135, -0.0169528, 1.1475, -0.0272827, 1.1475, -1.008606, 1.1475, -0.1403809, 1.1475, 2.6564887, 1.1475, 0.870229, 1.1475, -3.8015268
0.1357941, -0.0149386, 1.15425, -0.0233154, 1.15425, -1.0109253, 1.15425, -0.1439209, 1.15425, 2.4961832, 1.15425, 0.3740458, 1.15425, -3.7251909
0.1365882, -0.0142672, 1.161, -0.0228271, 1.161, -1.0098877, 1.161, -0.1448975, 1.161, 2.5114503, 1.161, 0.3969466, 1.161, -3.9312978
0.1373824, -0.0149386, 1.16775, -0.019104, 1.16775, -1.008667, 1.16775, -0.1453857, 1.16775, 2.5572519, 1.16775, 0.740458, 1.16775, -3.908397
0.1381765, -0.0172885, 1.1745, -0.0180664, 1.1745, -1.0063477, 1.1745, -0.1427612, 1.1745, 2.5572519, 1.1745, 0.610687, 1.1745, -3.9312978
0.1389706, -0.0186313, 1.18125, -0.019043, 1.18125, -1.0077515, 1.18125, -0.1425171, 1.18125, 2.5801528, 1.18125, 0.7633588, 1.18125, -3.8473282
0.1397647, -0.0196384, 1.188, -0.0187988, 1.188, -1.0077515, 1.188, -0.142334, 1.188, 2.870229, 1.188, 0.5648855, 1.188, -3.8778627
0.1405588, -0.0176242, 1.19475, -0.0184326, 1.19475, -1.0076294, 1.19475, -0.1455078, 1.19475, 2.6793892, 1.19475, 0.3435115, 1.19475, -3.9312978
0.1413529, -0.0176242, 1.2015, -0.0186768, 1.2015, -1.0065918, 1.2015, -0.142395, 1.2015, 2.6335878, 1.2015, 0.4656489, 1.2015, -3.8396947
0.1421471, -0.0176242, 1.20825, -0.0184937, 1.20825, -1.0038452, 1.20825, -0.1417847, 1.20825, 2.8473282, 1.20825, 0.2977099, 1.20825, -3.9007633
0.1429412, -0.0176242, 1.215, -0.0228271, 1.215, -1.005249, 1.215, -0.1395874, 1.215, 2.5496182, 1.215, -0.1832061, 1.215, -3.8778627
0.1437353, -0.0203098, 1.22175, -0.0269775, 1.22175, -1.0089111, 1.22175, -0.1425781, 1.22175, 2.7938931, 1.22175, -0.4656489, 1.22175, -3.9770992
0.1445294, -0.0193027, 1.2285, -0.0269165, 1.2285, -1.012085, 1.2285, -0.1435547, 1.2285, 3.1603053, 1.2285, -0.8320611, 1.2285, -3.9923663
0.1453235, -0.0199741, 1.23525, -0.0263062, 1.23525, -1.0118408, 1.23525, -0.1420898, 1.23525, 3.1984732, 1.23525, -1.038168, 1.23525, -4.0458016
0.1461176, -0.0193027, 1.242, -0.020752, 1.242, -1.0089111, 1.242, -0.1427612, 1.242, 3.1832061, 1.242, -1.1374046, 1.242, -4.1374044
0.1469118, -0.0199741, 1.24875, -0.0178223, 1.24875, -1.0091553, 1.24875, -0.1381226, 1.24875, 3.2977099, 1.24875, -0.9236641, 1.24875, -4.1145039
0.1477059, -0.0216526, 1.2555, -0.0194092, 1.2555, -1.010376, 1.2555, -0.137146, 1.2555, 3.7328243, 1.2555, -0.5038168, 1.2555, -4.1145039
0.1485, -0.0186313, 1.26225, -0.0197144, 1.26225, -1.0085449, 1.26225, -0.1386719, 1.26225, 3.6564887, 1.26225, -0.4198473, 1.26225, -4.1755724
0.1492941, -0.0182956, 1.269, -0.0177002, 1.269, -1.0119629, 1.269, -0.1400146, 1.269, 3.7099237, 1.269, -0.1832061, 1.269, -4.1603055
0.1500882, -0.0186313, 1.27575, -0.0134888, 1.27575, -1.0126343, 1.27575, -0.1394653, 1.27575, 3.740458, 1.27575, -0.0916031, 1.27575, -4.1908398
0.1508824, -0.0182956, 1.2825, -0.0106201, 1.2825, -1.0095825, 1.2825, -0.1372681, 1.2825, 3.8015268, 1.2825, 0.0992366, 1.2825, -4.259542
0.1516765, -0.0182956, 1.28925, -0.0151367, 1.28925, -1.0115967, 1.28925, -0.1347046, 1.28925, 4.0152674, 1.28925, 0.3587786, 1.28925, -4.1832061
0.1524706, -0.0176242, 1.296, -0.0193481, 1.296, -1.0106812, 1.296, -0.1326904, 1.296, 3.8396947, 1.296, 0.5114504, 1.296, -4.1984735
0.1532647, -0.0132601, 1.30275, -0.020874, 1.30275, -1.0095825, 1.30275, -0.1329956, 1.30275, 4.0763359, 1.30275, 0.259542, 1.30275, -4.1908398
0.1540588, -0.0154421, 1.3095, -0.0215454, 1.3095, -1.0046997, 1.3095, -0.1356812, 1.3095, 4.1984735, 1.3095, 0.1145038, 1.3095, -4.2671757
0.1548529, -0.0139315, 1.31625, -0.0218506, 1.31625, -1.0080566, 1.31625, -0.1345825, 1.31625, 4.1755724, 1.31625, 0.2137405, 1.31625, -4.1374044
0.1556471, -0.0149386, 1.323, -0.020752, 1.323, -1.0065308, 1.323, -0.1350708, 1.323, 4.2900763, 1.323, 0.1068702, 1.323, -4.1297708
0.1564412, -0.0164492, 1.32975, -0.0169067, 1.32975, -1.0061035, 1.32975, -0.1390991, 1.32975, 4.2137403, 1.32975, -0.3206107, 1.32975, -4.2137403
0.1572353, -0.0149386, 1.3365, -0.0167236, 1.3365, -1.0056152, 1.3365, -0.1380005, 1.3365, 3.4427481, 1.3365, -0.4198473, 1.3365, -4.5419846
0.1580294, -0.0162814, 1.34325, -0.0201416, 1.34325, -1.0064087, 1.34325, -0.1368408, 1.34325, 3.2442749, 1.34325, -0.2748092, 1.34325, -4.4732823
0.1588235, -0.0152743, 1.35, -0.0209961, 1.35, -1.0085449, 1.35, -0.137085, 1.35, 2.8854961, 1.35, -0.7633588, 1.35, -4.480916
0.1596176, -0.0157778, 1.35675, -0.0239258, 1.35675, -1.0114746, 1.35675, -0.1276855, 1.35675, 3.0610688, 1.35675, -0.4122137, 1.35675, -4.3587785
0.1604118, -0.0196384, 1.3635, -0.017395, 1.3635, -1.0094604, 1.3635, -0.1300659, 1.3635, 3.0458016, 1.3635, -0.2824427, 1.3635, -4.3282442
0.1612059, -0.0162814, 1.37025, -0.0125122, 1.37025, -1.0075684, 1.37025, -0.1315918, 1.37025, 3.038168, 1.37025, -0.2519084, 1.37025, -4.3969464
0.162, -0.0142672, 1.377, -0.0158691, 1.377, -1.0091553, 1.377, -0.1265259, 1.377, 3.129771, 1.377, -0.1374046, 1.377, -4.4580154
0.1627941, -0.0109102, 1.38375, -0.0170898, 1.38375, -1.0115967, 1.38375, -0.132019, 1.38375, 3.221374, 1.38375, -0.0381679, 1.38375, -4.4885497
0.1635882, -0.008896, 1.3905, -0.0221558, 1.3905, -1.010437, 1.3905, -0.1260986, 1.3905, 3.2442749, 1.3905, -0.0992366, 1.3905, -4.4122138
0.1643824, -0.0082246, 1.39725, -0.0184937, 1.39725, -1.0087891, 1.39725, -0.1201172, 1.39725, 3.2366412, 1.39725, -0.5419847, 1.39725, -4.480916
0.1651765, -0.0095674, 1.404, -0.0178833, 1.404, -1.0083618, 1.404, -0.1293945, 1.404, 3.6030533, 1.404, -1.0229008, 1.404, -4.4961834
0.1659706, -0.0099031, 1.41075, -0.0115967, 1.41075, -1.0092773, 1.41075, -0.1381226, 1.41075, 3.6335878, 1.41075, -0.8320611, 1.41075, -4.4732823
0.1667647, -0.0127565, 1.4175, -0.0136719, 1.4175, -1.0117188, 1.4175, -0.1349487, 1.4175, 3.4656489, 1.4175, -0.8854962, 1.4175, -4.5801525
0.1675588, -0.0119173, 1.42425, -0.0120239, 1.42425, -1.0057373, 1.42425, -0.1324463, 1.42425, 3.3587787, 1.42425, -0.9694657, 1.42425, -4.6870227
0.1683529, -0.0099031, 1.431, -0.0099487, 1.431, -1.0065308, 1.431, -0.1368408, 1.431, 3.038168, 1.431, -1.0763359, 1.431, -4.8320613
0.1691471, -0.0119173, 1.43775, -0.0140381, 1.43775, -1.0116577, 1.43775, -0.1376953, 1.43775, 3.2977099, 1.43775, -1.0152671, 1.43775, -4.7251906
0.1699412, -0.0135958, 1.4445, -0.0220337, 1.4445, -1.0125122, 1.4445, -0.1415405, 1.4445, 3.1984732, 1.4445, -1.8320611, 1.4445, -4.5496182
0.1707353, -0.012253, 1.45125, -0.0269775, 1.45125, -1.0144043, 1.45125, -0.1335449, 1.45125, 2.8854961, 1.45125, -2.2366412, 1.45125, -4.7251906
0.1715294, -0.01561, 1.458, -0.0323486, 1.458, -1.0152588, 1.458, -0.1277466, 1.458, 2.9847329, 1.458, -2.4198472, 1.458, -4.8244276
0.1723235, -0.01561, 1.46475, -0.0238037, 1.46475, -1.0146484, 1.46475, -0.1408081, 1.46475, 2.6717558, 1.46475, -3.2061069, 1.46475, -4.8854961
0.1731176, -0.011078, 1.4715, -0.017334, 1.4715, -1.0142212, 1.4715, -0.1419678, 1.4715, 2.4885497, 1.4715, -3.5114503, 1.4715, -5
0.1739118, -0.0112459, 1.47825, -0.0205688, 1.47825, -1.012146, 1.47825, -0.1358032, 1.47825, 2.2671757, 1.47825, -3.351145, 1.47825, -5.1450381
0.1747059, -0.0102388, 1.485, -0.0206299, 1.485, -1.0132446, 1.485, -0.1356201, 1.485, 2.519084, 1.485, -3.1526718, 1.485, -5.038168
0.1755, -0.0112459, 1.49175, -0.0214233, 1.49175, -1.0149536, 1.49175, -0.1376953, 1.49175, 3.1450381, 1.49175, -2.9541984, 1.49175, -4.8854961
0.1762941, -0.0159457, 1.4985, -0.0241089, 1.4985, -1.0142212, 1.4985, -0.1390991, 1.4985, 3.2442749, 1.4985, -2.5496182, 1.4985, -5.3969464
0.1770882, -0.0199741, 1.50525, -0.027771, 1.50525, -1.0128784, 1.50525, -0.1378174, 1.50525, 3.0229008, 1.50525, -2.3358779, 1.50525, -5.6870227
0.1778824, -0.0206455, 1.512, -0.039856, 1.512, -1.0202026, 1.512, -0.1306152, 1.512, 3.7938931, 1.512, -2.8625953, 1.512, -5.4045801
0.1786765, -0.018967, 1.51875, -0.0384521, 1.51875, -1.0171509, 1.51875, -0.1270142, 1.51875, 4.4503818, 1.51875, -3.9312978, 1.51875, -5.6793895
0.1794706, -0.0176242, 1.5255, -0.0331421, 1.5255, -1.0144653, 1.5255, -0.1430664, 1.5255, 3.870229, 1.5255, -5.5114503, 1.5255, -6.0992365
0.1802647, -0.0191348, 1.53225, -0.0229492, 1.53225, -1.0178833, 1.53225, -0.1460571, 1.53225, 4.4656487, 1.53225, -4.9847326, 1.53225, -6.4198475
0.1810588, -0.0166171, 1.539, -0.0115967, 1.539, -1.0166016, 1.539, -0.1494141, 1.539, 5.1984735, 1.539, -5.2671757, 1.539, -6.1526718
0.1818529, -0.0151064, 1.54575, -0.0015869, 1.54575, -1.0174561, 1.54575, -0.1470947, 1.54575, 4.8778625, 1.54575, -5.9541984, 1.54575, -6.038168
0.1826471, -0.0162814, 1.5525, -0.0053711, 1.5525, -1.0147095, 1.5525, -0.1274414, 1.5525, 4.7557254, 1.5525, -6.5038166, 1.5525, -5.7251906
0.1834412, -0.0154421, 1.55925, -0.0151367, 1.55925, -1.0125122, 1.55925, -0.1434326, 1.55925, 4.778626, 1.55925, -5.8549619, 1.55925, -5.7251906
0.1842353, -0.0132601, 1.566, -0.0200806, 1.566, -1.0169678, 1.566, -0.1424561, 1.566, 4.038168, 1.566, -5.2442746, 1.566, -5.4351144
0.1850294, -0.0130922, 1.57275, -0.026001, 1.57275, -1.0153809, 1.57275, -0.1390991, 1.57275, 3.8625953, 1.57275, -4.4045801, 1.57275, -5.1526718
0.1858235, -0.0109102, 1.5795, -0.043335, 1.5795, -1.0177002, 1.5795, -0.1254272, 1.5795, 4.2519083, 1.5795, -3.389313, 1.5795, -5.1908398
0.1866176, -0.0119173, 1.58625, -0.0541382, 1.58625, -1.0188599, 1.58625, -0.1240845, 1.58625, 4.6946564, 1.58625, -3.519084, 1.58625, -5.3435116
0.1874118, -0.010071, 1.593, -0.0426025, 1.593, -1.0214844, 1.593, -0.1348267, 1.593, 5.6870227, 1.593, -3.2519083, 1.593, -5.7633586
0.1882059, -0.0129244, 1.59975, -0.0299683, 1.59975, -1.0234375, 1.59975, -0.1452026, 1.59975, 7.3893127, 1.59975, -0.3969466, 1.59975, -6.038168
0.189, -0.0137636, 1.6065, -0.0285645, 1.6065, -1.0146484, 1.6065, -0.1466064, 1.6065, 8.2595415, 1.6065, 2.4580152, 1.6065, -6.1832061
0.1897941, -0.0132601, 1.61325, -0.0216675, 1.61325, -1.0187988, 1.61325, -0.1321411, 1.61325, 8.4122133, 1.61325, 1.6564885, 1.61325, -5.9160304
0.1905882, -0.0146029, 1.62, -0.0079956, 1.62, -1.0239258, 1.62, -0.1167603, 1.62, 9.4732828, 1.62, 1.351145, 1.62, -6.4198475
0.1913824, -0.01561, 1.62675, 0.001709, 1.62675, -1.0205078, 1.62675, -0.1356812, 1.62675, 9.8167934, 1.62675, 1.8244275, 1.62675, -6.4580154
0.1921765, -0.0162814, 1.6335, -0.0056152, 1.6335, -1.0127563, 1.6335, -0.1439819, 1.6335, 9.1450386, 1.6335, 3.2442749, 1.6335, -6.7938933
0.1929706, -0.0162814, 1.64025, -0.0148315, 1.64025, -1.0136719, 1.64025, -0.1196899, 1.64025, 7.2977099, 1.64025, 3.259542, 1.64025, -6.5877862
0.1937647, -0.0162814, 1.647, -0.0202637, 1.647, -1.0135498, 1.647, -0.1278687, 1.647, 5.9160304, 1.647, 1.740458, 1.647, -6.4045801
0.1945588, -0.0142672, 1.65375, -0.0195312, 1.65375, -1.0214844, 1.65375, -0.1412964, 1.65375, 5.5343513, 1.65375, -0.5038168, 1.65375, -6.1145039
0.1953529, -0.0135958, 1.6605, -0.0214233, 1.6605, -1.0231323, 1.6605, -0.1402588, 1.6605, 5.7251906, 1.6605, 0.4045801, 1.6605, -5.6564884
0.1961471, -0.0162814, 1.66725, -0.0281982, 1.66725, -1.0164185, 1.66725, -0.138855, 1.66725, 6.2137403, 1.66725, -0.4045801, 1.66725, -5.7938933
0.1969412, -0.0154421, 1.674, -0.0193481, 1.674, -1.0230713, 1.674, -0.1491699, 1.674, 5.9465647, 1.674, -3.4427481, 1.674, -5.221374
0.1977353, -0.0146029, 1.68075, 0.0026245, 1.68075, -1.0228882, 1.68075, -0.1357422, 1.68075, 5.6946564, 1.68075, -2.610687, 1.68075, -5.0305343
0.1985294, -0.0142672, 1.6875, 0.0296631, 1.6875, -1.0146484, 1.6875, -0.1179199, 1.6875, 4.9465647, 1.6875, -0.7099237, 1.6875, -5.5267177
0.1993235, -0.0172885, 1.69425, 0.0253296, 1.69425, -1.019165, 1.69425, -0.1160278, 1.69425, 3.8625953, 1.69425, -0.6259542, 1.69425, -6.0305343
0.2001176, -0.018967, 1.701, 0.0093384, 1.701, -1.0245972, 1.701, -0.1243286, 1.701, 3.9465649, 1.701, -1.1603054, 1.701, -5.8702292
0.2009118, -0.0196384, 1.70775, -0.00177, 1.70775, -1.0185547, 1.70775, -0.1083984, 1.70775, 4.0687022, 1.70775, 0.4351145, 1.70775, -5.2977099
0.2017059, -0.0176242, 1.7145, -0.0198364, 1.7145, -1.0150757, 1.7145, -0.1146851, 1.7145, 4.5038166, 1.7145, 0.6564885, 1.7145, -4.9923663
0.2025, -0.0176242, 1.72125, -0.0292969, 1.72125, -1.0180664, 1.72125, -0.1193848, 1.72125, 4.2366414, 1.72125, -1.1450381, 1.72125, -4.3587785
0.2032941, -0.018967, 1.728, -0.015625, 1.728, -1.0213623, 1.728, -0.1175537, 1.728, 4.1374044, 1.728, 0.5877863, 1.728, -3.5954199
0.2040882, -0.0196384, 1.73475, -0.0010376, 1.73475, -1.0274658, 1.73475, -0.116394, 1.73475, 2.8931298, 1.73475, 1.1603054, 1.73475, -3.6183207
0.2048824, -0.0176242, 1.7415, 0.0098267, 1.7415, -1.026123, 1.7415, -0.105896, 1.7415, 2.9541984, 1.7415, 2.480916, 1.7415, -3.8854961
0.2056765, -0.023331, 1.74825, 0.0404663, 1.74825, -1.0361328, 1.74825, -0.0790405, 1.74825, 2.389313, 1.74825, 3.2137403, 1.74825, -4.6106873
0.2064706, -0.0250095, 1.755, 0.0532227, 1.755, -1.0322266, 1.755, -0.0845337, 1.755, 3.0534351, 1.755, 6.4351144, 1.755, -4.9312978
0.2072647, -0.0263523, 1.76175, 0.034668, 1.76175, -1.0222168, 1.76175, -0.0997925, 1.76175, 3.4885497, 1.76175, 10.6030531, 1.76175, -4.7557254
0.2080588, -0.026688, 1.7685, 0.0102539, 1.7685, -1.0231323, 1.7685, -0.0892334, 1.7685, 2.6946564, 1.7685, 11.3282442, 1.7685, -3.9541984
0.2088529, -0.0231632, 1.77525, 0.0032349, 1.77525, -1.0355225, 1.77525, -0.0652466, 1.77525, 4.0076337, 1.77525, 13.038168, 1.77525, -3.6030533
0.2096471, -0.0169528, 1.782, -0.0517578, 1.782, -1.0281372, 1.782, -0.0780029, 1.782, 4.1832061, 1.782, 14.358779, 1.782, -3.5038168
0.2104412, -0.0142672, 1.78875, -0.0633545, 1.78875, -1.0315552, 1.78875, -0.0943604, 1.78875, 2.9312978, 1.78875, 13.5877867, 1.78875, -2.6946564
0.2112353, -0.0109102, 1.7955, -0.0679321, 1.7955, -1.0380249, 1.7955, -0.0982666, 1.7955, 1.7633588, 1.7955, 14.3129768, 1.7955, -2.1755726
0.2120294, -0.0117494, 1.80225, -0.0502319, 1.80225, -1.0593262, 1.80225, -0.1051636, 1.80225, 0.740458, 1.80225, 11.7709923, 1.80225, -2.3435113
0.2128235, -0.0157778, 1.809, -0.0245361, 1.809, -1.0568848, 1.809, -0.1080933, 1.809, 1.3358779, 1.809, 8.2290077, 1.809, -2.3740458
0.2136176, -0.01561, 1.81575, -0.0079956, 1.81575, -1.0508423, 1.81575, -0.0997314, 1.81575, 1.8396946, 1.81575, 6.3816795, 1.81575, -2.2824428
0.2144118, -0.01561, 1.8225, 0.0174561, 1.8225, -1.0420532, 1.8225, -0.1329346, 1.8225, 0.5114504, 1.8225, 6.1145039, 1.8225, -2.221374
0.2152059, -0.0082246, 1.82925, 0.0258789, 1.82925, -1.0257568, 1.82925, -0.151001, 1.82925, -1.6564885, 1.82925, 9.9236641, 1.82925, -2.5343511
0.216, -0.0068818, 1.836, 0.0020752, 1.836, -1.0262451, 1.836, -0.1694336, 1.836, -4.2442746, 1.836, 7.7862597, 1.836, -1.8931298
0.2167941, -0.0077211, 1.84275, -0.0093384, 1.84275, -1.0383301, 1.84275, -0.1694336, 1.84275, -7.2137403, 1.84275, 6.0992365, 1.84275, -1.5267175
0.2175882, -0.0124208, 1.8495, -0.0053711, 1.8495, -1.0566406, 1.8495, -0.1737671, 1.8495, -8.801527, 1.8495, 3.4503818, 1.8495, -1.3129771
0.2183824, -0.0129244, 1.85625, 0.0015869, 1.85625, -1.0772095, 1.85625, -0.1419067, 1.85625, -9.4961834, 1.85625, 3.8778627, 1.85625, -1.0229008
0.2191765, -0.012253, 1.863, 0.0015259, 1.863, -1.081543, 1.863, -0.1160278, 1.863, -9.4045801, 1.863, 2.4580152, 1.863, -1.3587786
0.2199706, -0.0129244, 1.86975, 0.0178223, 1.86975, -1.0743408, 1.86975, -0.1416626, 1.86975, -8.480916, 1.86975, 0.6717557, 1.86975, -1.2290076
0.2207647, -0.0112459, 1.8765, 0.0485229, 1.8765, -1.0580444, 1.8765, -0.1568604, 1.8765, -8.4045801, 1.8765, 2.8244274, 1.8765, -0.8778626
0.2215588, -0.0135958, 1.88325, 0.0343018, 1.88325, -1.0457153, 1.88325, -0.1512451, 1.88325, -10.3358774, 1.88325, 4.4122138, 1.88325, -0.6183206
0.2223529, -0.0146029, 1.89, 0.0072021, 1.89, -1.0394287, 1.89, -0.1411133, 1.89, -13.4503813, 1.89, 4.6564884, 1.89, -0.2748092
0.2231471, -0.0142672, 1.89675, -0.0062866, 1.89675, -1.038208, 1.89675, -0.1346436, 1.89675, -15.6183205, 1.89675, 5.3511453, 1.89675, 0.6641222
0.2239412, -0.0152743, 1.9035, 0.0028687, 1.9035, -1.0473022, 1.9035, -0.1300049, 1.9035, -18.1832066, 1.9035, 5.1374044, 1.9035, 1.7633588
0.2247353, -0.014435, 1.91025, -0.0038452, 1.91025, -1.0525513, 1.91025, -0.0809326, 1.91025, -19.6946564, 1.91025, 6.1374044, 1.91025, 1.961832
0.2255294, -0.0159457, 1.917, -0.0126343, 1.917, -1.0507812, 1.917, -0.0757446, 1.917, -19.0076332, 1.917, 7.6030536, 1.917, 3.3358779
0.2263235, -0.0162814, 1.92375, -0.0394287, 1.92375, -1.0521851, 1.92375, -0.0701294, 1.92375, -19.519083, 1.92375, 8.3511448, 1.92375, 4.2977099
0.2271176, -0.01561, 1.9305, -0.0527344, 1.9305, -1.0543823, 1.9305, -0.0375366, 1.9305, -18.2137413, 1.9305, 7.4656487, 1.9305, 4.9083967
0.2279118, -0.018967, 1.93725, -0.039978, 1.93725, -1.0393066, 1.93725, -0.0547485, 1.93725, -17.9770985, 1.93725, 6.0610685, 1.93725, 4.8778625
0.2287059, -0.0203098, 1.944, -0.0666504, 1.944, -1.0125732, 1.944, -0.0998535, 1.944, -16.7862587, 1.944, 3.0229008, 1.944, 4.2137403
0.2295, -0.0166171, 1.95075, -0.0646362, 1.95075, -1.0047607, 1.95075, -0.1307373, 1.95075, -15.0687027, 1.95075, -2.9389312, 1.95075, 4.9923663
0.2302941, -0.0129244, 1.9575, -0.0418091, 1.9575, -1.0040283, 1.9575, -0.1356201, 1.9575, -12.8320608, 1.9575, -2.3129771, 1.9575, 6.5648856
0.2310882, -0.0099031, 1.96425, -0.0184937, 1.96425, -0.9975586, 1.96425, -0.1705933, 1.96425, -11.7328243, 1.96425, -1.038168, 1.96425, 6.3816795
0.2318824, -0.0112459, 1.971, -0.0111694, 1.971, -0.9961548, 1.971, -0.1618652, 1.971, -11.0152674, 1.971, -0.648855, 1.971, 5.5877862
0.2326765, -0.0146029, 1.97775, -0.0037231, 1.97775, -0.9898071, 1.97775, -0.1661377, 1.97775, -8.5267172, 1.97775, 4.7633586, 1.97775, 5.2671757
0.2334706, -0.0152743, 1.9845, -0.0177612, 1.9845, -0.9886475, 1.9845, -0.2220459, 1.9845, -8.6030531, 1.9845, 6.8931298, 1.9845, 5.480916
0.2342647, -0.0152743, 1.99125, 0.0020142, 1.99125, -0.9987183, 1.99125, -0.2371826, 1.99125, -9.6106873, 1.99125, 10.2900763, 1.99125, 4.8244276
0.2350588, -0.0146029, 1.998, -0.0076904, 1.998, -1.0106201, 1.998, -0.2216797, 1.998, -9.7251911, 1.998, 11.961832, 1.998, 3.7557251
0.2358529, -0.01561, 2.00475, -0.0056763, 2.00475, -1.0029297, 2.00475, -0.21521, 2.00475, -10.5038166, 2.00475, 10.5572519, 2.00475, 3.1603053
0.2366471, -0.0176242, 2.0115, -0.0036621, 2.0115, -0.993103, 2.0115, -0.2248535, 2.0115, -10.2977095, 2.0115, 10.5038166, 2.0115, 3.3587787
0.2374412, -0.0182956, 2.01825, 0.0219727, 2.01825, -0.9846191, 2.01825, -0.2072144, 2.01825, -10.5954199, 2.01825, 11.2519083, 2.01825, 3.4045801
0.2382353, -0.0219883, 2.025, 0.0043945, 2.025, -0.9786987, 2.025, -0.1977539, 2.025, -11.480916, 2.025, 12.4351149, 2.025, 2.6412213
0.2390294, -0.023331, 2.03175, -0.0117798, 2.03175, -0.9715576, 2.03175, -0.1680298, 2.03175, -10.9770994, 2.03175, 13.4045801, 2.03175, 2.4961832
0.2398235, -0.0231632, 2.0385, -0.0283813, 2.0385, -0.9702148, 2.0385, -0.1638794, 2.0385, -10.1221371, 2.0385, 13.0076332, 2.0385, 2.0229008
0.2406176, -0.0226596, 2.04525, -0.0446167, 2.04525, -0.9782715, 2.04525, -0.135498, 2.04525, -9.2519083, 2.04525, 12.8702288, 2.04525, 1.870229
0.2414118, -0.0198062, 2.052, -0.0421753, 2.052, -0.975647, 2.052, -0.1235962, 2.052, -6.9236641, 2.052, 12.4351149, 2.052, 1.9007634
0.2422059, -0.0196384, 2.05875, -0.046936, 2.05875, -0.9640503, 2.05875, -0.1425171, 2.05875, -5.2442746, 2.05875, 9.2519083, 2.05875, 1.2061069
0.243, -0.0169528, 2.0655, -0.0587769, 2.0655, -0.9550171, 2.0655, -0.1657104, 2.0655, -5.3206105, 2.0655, 7.3053436, 2.0655, 1.3969465
0.2437941, -0.0179599, 2.07225, -0.0394897, 2.07225, -0.9506836, 2.07225, -0.1357422, 2.07225, -5.6946564, 2.07225, 7.1984735, 2.07225, 2.1526718
0.2445882, -0.01561, 2.079, -0.0004883, 2.079, -0.9441528, 2.079, -0.1220093, 2.079, -5.5114503, 2.079, 5.7633586, 2.079, 1.6717557
0.2453824, -0.0129244, 2.08575, -0.0023193, 2.08575, -0.9453735, 2.08575, -0.1190796, 2.08575, -5.5038166, 2.08575, 10.1145039, 2.08575, 1.6564885
0.2461765, -0.0135958, 2.0925, -0.0072021, 2.0925, -0.940918, 2.0925, -0.0887451, 2.0925, -5.0763359, 2.0925, 12.2061071, 2.0925, 1.5572519
0.2469706, -0.0132601, 2.09925, -0.0053711, 2.09925, -0.9434204, 2.09925, -0.0966187, 2.09925, -4.8931298, 2.09925, 10.7251911, 2.09925, 1.0305344
0.2477647, -0.0124208, 2.106, -0.0238037, 2.106, -0.9459839, 2.106, -0.1054077, 2.106, -4.2824426, 2.106, 10.8854961, 2.106, 1.0076336
0.2485588, -0.0132601, 2.11275, -0.0322266, 2.11275, -0.9487305, 2.11275, -0.109436, 2.11275, -2.3969467, 2.11275, 10.7633591, 2.11275, 1.1526718
0.2493529, -0.0135958, 2.1195, -0.0167847, 2.1195, -0.96521, 2.1195, -0.1000977, 2.1195, -2.5419848, 2.1195, 9.3053436, 2.1195, 1.1755725
0.2501471, -0.0130922, 2.12625, 0.0012817, 2.12625, -0.9697876, 2.12625, -0.104248, 2.12625, -2.1832061, 2.12625, 7.1145039, 2.12625, 1.129771
0.2509412, -0.0114137, 2.133, 0.0170898, 2.133, -0.9631348, 2.133, -0.1312256, 2.133, -2.7175572, 2.133, 5.8091602, 2.133, 0.3282443
0.2517353, -0.0120851, 2.13975, 0.010376, 2.13975, -0.961731, 2.13975, -0.0943604, 2.13975, -3.8931298, 2.13975, 5.3053436, 2.13975, 0.2061069
0.2525294, -0.0102388, 2.1465, 0.0127563, 2.1465, -0.9561157, 2.1465, -0.0983887, 2.1465, -2.3740458, 2.1465, 5.4427481, 2.1465, 0.1526718
0.2533235, -0.0095674, 2.15325, 0.0118408, 2.15325, -0.9545288, 2.15325, -0.1134033, 2.15325, -3.0992367, 2.15325, 6.6412215, 2.15325, -0.3435115
0.2541176, -0.0092317, 2.16, -0.0053711, 2.16, -0.9545288, 2.16, -0.1256714, 2.16, -4, 2.16, 6.6564884, 2.16, -0.3664122
0.2549118, -0.0095674, 2.16675, -0.0163574, 2.16675, -0.9584351, 2.16675, -0.1386719, 2.16675, -3.7480917, 2.16675, 6.961832, 2.16675, -0.3587786
0.2557059, -0.0082246, 2.1735, -0.0355835, 2.1735, -0.9805908, 2.1735, -0.1337891, 2.1735, -4.2442746, 2.1735, 8.6106873, 2.1735, -0.1145038
0.2565, -0.0092317, 2.18025, -0.0352783, 2.18025, -0.9841309, 2.18025, -0.1574707, 2.18025, -3.0687022, 2.18025, 7.2977099, 2.18025, -0.389313
0.2572941, -0.0102388, 2.187, -0.0255737, 2.187, -0.9916382, 2.187, -0.1434937, 2.187, -3.610687, 2.187, 6.0992365, 2.187, -0.1374046
0.2580882, -0.0072175, 2.19375, -0.017334, 2.19375, -0.996521, 2.19375, -0.1443481, 2.19375, -3.3816793, 2.19375, 5.7175574, 2.19375, 0.0992366
0.2588824, -0.0083925, 2.2005, 0.0028076, 2.2005, -0.9990234, 2.2005, -0.1675415, 2.2005, -2.2824428, 2.2005, 2.2977099, 2.2005, 0.2061069
0.2596765, -0.0102388, 2.20725, 0.0003662, 2.20725, -0.9954224, 2.20725, -0.1727295, 2.20725, -2.6564887, 2.20725, 2.6870229, 2.20725, -0.2748092
0.2604706, -0.0135958, 2.214, -0.024353, 2.214, -1.0007935, 2.214, -0.154541, 2.214, -1.8015267, 2.214, 2.5114503, 2.214, -0.1526718
0.2612647, -0.0132601, 2.22075, -0.0166016, 2.22075, -0.9922485, 2.22075, -0.1834717, 2.22075, -2.6793892, 2.22075, 2.9236641, 2.22075, -0.0076336
0.2620588, -0.0124208, 2.2275, -0.0350342, 2.2275, -1.0072021, 2.2275, -0.1583252, 2.2275, -1.8854961, 2.2275, 3.3206108, 2.2275, -0.2671756
0.2628529, -0.012253, 2.23425, -0.0469971, 2.23425, -1.0072632, 2.23425, -0.1519165, 2.23425, -1.6641221, 2.23425, 3.961832, 2.23425, -0.519084
0.2636471, -0.0135958, 2.241, -0.0426636, 2.241, -1, 2.241, -0.1524658, 2.241, -1.2671756, 2.241, 3.5954199, 2.241, -0.6793893
0.2644412, -0.0149386, 2.24775, -0.0380859, 2.24775, -1.008606, 2.24775, -0.1353149, 2.24775, -1.0152671, 2.24775, 3.5114503, 2.24775, -0.8854962
0.2652353, -0.0176242, 2.2545, -0.0253296, 2.2545, -1.0014648, 2.2545, -0.1553955, 2.2545, -0.5038168, 2.2545, 4.6106873, 2.2545, -0.9770992
0.2660294, -0.01561, 2.26125, -0.0263672, 2.26125, -0.996582, 2.26125, -0.1300049, 2.26125, -1.1984733, 2.26125, 5.8778625, 2.26125, -1.221374
0.2668235, -0.0182956, 2.268, -0.0319214, 2.268, -0.9910889, 2.268, -0.1524048, 2.268, -0.7709923, 2.268, 5.9083967, 2.268, -1.7862595
0.2676176, -0.0191348, 2.27475, -0.0216064, 2.27475, -0.9932861, 2.27475, -0.1504517, 2.27475, -0.9312977, 2.27475, 7.6488547, 2.27475, -1.2900764
0.2684118, -0.0162814, 2.2815, -0.0198975, 2.2815, -0.991333, 2.2815, -0.1748047, 2.2815, 0.2748092, 2.2815, 8.9923668, 2.2815, -1.0076336
0.2692059, -0.0142672, 2.28825, -0.0229492, 2.28825, -0.9952393, 2.28825, -0.1526489, 2.28825, 0.0229008, 2.28825, 8.641221, 2.28825, -0.7022901
0.27, -0.012253, 2.295, -0.0183105, 2.295, -0.9900513, 2.295, -0.154541, 2.295, -1.038168, 2.295, 9.1908398, 2.295, -0.9007633
0.2707941, -0.0125887, 2.30175, -0.0370483, 2.30175, -0.9954834, 2.30175, -0.1587524, 2.30175, 0.0534351, 2.30175, 8.0916033, 2.30175, -0.8473282
0.2715882, -0.0149386, 2.3085, -0.0336304, 2.3085, -0.9884033, 2.3085, -0.1529541, 2.3085, 0.5419847, 2.3085, 6.7099237, 2.3085, -0.9694657
0.2723824, -0.0157778, 2.31525, -0.0275879, 2.31525, -0.989563, 2.31525, -0.1586914, 2.31525, 1.3129771, 2.31525, 5.2290077, 2.31525, -1.4656489
0.2731765, -0.0152743, 2.322, -0.0341797, 2.322, -0.9837036, 2.322, -0.1829224, 2.322, 1.3053435, 2.322, 4.5954199, 2.322, -1.2977099
0.2739706, -0.0149386, 2.32875, -0.0235596, 2.32875, -0.9832153, 2.32875, -0.1653442, 2.32875, 1.7328244, 2.32875, 3.3053436, 2.32875, -1.0839695
0.2747647, -0.0115816, 2.3355, -0.0370483, 2.3355, -0.9911499, 2.3355, -0.1766968, 2.3355, 2.2824428, 2.3355, 4.4045801, 2.3355, -1.480916
0.2755588, -0.0104067, 2.34225, -0.0366211, 2.34225, -0.9939575, 2.34225, -0.1694946, 2.34225, 2.7709923, 2.34225, 3.9007633, 2.34225, -1.4961832
0.2763529, -0.0132601, 2.349, -0.0291138, 2.349, -0.9949951, 2.349, -0.178894, 2.349, 2.6946564, 2.349, 3.8854961, 2.349, -1.519084
0.2771471, -0.0149386, 2.35575, -0.0353394, 2.35575, -1, 2.35575, -0.1639404, 2.35575, 2.1526718, 2.35575, 3.7938931, 2.35575, -1.9389313
0.2779412, -0.0115816, 2.3625, -0.0386963, 2.3625, -0.9986572, 2.3625, -0.1694946, 2.3625, 2.4885497, 2.3625, 2.4885497, 2.3625, -1.8167939
0.2787353, -0.0159457, 2.36925, -0.0278931, 2.36925, -1.0045166, 2.36925, -0.1675415, 2.36925, 2.2519083, 2.36925, 2.2061069, 2.36925, -1.740458
0.2795294, -0.0196384, 2.376, -0.0162354, 2.376, -1.0026855, 2.376, -0.1600342, 2.376, 2.5572519, 2.376, 1.5496184, 2.376, -2.1068702
0.2803235, -0.0164492, 2.38275, -0.0083618, 2.38275, -1.0016479, 2.38275, -0.1488037, 2.38275, 3.129771, 2.38275, 2.6335878, 2.38275, -2.1984732
0.2811176, -0.0149386, 2.3895, 0.0004883, 2.3895, -0.9940796, 2.3895, -0.1623535, 2.3895, 4.519084, 2.3895, 2.5725191, 2.3895, -2.1832061
0.2819118, -0.0139315, 2.39625, 0.0015869, 2.39625, -0.9867554, 2.39625, -0.1536255, 2.39625, 3.9465649, 2.39625, 3.7022901, 2.39625, -2.8091602
0.2827059, -0.0152743, 2.403, -0.0036011, 2.403, -0.9835205, 2.403, -0.1421509, 2.403, 3.9236641, 2.403, 4.4961834, 2.403, -2.8778627
0.2835, -0.0176242, 2.40975, 0.0236206, 2.40975, -0.9787598, 2.40975, -0.1528931, 2.40975, 2.7022901, 2.40975, 4.4427481, 2.40975, -3.0610688
0.2842941, -0.0184634, 2.4165, 0.0068359, 2.4165, -0.9775391, 2.4165, -0.1432495, 2.4165, 1.6030535, 2.4165, 5.1679387, 2.4165, -3.7633588
0.2850882, -0.0186313, 2.42325, 0.0011597, 2.42325, -0.9829712, 2.42325, -0.1314087, 2.42325, 0.6564885, 2.42325, 4.5801525, 2.42325, -3.6030533
0.2858824, -0.0208133, 2.43, 0.0025024, 2.43, -0.9699097, 2.43, -0.1571045, 2.43, 0.7709923, 2.43, 5.4580154, 2.43, -4.1984735
0.2866765, -0.0209812, 2.43675, 0.0036621, 2.43675, -0.9754028, 2.43675, -0.1429443, 2.43675, -1.1679389, 2.43675, 5.7022901, 2.43675, -5.1603055
0.2874706, -0.0219883, 2.4435, -0.0084839, 2.4435, -0.9842529, 2.4435, -0.1386108, 2.4435, -0.6717557, 2.4435, 5.8549619, 2.4435, -4.6793895
0.2882647, -0.0273594, 2.45025, 0.0005493, 2.45025, -0.9816895, 2.45025, -0.1526489, 2.45025, 0.4351145, 2.45025, 3.2290077, 2.45025, -4.5419846
0.2890588, -0.0276951, 2.457, -0.0089111, 2.457, -0.9745483, 2.457, -0.1759033, 2.457, 0.5267175, 2.457, 2.2977099, 2.457, -4.1297708
0.2898529, -0.024506, 2.46375, -0.0383911, 2.46375, -0.9818726, 2.46375, -0.1560669, 2.46375, 2.1145039, 2.46375, 2.2290077, 2.46375, -3.8396947
0.2906471, -0.023331, 2.4705, -0.0500488, 2.4705, -0.9939575, 2.4705, -0.1832886, 2.4705, 3.091603, 2.4705, 2.3969467, 2.4705, -3.5801528
0.2914412, -0.0166171, 2.47725, -0.0369263, 2.47725, -1.0047607, 2.47725, -0.1743774, 2.47725, 2.7175572, 2.47725, 2.4045801, 2.47725, -3.4351146
0.2922353, -0.0162814, 2.484, -0.0489502, 2.484, -1.0097046, 2.484, -0.1697998, 2.484, 3.1984732, 2.484, 2.0992367, 2.484, -3.1603053
0.2930294, -0.0130922, 2.49075, -0.0794678, 2.49075, -1.0174561, 2.49075, -0.1647949, 2.49075, 3.1755726, 2.49075, 1.8167939, 2.49075, -3.5725191
0.2938235, -0.0082246, 2.4975, -0.088501, 2.4975, -1.0199585, 2.4975, -0.1691895, 2.4975, 3.7709923, 2.4975, 1.4885496, 2.4975, -3.038168
0.2946176, -0.008896, 2.50425, -0.0897827, 2.50425, -1.0223389, 2.50425, -0.1677856, 2.50425, 3.9770992, 2.50425, 0.961832, 2.50425, -3.0839694
0.2954118, -0.0112459, 2.511, -0.0810547, 2.511, -1.0150757, 2.511, -0.1688232, 2.511, 4.1755724, 2.511, 0, 2.511, -3.0152671
0.2962059, -0.0129244, 2.51775, -0.0762329, 2.51775, -1.0132446, 2.51775, -0.1711426, 2.51775, 4.4122138, 2.51775, -0.8931298, 2.51775, -3.0229008
0.297, -0.012253, 2.5245, -0.0596924, 2.5245, -1.0172729, 2.5245, -0.161499, 2.5245, 4.5725193, 2.5245, 0.2671756, 2.5245, -3.1526718
0.2977941, -0.011078, 2.53125, -0.0466919, 2.53125, -1.0140991, 2.53125, -0.161499, 2.53125, 5.1374044, 2.53125, -0.0992366, 2.53125, -3.0687022
0.2985882, -0.012253, 2.538, -0.0201416, 2.538, -1.0054932, 2.538, -0.1608887, 2.538, 4.6946564, 2.538, -0.1679389, 2.538, -3.259542
0.2993824, -0.0090639, 2.54475, -0.0078735, 2.54475, -0.9959717, 2.54475, -0.1680908, 2.54475, 2.9465649, 2.54475, 0.8473282, 2.54475, -2.8167939
0.3001765, -0.0068818, 2.5515, 0.0058594, 2.5515, -0.9938965, 2.5515, -0.1595459, 2.5515, 2.7557251, 2.5515, 2.1755726, 2.5515, -2.9312978
0.3009706, -0.0068818, 2.55825, 0.0030518, 2.55825, -0.9910889, 2.55825, -0.1816406, 2.55825, 2.4656489, 2.55825, 3.5725191, 2.55825, -3.1526718
0.3017647, -0.005539, 2.565, -0.0108643, 2.565, -1.0003052, 2.565, -0.1849365, 2.565, 0.7938932, 2.565, 4.7633586, 2.565, -2.9847329
0.3025588, -0.0031891, 2.57175, -0.0324707, 2.57175, -1.0170898, 2.57175, -0.1809082, 2.57175, 0.0610687, 2.57175, 5.4732823, 2.57175, -3.4732823
0.3033529, -0.0048676, 2.5785, -0.0449219, 2.5785, -1.0194092, 2.5785, -0.1688843, 2.5785, -1.2519084, 2.5785, 4.9007635, 2.5785, -3.5343511
0.3041471, -0.0077211, 2.58525, -0.0601807, 2.58525, -1.0137329, 2.58525, -0.1630249, 2.58525, -2.2442749, 2.58525, 4.3358779, 2.58525, -3.870229
0.3049412, -0.0045319, 2.592, -0.0576172, 2.592, -1.0130615, 2.592, -0.1627197, 2.592, -2.1832061, 2.592, 1.3358779, 2.592, -3.3664122
0.3057353, -0.0062104, 2.59875, -0.0549927, 2.59875, -1.0136719, 2.59875, -0.1560669, 2.59875, -1.4198474, 2.59875, 0.778626, 2.59875, -3.3587787
0.3065294, -0.0095674, 2.6055, -0.053894, 2.6055, -1.0112915, 2.6055, -0.1589355, 2.6055, 0.5572519, 2.6055, 1.129771, 2.6055, -2.8244274
0.3073235, -0.008896, 2.61225, -0.0482178, 2.61225, -1.0059204, 2.61225, -0.1551514, 2.61225, 0.5114504, 2.61225, 0.8854962, 2.61225, -2.9923663
0.3081176, -0.0112459, 2.619, -0.0470581, 2.619, -0.9988403, 2.619, -0.1712036, 2.619, 0.2900763, 2.619, 0.648855, 2.619, -3.2290077
0.3089118, -0.0139315, 2.62575, -0.0668335, 2.62575, -1.0114136, 2.62575, -0.1651611, 2.62575, -0.519084, 2.62575, 0.4503817, 2.62575, -2.6412213
0.3097059, -0.0176242, 2.6325, -0.0664062, 2.6325, -1.0163574, 2.6325, -0.1622925, 2.6325, -0.9160305, 2.6325, 0.3129771, 2.6325, -2.5496182
0.3105, -0.0162814, 2.63925, -0.0524902, 2.63925, -1.0099487, 2.63925, -0.1859131, 2.63925, -1.351145, 2.63925, -1.038168, 2.63925, -2.5725191
0.3112941, -0.0146029, 2.646, -0.0616455, 2.646, -1.0146484, 2.646, -0.1799927, 2.646, -2.9541984, 2.646, -2.0610688, 2.646, -2.5114503
0.3120882, -0.0166171, 2.65275, -0.0528564, 2.65275, -1.0186768, 2.65275, -0.1756592, 2.65275, -3.870229, 2.65275, -2.4580152, 2.65275, -2.7633588
0.3128824, -0.0152743, 2.6595, -0.0253296, 2.6595, -1.0117798, 2.6595, -0.1868286, 2.6595, -4.0992365, 2.6595, -3.091603, 2.6595, -2.6259542
0.3136765, -0.0152743, 2.66625, -0.022583, 2.66625, -1.0059204, 2.66625, -0.1729126, 2.66625, -4.8320613, 2.66625, -1.4732825, 2.66625, -3.0229008
0.3144706, -0.0184634, 2.673, -0.0256348, 2.673, -1.0055542, 2.673, -0.1588745, 2.673, -4.0610685, 2.673, 0.8244275, 2.673, -3.0992367
0.3152647, -0.0196384, 2.67975, -0.0185547, 2.67975, -0.9713135, 2.67975, -0.1903076, 2.67975, -5.6946564, 2.67975, 1.5801526, 2.67975, -3.519084
0.3160588, -0.0236667, 2.6865, -0.0231323, 2.6865, -1.0178223, 2.6865, -0.1778564, 2.6865, -2.7022901, 2.6865, 2.2290077, 2.6865, -3.0992367
0.3168529, -0.0283665, 2.69325, -0.03302, 2.69325, -1.0049438, 2.69325, -0.178894, 2.69325, -1.7328244, 2.69325, 2.6564887, 2.69325, -2.6717558
0.3176471, -0.0246738, 2.7, -0.0307007, 2.7, -1.0029907, 2.7, -0.1780396, 2.7, -0.7099237, 2.7, 2.0076337, 2.7, -2.389313
0.3184412, -0.0270237, 2.70675, -0.0233154, 2.70675, -1.0004883, 2.70675, -0.1826782, 2.70675, 0.6030535, 2.70675, 1.5496184, 2.70675, -2.4427481
0.3192353, -0.0271916, 2.7135, -0.0281982, 2.7135, -0.9973145, 2.7135, -0.1853027, 2.7135, 0.648855, 2.7135, 1.2442749, 2.7135, -2.5572519
0.3200294, -0.0213169, 2.72025, -0.0439453, 2.72025, -1.0026245, 2.72025, -0.177124, 2.72025, 0.351145, 2.72025, 0.908397, 2.72025, -2.5877862
0.3208235, -0.0176242, 2.727, -0.0934448, 2.727, -0.9199829, 2.727, -0.2432861, 2.727, 0.2061069, 2.727, 1, 2.727, -2.6793892
0.3216176, -0.0176242, 2.73375, -0.0540771, 2.73375, -1.0395508, 2.73375, -0.210022, 2.73375, -3.3435113, 2.73375, -1.9770992, 2.73375, -2.221374
0.3224118, -0.018967, 2.7405, -0.0455322, 2.7405, -1.006958, 2.7405, -0.1621094, 2.7405, -1.6183206, 2.7405, 0.610687, 2.7405, -2.8091602
0.3232059, -0.0193027, 2.74725, -0.0342407, 2.74725, -1.0056152, 2.74725, -0.1755981, 2.74725, -0.1603053, 2.74725, 0.2977099, 2.74725, -3.1603053
0.324, -0.0162814, 2.754, -0.0392456, 2.754, -1.0042114, 2.754, -0.170166, 2.754, 0.4656489, 2.754, -0.3664122, 2.754, -3.091603
0.3247941, -0.0182956, 2.76075, -0.0401001, 2.76075, -1.0050049, 2.76075, -0.1808472, 2.76075, 0.6335878, 2.76075, 0.6412213, 2.76075, -3.0610688
0.3255882, -0.0166171, 2.7675, -0.039917, 2.7675, -1.0085449, 2.7675, -0.1769409, 2.7675, 0.5267175, 2.7675, 0.9312977, 2.7675, -3.0839694
0.3263824, -0.0176242, 2.77425, -0.0374146, 2.77425, -1.0047607, 2.77425, -0.1781616, 2.77425, 0.9007633, 2.77425, 1.0534351, 2.77425, -2.9465649
0.3271765, -0.017792, 2.781, -0.0309448, 2.781, -1.0131226, 2.781, -0.1781616, 2.781, 2.0458016, 2.781, 0.9541985, 2.781, -3.0152671
0.3279706, -0.0167849, 2.78775, -0.0342407, 2.78775, -1.008667, 2.78775, -0.1781006, 2.78775, 3.0076337, 2.78775, 1.221374, 2.78775, -2.8778627
0.3287647, -0.0129244, 2.7945, -0.0292358, 2.7945, -1.0054932, 2.7945, -0.1767578, 2.7945, 3.4503818, 2.7945, 1.7938931, 2.7945, -2.8778627
0.3295588, -0.0152743, 2.80125, -0.0133667, 2.80125, -1.0026245, 2.80125, -0.1653442, 2.80125, 3.908397, 2.80125, 2.2290077, 2.80125, -2.9389312
0.3303529, -0.0129244, 2.808, -0.0092773, 2.808, -0.9979248, 2.808, -0.1661987, 2.808, 4.3053436, 2.808, 2.3129771, 2.808, -2.6335878
0.3311471, -0.0140993, 2.81475, 0.0021973, 2.81475, -0.9914551, 2.81475, -0.1622925, 2.81475, 4.1603055, 2.81475, 2.1908398, 2.81475, -3.1679389
0.3319412, -0.0169528, 2.8215, 0.0015259, 2.8215, -0.9813232, 2.8215, -0.170166, 2.8215, 3.480916, 2.8215, 2.3282442, 2.8215, -3.1755726
0.3327353, -0.0169528, 2.82825, -0.0031128, 2.82825, -0.9796143, 2.82825, -0.1629639, 2.82825, 2.0152671, 2.82825, 2.7633588, 2.82825, -3.6641221
0.3335294, -0.0159457, 2.835, 0.0007935, 2.835, -0.9780884, 2.835, -0.1688232, 2.835, 1.389313, 2.835, 1.7175573, 2.835, -3.6946564
0.3343235, -0.01561, 2.84175, 0.0091553, 2.84175, -0.9822998, 2.84175, -0.18396, 2.84175, 1.0763359, 2.84175, 1.091603, 2.84175, -3.519084
0.3351176, -0.0129244, 2.8485, 0.0076294, 2.8485, -0.9854126, 2.8485, -0.1619873, 2.8485, 1.2290076, 2.8485, 1.6030535, 2.8485, -3.7328243
0.3359118, -0.0115816, 2.85525, 0.0066528, 2.85525, -0.9822998, 2.85525, -0.1707153, 2.85525, 1.8167939, 2.85525, 2.5648854, 2.85525, -3.7022901
0.3367059, -0.0117494, 2.862, 0, 2.862, -0.9880981, 2.862, -0.1624146, 2.862, 1.1374046, 2.862, 2.9312978, 2.862, -3.9770992
0.3375, -0.0105745, 2.86875, -0.0239868, 2.86875, -0.9927979, 2.86875, -0.1499023, 2.86875, 1.2824427, 2.86875, 3.091603, 2.86875, -4.0992365
0.3382941, -0.0105745, 2.8755, -0.0373535, 2.8755, -0.9925537, 2.8755, -0.1694336, 2.8755, 2.1832061, 2.8755, 3.3129771, 2.8755, -3.9541984
0.3390882, -0.0142672, 2.88225, -0.0523682, 2.88225, -1.0032959, 2.88225, -0.1638794, 2.88225, 1.7175573, 2.88225, 3.7328243, 2.88225, -4.2442746
0.3398824, -0.0169528, 2.889, -0.0738525, 2.889, -1.0092773, 2.889, -0.1600952, 2.889, 1.1679389, 2.889, 3.3435113, 2.889, -4.1374044
0.3406765, -0.0159457, 2.89575, -0.0653687, 2.89575, -1.0090942, 2.89575, -0.1774902, 2.89575, 1.3969465, 2.89575, 0.8091603, 2.89575, -3.5572519
0.3414706, -0.0176242, 2.9025, -0.0602417, 2.9025, -1.0147705, 2.9025, -0.1702881, 2.9025, 0.6946565, 2.9025, -0.8931298, 2.9025, -3.4961832
0.3422647, -0.0162814, 2.90925, -0.0649414, 2.90925, -1.0186768, 2.90925, -0.1754761, 2.90925, 0.5038168, 2.90925, -1.2366412, 2.90925, -3.4351146
0.3430588, -0.0139315, 2.916, -0.0597534, 2.916, -1.022583, 2.916, -0.1814575, 2.916, 0.0763359, 2.916, -1.3740458, 2.916, -3.091603
0.3438529, -0.0135958, 2.92275, -0.0578003, 2.92275, -1.0248413, 2.92275, -0.1704102, 2.92275, 0.6030535, 2.92275, -2.0839694, 2.92275, -3.091603
0.3446471, -0.0135958, 2.9295, -0.0540161, 2.9295, -1.0170898, 2.9295, -0.1762695, 2.9295, 1.038168, 2.9295, -2.8549619, 2.9295, -3.0305343
0.3454412, -0.0135958, 2.93625, -0.0568848, 2.93625, -1.0174561, 2.93625, -0.1745605, 2.93625, 0.7709923, 2.93625, -2.8015268, 2.93625, -2.6641221
0.3462353, -0.0172885, 2.943, -0.0466919, 2.943, -1.013916, 2.943, -0.1876221, 2.943, 0.8549618, 2.943, -2.9847329, 2.943, -2.6793892
0.3470294, -0.0162814, 2.94975, -0.0316162, 2.94975, -1.0144653, 2.94975, -0.1836548, 2.94975, 0.1450382, 2.94975, -3.2137403, 2.94975, -2.6564887
0.3478235, -0.0142672, 2.9565, -0.0336304, 2.9565, -1.0114136, 2.9565, -0.1859741, 2.9565, 0.6259542, 2.9565, -1.5419847, 2.9565, -2.6030533
0.3486176, -0.0169528, 2.96325, -0.0310059, 2.96325, -1.0125732, 2.96325, -0.1792603, 2.96325, 0.5496183, 2.96325, -0.610687, 2.96325, -2.4274809
0.3494118, -0.0162814, 2.97, -0.0316772, 2.97, -1.0054932, 2.97, -0.1842651, 2.97, 0.3358779, 2.97, 0.0076336, 2.97, -2.648855
0.3502059, -0.0139315, 2.97675, -0.0255737, 2.97675, -1.0078125, 2.97675, -0.1821899, 2.97675, 0.2977099, 2.97675, 0.6870229, 2.97675, -2.4656489
0.351, -0.012253, 2.9835, -0.0272217, 2.9835, -1.005188, 2.9835, -0.1931763, 2.9835, 0.7251908, 2.9835, 2.5114503, 2.9835, -2.3969467
0.3517941, -0.0125887, 2.99025, -0.0213623, 2.99025, -0.9996338, 2.99025, -0.1884766, 2.99025, -0.1221374, 2.99025, 3.4122138, 2.99025, -2.6641221
0.3525882, -0.0139315, 2.997, -0.0267944, 2.997, -0.9983521, 2.997, -0.1769409, 2.997, -0.5954198, 2.997, 3.7938931, 2.997, -2.740458
0.3533824, -0.0135958, 3.00375, -0.0291748, 3.00375, -1.0027466, 3.00375, -0.1784058, 3.00375, -0.4732825, 3.00375, 4.4503818, 3.00375, -2.740458
0.3541765, -0.0129244, 3.0105, -0.0348511, 3.0105, -1.0014648, 3.0105, -0.1812134, 3.0105, -0.7022901, 3.0105, 4.6412215, 3.0105, -2.5419848
0.3549706, -0.0149386, 3.01725, -0.0394897, 3.01725, -0.9995117, 3.01725, -0.1731567, 3.01725, -0.8473282, 3.01725, 4.6641221, 3.01725, -2.6717558
0.3557647, -0.0166171, 3.024, -0.0476685, 3.024, -1.0002441, 3.024, -0.1704102, 3.024, -0.648855, 3.024, 4.2977099, 3.024, -2.4885497
0.3565588, -0.0176242, 3.03075, -0.0512695, 3.03075, -1.0037231, 3.03075, -0.1671753, 3.03075, -0.0229008, 3.03075, 3.3435113, 3.03075, -2.2748091
0.3573529, -0.017792, 3.0375, -0.0475464, 3.0375, -0.9996338, 3.0375, -0.1790771, 3.0375, 0.7557252, 3.0375, 3.0458016, 3.0375, -2.4580152
0.3581471, -0.0135958, 3.04425, -0.0441284, 3.04425, -0.9978027, 3.04425, -0.1855469, 3.04425, 1.3664122, 3.04425, 2.8015268, 3.04425, -2.4351146
0.3589412, -0.0105745, 3.051, -0.0449829, 3.051, -0.9997559, 3.051, -0.1707153, 3.051, 1.2900764, 3.051, 2.6870229, 3.051, -2.4045801
0.3597353, -0.0102388, 3.05775, -0.0409546, 3.05775, -0.996521, 3.05775, -0.1834717, 3.05775, 2.4427481, 3.05775, 1.2442749, 3.05775, -2.2748091
0.3605294, -0.0109102, 3.0645, -0.0396118, 3.0645, -0.9937744, 3.0645, -0.1868896, 3.0645, 2.351145, 3.0645, 0.6259542, 3.0645, -2.2900763
0.3613235, -0.012253, 3.07125, -0.0303955, 3.07125, -1, 3.07125, -0.1779785, 3.07125, 1.7633588, 3.07125, 0.1984733, 3.07125, -2.4961832
0.3621176, -0.0149386, 3.078, -0.0280762, 3.078, -0.9979248, 3.078, -0.1773682, 3.078, 2.091603, 3.078, 0.0305344, 3.078, -2.8244274
0.3629118, -0.0172885, 3.08475, -0.0284424, 3.08475, -0.9978638, 3.08475, -0.1745605, 3.08475, 2.9236641, 3.08475, 1.3740458, 3.08475, -2.8625953
0.3637059, -0.0142672, 3.0915, -0.0279541, 3.0915, -1.0007324, 3.0915, -0.1762085, 3.0915, 3.0534351, 3.0915, 2.2442749, 3.0915, -2.9389312
0.3645, -0.0129244, 3.09825, -0.0352173, 3.09825, -1.0050049, 3.09825, -0.1702881, 3.09825, 3.2137403, 3.09825, 2.0839694, 3.09825, -3.0152671
0.3652941, -0.0105745, 3.105, -0.0328369, 3.105, -1.0028687, 3.105, -0.1619263, 3.105, 3.0992367, 3.105, 2.648855, 3.105, -2.8167939
0.3660882, -0.0075532, 3.11175, -0.0276489, 3.11175, -1.0010986, 3.11175, -0.1680908, 3.11175, 3.0610688, 3.11175, 2.3664122, 3.11175, -2.7328243
0.3668824, -0.0102388, 3.1185, -0.0321655, 3.1185, -0.9981689, 3.1185, -0.1796265, 3.1185, 3.5648854, 3.1185, 2.8244274, 3.1185, -2.8625953
0.3676765, -0.0099031, 3.12525, -0.0286255, 3.12525, -1.0040894, 3.12525, -0.1792603, 3.12525, 3.5648854, 3.12525, 3.5877862, 3.12525, -2.908397
0.3684706, -0.0104067, 3.132, -0.0239258, 3.132, -1.0097656, 3.132, -0.1852417, 3.132, 3.5801528, 3.132, 3.9770992, 3.132, -2.9389312
0.3692647, -0.0139315, 3.13875, -0.0300293, 3.13875, -1.0098877, 3.13875, -0.18573, 3.13875, 3, 3.13875, 3.9465649, 3.13875, -3.1145039
0.3700588, -0.0166171, 3.1455, -0.0476685, 3.1455, -1.0094604, 3.1455, -0.1751099, 3.1455, 2.7633588, 3.1455, 3.389313, 3.1455, -3.091603
0.3708529, -0.0179599, 3.15225, -0.0593262, 3.15225, -1.0153198, 3.15225, -0.1763306, 3.15225, 2.5114503, 3.15225, 2.7480917, 3.15225, -2.961832
0.3716471, -0.0196384, 3.159, -0.0529175, 3.159, -1.0166016, 3.159, -0.1781006, 3.159, 1.6259542, 3.159, 1.6717557, 3.159, -3.1145039
0.3724412, -0.01561, 3.16575, -0.0386353, 3.16575, -1.0125732, 3.16575, -0.1801147, 3.16575, 1.0534351, 3.16575, 0.7099237, 3.16575, -2.7633588
0.3732353, -0.0162814, 3.1725, -0.0357056, 3.1725, -1.0083618, 3.1725, -0.1820068, 3.1725, 0.0458015, 3.1725, 0.480916, 3.1725, -3.2824428
0.3740294, -0.021149, 3.17925, -0.0405273, 3.17925, -1.0091553, 3.17925, -0.1773071, 3.17925, -0.1832061, 3.17925, 0.351145, 3.17925, -3.221374
0.3748235, -0.0199741, 3.186, -0.0387573, 3.186, -1.0076904, 3.186, -0.1834106, 3.186, -0.2290076, 3.186, 0.7099237, 3.186, -3.1145039
0.3756176, -0.0176242, 3.19275, -0.0314331, 3.19275, -1.0020142, 3.19275, -0.1829834, 3.19275, -0.2137405, 3.19275, 0.9160305, 3.19275, -3.0305343
0.3764118, -0.0164492, 3.1995, -0.0413818, 3.1995, -1.0074463, 3.1995, -0.1712646, 3.1995, -0.0458015, 3.1995, 1.2290076, 3.1995, -3.1221373
0.3772059, -0.0157778, 3.20625, -0.0450439, 3.20625, -1.0050659, 3.20625, -0.1741333, 3.20625, 0.5038168, 3.20625, 1.0076336, 3.20625, -3.1679389
0.378, -0.0203098, 3.213, -0.0374756, 3.213, -1.0029907, 3.213, -0.1763306, 3.213, 0.7099237, 3.213, 0.5267175, 3.213, -2.9694657
0.3787941, -0.0213169, 3.21975, -0.0241699, 3.21975, -0.999939, 3.21975, -0.1740112, 3.21975, 0.9236641, 3.21975, -0.3129771, 3.21975, -3.1221373
0.3795882, -0.0176242, 3.2265, -0.02771, 3.2265, -0.9978027, 3.2265, -0.1625366, 3.2265, 1.2366412, 3.2265, 0.1984733, 3.2265, -3.2442749
0.3803824, -0.0186313, 3.23325, -0.0274048, 3.23325, -0.9956665, 3.23325, -0.1601562, 3.23325, 2.6030533, 3.23325, 0.1832061, 3.23325, -3.129771
0.3811765, -0.0224918, 3.24, -0.0209351, 3.24, -0.9926758, 3.24, -0.1680908, 3.24, 2.9465649, 3.24, 0.2137405, 3.24, -2.9312978
0.3819706, -0.0243381, 3.24675, -0.0115967, 3.24675, -0.9899292, 3.24675, -0.177063, 3.24675, 2.7328243, 3.24675, 0.2748092, 3.24675, -3.1832061
0.3827647, -0.0229953, 3.2535, -0.0210571, 3.2535, -0.9900513, 3.2535, -0.1720581, 3.2535, 2.4732823, 3.2535, 0.480916, 3.2535, -3.4580152
0.3835588, -0.0216526, 3.26025, -0.0289917, 3.26025, -0.9923096, 3.26025, -0.171936, 3.26025, 2.5267177, 3.26025, 0.9312977, 3.26025, -3.4885497
0.3843529, -0.0231632, 3.267, -0.0333862, 3.267, -0.99646, 3.267, -0.1663818, 3.267, 2.4198472, 3.267, 1.1068702, 3.267, -3.6564887
0.3851471, -0.0224918, 3.27375, -0.0484619, 3.27375, -0.9987793, 3.27375, -0.1679688, 3.27375, 1.870229, 3.27375, 1.2442749, 3.27375, -3.6870229
0.3859412, -0.0226596, 3.2805, -0.0447998, 3.2805, -1.00354, 3.2805, -0.1577148, 3.2805, 1.8931298, 3.2805, 1.1526718, 3.2805, -3.4045801
0.3867353, -0.0203098, 3.28725, -0.0405884, 3.28725, -1.0008545, 3.28725, -0.1713257, 3.28725, 2.5725191, 3.28725, 0.9541985, 3.28725, -3.6717558
0.3875294, -0.018967, 3.294, -0.036438, 3.294, -0.9953613, 3.294, -0.1742554, 3.294, 2.9465649, 3.294, 1.8091604, 3.294, -3.5877862
0.3883235, -0.0149386, 3.30075, -0.0444946, 3.30075, -0.9972534, 3.30075, -0.159668, 3.30075, 2.5572519, 3.30075, 2.0458016, 3.30075, -3.9160306
0.3891176, -0.0157778, 3.3075, -0.046875, 3.3075, -1.0007324, 3.3075, -0.1665039, 3.3075, 2.519084, 3.3075, 1.8473282, 3.3075, -4.1908398
0.3899118, -0.0112459, 3.31425, -0.0488892, 3.31425, -1.003479, 3.31425, -0.168396, 3.31425, 2.0229008, 3.31425, 1.5496184, 3.31425, -3.9236641
0.3907059, -0.008896, 3.321, -0.0465698, 3.321, -1.0070801, 3.321, -0.1685181, 3.321, 2.3206108, 3.321, 0.9236641, 3.321, -3.6259542
0.3915, -0.0099031, 3.32775, -0.0420532, 3.32775, -1.0071411, 3.32775, -0.1772461, 3.32775, 2.1221373, 3.32775, -0.3282443, 3.32775, -3.3435113
0.3922941, -0.0070497, 3.3345, -0.0459595, 3.3345, -1.0083008, 3.3345, -0.1713867, 3.3345, 2.1450381, 3.3345, -0.0305344, 3.3345, -3.4656489
0.3930882, -0.005539, 3.34125, -0.0422974, 3.34125, -1.0111694, 3.34125, -0.170166, 3.34125, 2.8778627, 3.34125, 1.0763359, 3.34125, -3.1374047
0.3938824, -0.0105745, 3.348, -0.0270996, 3.348, -1.0119629, 3.348, -0.1756592, 3.348, 2.8091602, 3.348, 0.8778626, 3.348, -3.0305343
0.3946765, -0.0135958, 3.35475, -0.0270996, 3.35475, -1.0102539, 3.35475, -0.1791382, 3.35475, 2.8167939, 3.35475, 0.2366412, 3.35475, -3.1450381
0.3954706, -0.0127565, 3.3615, -0.0310669, 3.3615, -1.005188, 3.3615, -0.1756592, 3.3615, 2.5877862, 3.3615, 0.9541985, 3.3615, -3.1374047
0.3962647, -0.0115816, 3.36825, -0.0265503, 3.36825, -1.0059814, 3.36825, -0.1782837, 3.36825, 2.4503818, 3.36825, 1.351145, 3.36825, -3.1679389
0.3970588, -0.0152743, 3.375, -0.0263062, 3.375, -1.0075073, 3.375, -0.1810303, 3.375, 2.4351146, 3.375, 1.5038168, 3.375, -3.3282442
0.3978529, -0.0137636, 3.38175, -0.0366211, 3.38175, -1.0101318, 3.38175, -0.1793213, 3.38175, 2.4427481, 3.38175, 1.5343511, 3.38175, -3.2900763
0.3986471, -0.0142672, 3.3885, -0.0446167, 3.3885, -1.0077515, 3.3885, -0.1677856, 3.3885, 2.1221373, 3.3885, 1.5038168, 3.3885, -3.4274809
0.3994412, -0.01561, 3.39525, -0.0457153, 3.39525, -1.010376, 3.39525, -0.1709595, 3.39525, 2.1145039, 3.39525, 1.1603054, 3.39525, -3.2824428
0.4002353, -0.0159457, 3.402, -0.0383911, 3.402, -1.0076294, 3.402, -0.1715698, 3.402, 1.740458, 3.402, 1.0229008, 3.402, -3.091603
0.4010294, -0.0146029, 3.40875, -0.0441895, 3.40875, -1.0101318, 3.40875, -0.1688232, 3.40875, 1.6412214, 3.40875, 0.8778626, 3.40875, -3.0076337
0.4018235, -0.0130922, 3.4155, -0.0518188, 3.4155, -1.0072632, 3.4155, -0.1702271, 3.4155, 1.1832061, 3.4155, 0.5954198, 3.4155, -3.3816793
0.4026176, -0.0115816, 3.42225, -0.0388794, 3.42225, -1.003479, 3.42225, -0.1896973, 3.42225, 1.3053435, 3.42225, 0.8549618, 3.42225, -3.038168
0.4034118, -0.0139315, 3.429, -0.0407715, 3.429, -1.0053711, 3.429, -0.1866455, 3.429, 0.7022901, 3.429, 0.1755725, 3.429, -3.0839694
0.4042059, -0.0134279, 3.43575, -0.0501099, 3.43575, -1.0117188, 3.43575, -0.1687012, 3.43575, 0.2442748, 3.43575, 0.0305344, 3.43575, -3.0687022
0.405, -0.0176242, 3.4425, -0.0437622, 3.4425, -1.0040283, 3.4425, -0.1846313, 3.4425, 0.2366412, 3.4425, 0.2366412, 3.4425, -2.9160306
0.4057941, -0.0181277, 3.44925, -0.0366821, 3.44925, -1.0037842, 3.44925, -0.1801147, 3.44925, 0.1755725, 3.44925, -0.5877863, 3.44925, -2.778626
0.4065882, -0.0193027, 3.456, -0.0404053, 3.456, -1.0091553, 3.456, -0.1779785, 3.456, 0.480916, 3.456, -0.6183206, 3.456, -2.6259542
0.4073824, -0.01561, 3.46275, -0.0357666, 3.46275, -1.0076294, 3.46275, -0.1663208, 3.46275, 0.6946565, 3.46275, -0.5114504, 3.46275, -2.8320611
0.4081765, -0.0172885, 3.4695, -0.0388794, 3.4695, -1.0062866, 3.4695, -0.177002, 3.4695, 1.1145039, 3.4695, -0.2671756, 3.4695, -2.9236641
0.4089706, -0.0184634, 3.47625, -0.0465698, 3.47625, -1.003479, 3.47625, -0.1782227, 3.47625, 0.740458, 3.47625, 0.0076336, 3.47625, -3.1068702
0.4097647, -0.0159457, 3.483, -0.0383301, 3.483, -1.0087891, 3.483, -0.1815796, 3.483, 0.8778626, 3.483, 0.5648855, 3.483, -3.1068702
0.4105588, -0.0162814, 3.48975, -0.0333862, 3.48975, -1.0107422, 3.48975, -0.1851196, 3.48975, 0.9847328, 3.48975, 0.4656489, 3.48975, -2.9389312
0.4113529, -0.0152743, 3.4965, -0.024231, 3.4965, -1.0078735, 3.4965, -0.171936, 3.4965, 1.0305344, 3.4965, 1.0763359, 3.4965, -3.3435113
0.4121471, -0.0172885, 3.50325, -0.0142822, 3.50325, -1.0026855, 3.50325, -0.175293, 3.50325, 1.7022901, 3.50325, 1.7633588, 3.50325, -3.2824428
0.4129412, -0.0179599, 3.51, -0.0205688, 3.51, -0.9978638, 3.51, -0.1763306, 3.51, 2.0534351, 3.51, 2.3664122, 3.51, -3.4656489
0.4137353, -0.0164492, 3.51675, -0.0307007, 3.51675, -0.9992676, 3.51675, -0.1689453, 3.51675, 1.9236641, 3.51675, 2.5267177, 3.51675, -3.5954199
0.4145294, -0.0135958, 3.5235, -0.0350342, 3.5235, -1.0001221, 3.5235, -0.1672363, 3.5235, 2.4427481, 3.5235, 2.1679389, 3.5235, -3.4122138
0.4153235, -0.014435, 3.53025, -0.0289307, 3.53025, -0.9992065, 3.53025, -0.1625977, 3.53025, 2.6946564, 3.53025, 1.389313, 3.53025, -3.4122138
0.4161176, -0.0130922, 3.537, -0.0249634, 3.537, -0.9993286, 3.537, -0.1575317, 3.537, 2.9312978, 3.537, 1.4656489, 3.537, -3.2824428
0.4169118, -0.0127565, 3.54375, -0.0314941, 3.54375, -0.9989624, 3.54375, -0.1471558, 3.54375, 3.3282442, 3.54375, 1.5267175, 3.54375, -3.5267177
0.4177059, -0.0137636, 3.5505, -0.0324707, 3.5505, -0.987854, 3.5505, -0.1567993, 3.5505, 3.610687, 3.5505, 1.2366412, 3.5505, -3.610687
0.4185, -0.0139315, 3.55725, -0.0256958, 3.55725, -0.9903564, 3.55725, -0.15448, 3.55725, 3.9541984, 3.55725, 0.1908397, 3.55725, -3.6564887
0.4192941, -0.0157778, 3.564, -0.0409546, 3.564, -0.9923706, 3.564, -0.1547852, 3.564, 3.389313, 3.564, 0.0229008, 3.564, -3.8549619
0.4200882, -0.0191348, 3.57075, -0.0290527, 3.57075, -0.9942627, 3.57075, -0.1638794, 3.57075, 3.2137403, 3.57075, -0.480916, 3.57075, -3.7480917
0.4208824, -0.0166171, 3.5775, -0.029541, 3.5775, -0.9969482, 3.5775, -0.159729, 3.5775, 2.480916, 3.5775, -0.908397, 3.5775, -3.9312978
0.4216765, -0.0149386, 3.58425, -0.0334473, 3.58425, -0.9997559, 3.58425, -0.1691895, 3.58425, 2.5801528, 3.58425, -0.1755725, 3.58425, -4.1297708
0.4224706, -0.0135958, 3.591, -0.0206299, 3.591, -0.9945679, 3.591, -0.1801147, 3.591, 2.2061069, 3.591, 0.8931298, 3.591, -3.9923663
0.4232647, -0.0115816, 3.59775, -0.0209961, 3.59775, -1.0025635, 3.59775, -0.1748657, 3.59775, 1.3664122, 3.59775, 1.480916, 3.59775, -4.0152674
0.4240588, -0.0129244, 3.6045, -0.0244751, 3.6045, -1.005127, 3.6045, -0.1828613, 3.6045, 1.2671756, 3.6045, 1.4656489, 3.6045, -4.1832061
0.4248529, -0.0125887, 3.61125, -0.0372925, 3.61125, -1.0096436, 3.61125, -0.1705322, 3.61125, 0.4045801, 3.61125, 1.778626, 3.61125, -3.5572519
0.4256471, -0.012253, 3.618, -0.0356445, 3.618, -1.0145874, 3.618, -0.1645508, 3.618, 0.4580153, 3.618, 1.5114504, 3.618, -3.5801528
0.4264412, -0.0135958, 3.62475, -0.0395508, 3.62475, -1.0075073, 3.62475, -0.1726074, 3.62475, 0.389313, 3.62475, 1.648855, 3.62475, -3.7175572
0.4272353, -0.0132601, 3.6315, -0.0431519, 3.6315, -1.0128784, 3.6315, -0.1655884, 3.6315, 1.389313, 3.6315, 1.3664122, 3.6315, -3.6030533
0.4280294, -0.0146029, 3.63825, -0.0414429, 3.63825, -1.0092163, 3.63825, -0.1647949, 3.63825, 1.9160305, 3.63825, 1.0076336, 3.63825, -3.6412213
0.4288235, -0.0135958, 3.645, -0.0440674, 3.645, -1.0054932, 3.645, -0.168335, 3.645, 1.7633588, 3.645, 0.3816794, 3.645, -3.610687
0.4296176, -0.0129244, 3.65175, -0.052124, 3.65175, -1.0079346, 3.65175, -0.1539307, 3.65175, 1.7328244, 3.65175, 0.4732825, 3.65175, -3.5877862
0.4304118, -0.0130922, 3.6585, -0.0454712, 3.6585, -1.0057983, 3.6585, -0.1677856, 3.6585, 2.1450381, 3.6585, -0.259542, 3.6585, -3.5419848
0.4312059, -0.0135958, 3.66525, -0.0410767, 3.66525, -1.0082397, 3.66525, -0.1652832, 3.66525, 1.7633588, 3.66525, -0.7328244, 3.66525, -3.4732823
0.432, -0.0115816, 3.672, -0.0268555, 3.672, -1.0084839, 3.672, -0.1647339, 3.672, 1.870229, 3.672, -0.2977099, 3.672, -3.3053436
0.4327941, -0.0092317, 3.67875, -0.0252075, 3.67875, -1.0056763, 3.67875, -0.1712646, 3.67875, 2.1603053, 3.67875, -0.1908397, 3.67875, -3.1984732
0.4335882, -0.0062104, 3.6855, -0.0218506, 3.6855, -1.0025024, 3.6855, -0.1702881, 3.6855, 1.870229, 3.6855, 0.1068702, 3.6855, -3.221374
0.4343824, -0.0082246, 3.69225, -0.0279541, 3.69225, -1.0053101, 3.69225, -0.1698608, 3.69225, 1.9160305, 3.69225, 1.1679389, 3.69225, -3.1603053
0.4351765, -0.0135958, 3.699, -0.0313721, 3.699, -1.0072021, 3.699, -0.1697998, 3.699, 2.5419848, 3.699, 1.6793894, 3.699, -2.8854961
0.4359706, -0.0109102, 3.70575, -0.0234985, 3.70575, -1.003479, 3.70575, -0.1728516, 3.70575, 2.3664122, 3.70575, 1.908397, 3.70575, -2.8396947
0.4367647, -0.0140993, 3.7125, -0.0359497, 3.7125, -1.0022583, 3.7125, -0.170166, 3.7125, 2.5038168, 3.7125, 1.9007634, 3.7125, -3.0534351
0.4375588, -0.0132601, 3.71925, -0.0536499, 3.71925, -1.0010986, 3.71925, -0.1661377, 3.71925, 2.6870229, 3.71925, 2.129771, 3.71925, -3.0229008
0.4383529, -0.0109102, 3.726, -0.0532837, 3.726, -1.0046387, 3.726, -0.1673584, 3.726, 2.389313, 3.726, 1.6946565, 3.726, -2.8931298
0.4391471, -0.0119173, 3.73275, -0.0494385, 3.73275, -0.9998779, 3.73275, -0.177124, 3.73275, 2.5114503, 3.73275, 0.7557252, 3.73275, -3
0.4399412, -0.0125887, 3.7395, -0.0405273, 3.7395, -1.0025024, 3.7395, -0.1728516, 3.7395, 2.4732823, 3.7395, 1.1068702, 3.7395, -3.0992367
0.4407353, -0.0171206, 3.74625, -0.0361328, 3.74625, -1.0050049, 3.74625, -0.1685791, 3.74625, 2.4961832, 3.74625, 1.1832061, 3.74625, -3.1374047
0.4415294, -0.0176242, 3.753, -0.0391235, 3.753, -1.0078735, 3.753, -0.1608887, 3.753, 2.8625953, 3.753, 1.9541985, 3.753, -3.2900763
0.4423235, -0.0184634, 3.75975, -0.0390625, 3.75975, -1.0075684, 3.75975, -0.1675415, 3.75975, 3.0992367, 3.75975, 2.1832061, 3.75975, -3.1526718
0.4431176, -0.0196384, 3.7665, -0.0384521, 3.7665, -1.007019, 3.7665, -0.1661987, 3.7665, 2.610687, 3.7665, 1.7099236, 3.7665, -3.2061069
0.4439118, -0.0154421, 3.77325, -0.0427246, 3.77325, -1.0050659, 3.77325, -0.1542969, 3.77325, 2.3282442, 3.77325, 1.2671756, 3.77325, -3.3587787
0.4447059, -0.0146029, 3.78, -0.0327148, 3.78, -1.0042725, 3.78, -0.1610718, 3.78, 2.7480917, 3.78, 0.8854962, 3.78, -3.1984732
0.4455, -0.0176242, 3.78675, -0.0307617, 3.78675, -1.0003662, 3.78675, -0.1586914, 3.78675, 2.1908398, 3.78675, 1.2900764, 3.78675, -3.0152671
0.4462941, -0.0203098, 3.7935, -0.0232544, 3.7935, -1.0025024, 3.7935, -0.1577148, 3.7935, 2.3358779, 3.7935, 1.3740458, 3.7935, -2.8931298
0.4470882, -0.0201419, 3.80025, -0.020752, 3.80025, -1.0011597, 3.80025, -0.15271, 3.80025, 2.1984732, 3.80025, 1.5343511, 3.80025, -2.9465649
0.4478824, -0.0172885, 3.807, -0.0231934, 3.807, -0.9935303, 3.807, -0.1621704, 3.807, 2.8549619, 3.807, 1.6412214, 3.807, -2.8015268
0.4486765, -0.0179599, 3.81375, -0.0287476, 3.81375, -0.9988403, 3.81375, -0.1565552, 3.81375, 2.9694657, 3.81375, 2.2824428, 3.81375, -2.5648854
0.4494706, -0.0213169, 3.8205, -0.0288696, 3.8205, -0.998291, 3.8205, -0.1582031, 3.8205, 2.9389312, 3.8205, 2.2519083, 3.8205, -2.8854961
0.4502647, -0.0172885, 3.82725, -0.024231, 3.82725, -1.0021362, 3.82725, -0.1650391, 3.82725, 2.8549619, 3.82725, 2.2748091, 3.82725, -2.8549619
0.4510588, -0.0162814, 3.834, -0.0220337, 3.834, -1.0014038, 3.834, -0.163147, 3.834, 2.3664122, 3.834, 2.4122138, 3.834, -2.8625953
0.4518529, -0.0216526, 3.84075, -0.0255737, 3.84075, -1.0027466, 3.84075, -0.1567383, 3.84075, 1.9847329, 3.84075, 2.0305343, 3.84075, -3.1679389
0.4526471, -0.0223239, 3.8475, -0.0307007, 3.8475, -1.0028076, 3.8475, -0.1548462, 3.8475, 1.6793894, 3.8475, 1.6641221, 3.8475, -3.0687022
0.4534412, -0.0236667, 3.85425, -0.0265503, 3.85425, -1.0001831, 3.85425, -0.1557617, 3.85425, 1.6793894, 3.85425, 1.1984733, 3.85425, -2.9923663
0.4542353, -0.0229953, 3.861, -0.0269775, 3.861, -0.9962158, 3.861, -0.1618652, 3.861, 1.4656489, 3.861, 0.6793893, 3.861, -3.1526718
0.4550294, -0.023331, 3.86775, -0.0256348, 3.86775, -0.9992065, 3.86775, -0.1564941, 3.86775, 1.2137405, 3.86775, 1.4274809, 3.86775, -3.1755726
0.4558235, -0.023331, 3.8745, -0.0251465, 3.8745, -1.0019531, 3.8745, -0.1552734, 3.8745, 1.2519084, 3.8745, 1.7709924, 3.8745, -3.2061069
0.4566176, -0.0231632, 3.88125, -0.0291138, 3.88125, -0.999939, 3.88125, -0.1578979, 3.88125, 1.9694656, 3.88125, 2.5419848, 3.88125, -3.1832061
0.4574118, -0.0256809, 3.888, -0.0328979, 3.888, -1.0023193, 3.888, -0.1640625, 3.888, 2.4503818, 3.888, 1.610687, 3.888, -2.8931298
0.4582059, -0.0229953, 3.89475, -0.034668, 3.89475, -1.005127, 3.89475, -0.1633911, 3.89475, 1.9694656, 3.89475, 1.610687, 3.89475, -2.8931298
0.459, -0.0179599, 3.9015, -0.0463257, 3.9015, -1.006897, 3.9015, -0.1619263, 3.9015, 1.0992366, 3.9015, 1.519084, 3.9015, -2.6564887
0.4597941, -0.0193027, 3.90825, -0.0532837, 3.90825, -1.0120239, 3.90825, -0.1638794, 3.90825, 1.0992366, 3.90825, 1.6793894, 3.90825, -2.961832
0.4605882, -0.018967, 3.915, -0.0584717, 3.915, -1.0106201, 3.915, -0.171814, 3.915, 1.1145039, 3.915, 2, 3.915, -2.8015268
0.4613824, -0.0169528, 3.92175, -0.055603, 3.92175, -1.0132446, 3.92175, -0.1680908, 3.92175, 0.961832, 3.92175, 1.8549619, 3.92175, -2.7938931
0.4621765, -0.0164492, 3.9285, -0.0551147, 3.9285, -1.0164185, 3.9285, -0.1710205, 3.9285, 0.9541985, 3.9285, 1.038168, 3.9285, -2.6335878
0.4629706, -0.0162814, 3.93525, -0.0513306, 3.93525, -1.0161133, 3.93525, -0.1644287, 3.93525, 1.1221374, 3.93525, 0.7862595, 3.93525, -2.5801528
0.4637647, -0.0179599, 3.942, -0.0472412, 3.942, -1.0084229, 3.942, -0.1618042, 3.942, 1.2290076, 3.942, 1.0687023, 3.942, -2.7862597
0.4645588, -0.0149386, 3.94875, -0.0376587, 3.94875, -1.003418, 3.94875, -0.1670532, 3.94875, 1.1603054, 3.94875, 0.3740458, 3.94875, -2.6793892
0.4653529, -0.011078, 3.9555, -0.0330811, 3.9555, -1.0053101, 3.9555, -0.1654663, 3.9555, 1.1526718, 3.9555, 0.480916, 3.9555, -2.6946564
0.4661471, -0.0105745, 3.96225, -0.0270996, 3.96225, -0.999939, 3.96225, -0.1730347, 3.96225, 1.5267175, 3.96225, 0.5648855, 3.96225, -2.7328243
0.4669412, -0.0146029, 3.969, -0.0245972, 3.969, -0.999939, 3.969, -0.1644287, 3.969, 1.2824427, 3.969, 0.5877863, 3.969, -2.5725191
0.4677353, -0.008896, 3.97575, -0.0219116, 3.97575, -0.9962158, 3.97575, -0.1732788, 3.97575, 1.9389313, 3.97575, -0.221374, 3.97575, -2.1526718
0.4685294, -0.0082246, 3.9825, -0.0348511, 3.9825, -1.0076904, 3.9825, -0.1627808, 3.9825, 1.5419847, 3.9825, 0.3587786, 3.9825, -2.389313
0.4693235, -0.0075532, 3.98925, -0.0265503, 3.98925, -1.0054321, 3.98925, -0.1737671, 3.98925, 1.5496184, 3.98925, 0.3587786, 3.98925, -2.3129771
0.4701176, -0.0082246, 3.996, -0.0195923, 3.996, -1.0046387, 3.996, -0.1732788, 3.996, 1.519084, 3.996, 0.6030535, 3.996, -2.3206108
0.4709118, -0.0072175, 4.00275, -0.0219727, 4.00275, -1.0055542, 4.00275, -0.1711426, 4.00275, 1.3282443, 4.00275, 0.6259542, 4.00275, -2.519084
0.4717059, -0.0036927, 4.0095, -0.0275269, 4.0095, -1.0080566, 4.0095, -0.1646118, 4.0095, 1.6412214, 4.0095, 1.4580153, 4.0095, -2.6564887
0.4725, -0.002182, 4.01625, -0.02771, 4.01625, -1.005249, 4.01625, -0.1609497, 4.01625, 1.7480916, 4.01625, 1.778626, 4.01625, -2.6870229
0.4732941, -0.0035248, 4.023, -0.032959, 4.023, -1.0031738, 4.023, -0.1660767, 4.023, 1.3206106, 4.023, 1.4198474, 4.023, -2.9007633
0.4740882, -0.0025177, 4.02975, -0.0404663, 4.02975, -1.0032349, 4.02975, -0.1556396, 4.02975, 1.2748091, 4.02975, 1.3664122, 4.02975, -3.1526718
0.4748824, -0.0041962, 4.0365, -0.0418091, 4.0365, -1.0032349, 4.0365, -0.1656494, 4.0365, 2.0992367, 4.0365, 1.9847329, 4.0365, -3.2137403
0.4756765, -0.0048676, 4.04325, -0.0428467, 4.04325, -1.0013428, 4.04325, -0.1624756, 4.04325, 1.6335878, 4.04325, 1.5725191, 4.04325, -3.2748091
0.4764706, -0.0031891, 4.05, -0.0431519, 4.05, -1.0043945, 4.05, -0.1698608, 4.05, 1.7251909, 4.05, 0.4656489, 4.05, -3.4427481
0.4772647, -0.0038605, 4.05675, -0.0429077, 4.05675, -1.00177, 4.05675, -0.1755981, 4.05675, 1.9236641, 4.05675, 0.9694657, 4.05675, -3.3282442
0.4780588, -0.0045319, 4.0635, -0.0432129, 4.0635, -1.0093994, 4.0635, -0.1677246, 4.0635, 1.870229, 4.0635, 1.1450381, 4.0635, -3.0763359
0.4788529, -0.0093996, 4.07025, -0.0441895, 4.07025, -1.0097046, 4.07025, -0.166687, 4.07025, 1.961832, 4.07025, 1.2442749, 4.07025, -3.2061069
0.4796471, -0.0102388, 4.077, -0.0438232, 4.077, -1.007019, 4.077, -0.1661987, 4.077, 2.1450381, 4.077, 1.221374, 4.077, -3.1068702
0.4804412, -0.0095674, 4.08375, -0.0444336, 4.08375, -1.0123901, 4.08375, -0.1550293, 4.08375, 1.8931298, 4.08375, 1.4580153, 4.08375, -3.0458016
0.4812353, -0.0095674, 4.0905, -0.0467529, 4.0905, -1.0087891, 4.0905, -0.1578979, 4.0905, 2.4961832, 4.0905, 1.4045801, 4.0905, -2.9770992
0.4820294, -0.0149386, 4.09725, -0.036377, 4.09725, -1.0049438, 4.09725, -0.156311, 4.09725, 2.0992367, 4.09725, 1.3664122, 4.09725, -2.8320611
0.4828235, -0.0176242, 4.104, -0.0278931, 4.104, -1.0060425, 4.104, -0.1593018, 4.104, 2.1068702, 4.104, 1.5267175, 4.104, -2.9541984
0.4836176, -0.0213169, 4.11075, -0.0302124, 4.11075, -1.0005493, 4.11075, -0.1691895, 4.11075, 2.4656489, 4.11075, 2.0687022, 4.11075, -2.8396947
0.4844118, -0.0198062, 4.1175, -0.0281372, 4.1175, -0.9993286, 4.1175, -0.1583252, 4.1175, 2.0763359, 4.1175, 1.6564885, 4.1175, -2.7709923
0.4852059, -0.0199741, 4.12425, -0.0281982, 4.12425, -1.0037842, 4.12425, -0.1600952, 4.12425, 2.1526718, 4.12425, 1.9694656, 4.12425, -3.2366412
0.486, -0.0162814, 4.131, -0.0241699, 4.131, -0.9987183, 4.131, -0.1607056, 4.131, 1.9923664, 4.131, 2.0534351, 4.131, -3.1450381
0.4867941, -0.0139315, 4.13775, -0.0258179, 4.13775, -0.9962158, 4.13775, -0.1610718, 4.13775, 1.7022901, 4.13775, 2.129771, 4.13775, -3.4427481
0.4875882, -0.0125887, 4.1445, -0.036377, 4.1445, -0.9996338, 4.1445, -0.1610718, 4.1445, 1.9770992, 4.1445, 2.221374, 4.1445, -3.3587787
0.4883824, -0.0129244, 4.15125, -0.0365601, 4.15125, -1.0046997, 4.15125, -0.1520386, 4.15125, 1.8854961, 4.15125, 2.4274809, 4.15125, -3.1221373
0.4891765, -0.0162814, 4.158, -0.0324097, 4.158, -1.0067139, 4.158, -0.1464844, 4.158, 2.4580152, 4.158, 1.7633588, 4.158, -3.2900763
0.4899706, -0.0203098, 4.16475, -0.0359497, 4.16475, -1.0006104, 4.16475, -0.1411133, 4.16475, 2.778626, 4.16475, 1.1068702, 4.16475, -3.3435113
0.4907647, -0.0236667, 4.1715, -0.0334473, 4.1715, -0.9995728, 4.1715, -0.1538086, 4.1715, 3.6793892, 4.1715, 0.4427481, 4.1715, -3.1450381
0.4915588, -0.0229953, 4.17825, -0.02948, 4.17825, -1.0007324, 4.17825, -0.1608887, 4.17825, 2.4198472, 4.17825, 0.2671756, 4.17825, -2.9465649
0.4923529, -0.0199741, 4.185, -0.0288696, 4.185, -1.0025635, 4.185, -0.1502686, 4.185, 1.8778626, 4.185, 0.6183206, 4.185, -3.2061069
0.4931471, -0.0182956, 4.19175, -0.0322266, 4.19175, -1.000061, 4.19175, -0.1621094, 4.19175, 1.4961832, 4.19175, 0.4427481, 4.19175, -3.0534351
0.4939412, -0.0186313, 4.1985, -0.0358276, 4.1985, -1.0016479, 4.1985, -0.1619263, 4.1985, 1.0458015, 4.1985, -0.0610687, 4.1985, -3.1984732
0.4947353, -0.0182956, 4.20525, -0.0445557, 4.20525, -1.0039062, 4.20525, -0.1610107, 4.20525, 0.0839695, 4.20525, 1.5114504, 4.20525, -3.3435113
0.4955294, -0.01561, 4.212, -0.0430908, 4.212, -1.0054321, 4.212, -0.1664429, 4.212, 0.3740458, 4.212, 1.9312977, 4.212, -3.2748091
0.4963235, -0.0151064, 4.21875, -0.0429688, 4.21875, -1.0096436, 4.21875, -0.1604614, 4.21875, -0.0992366, 4.21875, 1.5954199, 4.21875, -3.3358779
0.4971176, -0.0130922, 4.2255, -0.039978, 4.2255, -1.0124512, 4.2255, -0.1588135, 4.2255, -0.351145, 4.2255, 1.0458015, 4.2255, -3.3358779
0.4979118, -0.0135958, 4.23225, -0.0377197, 4.23225, -1.0081177, 4.23225, -0.1644897, 4.23225, 0.2442748, 4.23225, 1.5954199, 4.23225, -3.2824428
0.4987059, -0.0132601, 4.239, -0.0351562, 4.239, -1.0082397, 4.239, -0.1633301, 4.239, 0.9160305, 4.239, 0.9236641, 4.239, -2.9389312
0.4995, -0.0132601, 4.24575, -0.0348511, 4.24575, -1.0101318, 4.24575, -0.1574707, 4.24575, 1.129771, 4.24575, 1.519084, 4.24575, -2.9847329
0.5002941, -0.0119173, 4.2525, -0.0422974, 4.2525, -1.0064697, 4.2525, -0.1572266, 4.2525, 1.480916, 4.2525, 0.8854962, 4.2525, -2.908397
0.5010882, -0.0125887, 4.25925, -0.0438843, 4.25925, -1.0036011, 4.25925, -0.1651001, 4.25925, 2.5725191, 4.25925, 1.0076336, 4.25925, -2.5954199
0.5018824, -0.0184634, 4.266, -0.0455322, 4.266, -1.0042114, 4.266, -0.1663208, 4.266, 2.221374, 4.266, 1, 4.266, -2.5801528
0.5026765, -0.0154421, 4.27275, -0.0400391, 4.27275, -1.0067139, 4.27275, -0.1633911, 4.27275, 2.4427481, 4.27275, 0.0534351, 4.27275, -2.7099237
0.5034706, -0.0109102, 4.2795, -0.0337524, 4.2795, -1.0078125, 4.2795, -0.1638184, 4.2795, 2.4198472, 4.2795, 0.6717557, 4.2795, -2.8091602
0.5042647, -0.0162814, 4.28625, -0.02948, 4.28625, -1.0036011, 4.28625, -0.1655273, 4.28625, 2.3816793, 4.28625, 1.8167939, 4.28625, -2.6717558
0.5050588, -0.0219883, 4.293, -0.0307617, 4.293, -1.0036011, 4.293, -0.1681519, 4.293, 2.2900763, 4.293, 1.6717557, 4.293, -2.6412213
0.5058529, -0.0196384, 4.29975, -0.0438232, 4.29975, -1.0053101, 4.29975, -0.1590576, 4.29975, 1.7099236, 4.29975, 1.7480916, 4.29975, -2.7633588
0.5066471, -0.0193027, 4.3065, -0.0473633, 4.3065, -1.0065918, 4.3065, -0.1677856, 4.3065, 1.9694656, 4.3065, 1.6030535, 4.3065, -2.740458
0.5074412, -0.0209812, 4.31325, -0.0493164, 4.31325, -1.0080566, 4.31325, -0.1645508, 4.31325, 0.7709923, 4.31325, 1, 4.31325, -2.5725191
0.5082353, -0.0260166, 4.32, -0.048645, 4.32, -1.0079956, 4.32, -0.1621094, 4.32, 0.9007633, 4.32, 0.9160305, 4.32, -2.7175572
0.5090294, -0.0303807, 4.32675, -0.0462646, 4.32675, -1.0054932, 4.32675, -0.1645508, 4.32675, 0.8244275, 4.32675, 0.7251908, 4.32675, -2.870229
0.5098235, -0.0290379, 4.3335, -0.0440674, 4.3335, -1.0089111, 4.3335, -0.1548462, 4.3335, 0.7862595, 4.3335, 0.3587786, 4.3335, -2.9694657
0.5106176, -0.0226596, 4.34025, -0.0440674, 4.34025, -1.0081177, 4.34025, -0.1479492, 4.34025, 1.1755725, 4.34025, -0.5954198, 4.34025, -3.2290077
0.5114118, -0.0191348, 4.347, -0.0313721, 4.347, -0.9963989, 4.347, -0.1707764, 4.347, 1.4885496, 4.347, -1.6641221, 4.347, -3.1450381
0.5122059, -0.0169528, 4.35375, -0.0339355, 4.35375, -1.0007935, 4.35375, -0.1569824, 4.35375, 0.4885496, 4.35375, -2.0305343, 4.35375, -3.4122138
0.513, -0.0142672, 4.3605, -0.0395508, 4.3605, -1.0021362, 4.3605, -0.1554565, 4.3605, 0.2748092, 4.3605, -2.5419848, 4.3605, -3.5419848
0.5137941, -0.0142672, 4.36725, -0.0290527, 4.36725, -1.0048218, 4.36725, -0.1575317, 4.36725, 0.0916031, 4.36725, -2.5114503, 4.36725, -3.5496182
0.5145882, -0.0149386, 4.374, -0.0280151, 4.374, -1.0040894, 4.374, -0.1652222, 4.374, 0.4351145, 4.374, -2.4885497, 4.374, -3.5267177
0.5153824, -0.0130922, 4.38075, -0.0335693, 4.38075, -1.003479, 4.38075, -0.1672974, 4.38075, 0.6335878, 4.38075, -2.4580152, 4.38075, -3.5877862
0.5161765, -0.0149386, 4.3875, -0.0241699, 4.3875, -1.0057373, 4.3875, -0.1627808, 4.3875, 0.5725191, 4.3875, -1.5877863, 4.3875, -3.480916
0.5169706, -0.0139315, 4.39425, -0.0213013, 4.39425, -1.0020142, 4.39425, -0.1571045, 4.39425, 1.091603, 4.39425, -1.3282443, 4.39425, -3.1984732
0.5177647, -0.0164492, 4.401, -0.0254517, 4.401, -1.0020752, 4.401, -0.15625, 4.401, 1.3816794, 4.401, -1.0992366, 4.401, -3.4885497
0.5185588, -0.0152743, 4.40775, -0.0264893, 4.40775, -1.0064697, 4.40775, -0.1574097, 4.40775, 1.5801526, 4.40775, -0.7862595, 4.40775, -3.4045801
0.5193529, -0.0142672, 4.4145, -0.0299072, 4.4145, -1.0055542, 4.4145, -0.1539307, 4.4145, 1.351145, 4.4145, -0.221374, 4.4145, -3.3587787
0.5201471, -0.0124208, 4.42125, -0.0280762, 4.42125, -1.0014648, 4.42125, -0.1513062, 4.42125, 1.3587786, 4.42125, 0.610687, 4.42125, -3.480916
0.5209412, -0.0139315, 4.428, -0.0270386, 4.428, -0.9986572, 4.428, -0.1546021, 4.428, 1.389313, 4.428, 1.3587786, 4.428, -3.4885497
0.5217353, -0.0152743, 4.43475, -0.0284424, 4.43475, -0.9995728, 4.43475, -0.1497192, 4.43475, 1.038168, 4.43475, 1.6335878, 4.43475, -3.5343511
0.5225294, -0.0166171, 4.4415, -0.0336914, 4.4415, -0.9996338, 4.4415, -0.1553955, 4.4415, 0.9694657, 4.4415, 1.2137405, 4.4415, -3.480916
0.5233235, -0.0142672, 4.44825, -0.036499, 4.44825, -1.001709, 4.44825, -0.1573486, 4.44825, 1.2137405, 4.44825, 2.2366412, 4.44825, -3.5343511
0.5241176, -0.0146029, 4.455, -0.0410767, 4.455, -1.0063477, 4.455, -0.1549683, 4.455, 1.4198474, 4.455, 2.7709923, 4.455, -3.389313
0.5249118, -0.014435, 4.46175, -0.0473633, 4.46175, -1.0077515, 4.46175, -0.1467896, 4.46175, 2.3206108, 4.46175, 2.091603, 4.46175, -3.1603053
0.5257059, -0.0142672, 4.4685, -0.0528564, 4.4685, -1.0089722, 4.4685, -0.1704712, 4.4685, 2.6183207, 4.4685, 0.9847328, 4.4685, -3.2137403
0.5265, -0.0129244, 4.47525, -0.0575562, 4.47525, -1.0108643, 4.47525, -0.1613159, 4.47525, 2.4351146, 4.47525, 0.9312977, 4.47525, -3.0839694
0.5272941, -0.0152743, 4.482, -0.0488281, 4.482, -1.0090942, 4.482, -0.1656494, 4.482, 2.3053436, 4.482, 0.0916031, 4.482, -2.7251909
0.5280882, -0.0159457, 4.48875, -0.039856, 4.48875, -1.0112305, 4.48875, -0.1571655, 4.48875, 2.0687022, 4.48875, 0.3435115, 4.48875, -2.7022901
0.5288824, -0.012253, 4.4955, -0.0374146, 4.4955, -1.0065918, 4.4955, -0.1646729, 4.4955, 2.0152671, 4.4955, 0.4656489, 4.4955, -2.5648854
0.5296765, -0.0135958, 4.50225, -0.0402222, 4.50225, -1.0106201, 4.50225, -0.1610718, 4.50225, 1.9236641, 4.50225, 0.648855, 4.50225, -2.3358779
0.5304706, -0.0152743, 4.509, -0.036377, 4.509, -1.0101318, 4.509, -0.1559448, 4.509, 1.7480916, 4.509, 1.2061069, 4.509, -2.519084
0.5312647, -0.0169528, 4.51575, -0.03302, 4.51575, -1.0055542, 4.51575, -0.1691284, 4.51575, 1.5496184, 4.51575, 0.519084, 4.51575, -2.7633588
0.5320588, -0.0186313, 4.5225, -0.0385742, 4.5225, -1.0074463, 4.5225, -0.1640015, 4.5225, 1.5725191, 4.5225, -0.2519084, 4.5225, -2.5114503
0.5328529, -0.0135958, 4.52925, -0.0238647, 4.52925, -1.0068359, 4.52925, -0.1592407, 4.52925, 1.4274809, 4.52925, -0.0839695, 4.52925, -2.5877862
0.5336471, -0.0137636, 4.536, -0.0196533, 4.536, -1.0064087, 4.536, -0.156189, 4.536, 1.6564885, 4.536, -0.0534351, 4.536, -2.5114503
0.5344412, -0.012253, 4.54275, -0.0149536, 4.54275, -1.0023193, 4.54275, -0.1616821, 4.54275, 1.8854961, 4.54275, 0.0305344, 4.54275, -2.4656489
0.5352353, -0.0109102, 4.5495, -0.0198975, 4.5495, -0.9976196, 4.5495, -0.159729, 4.5495, 1.259542, 4.5495, 1.1374046, 4.5495, -2.740458
0.5360294, -0.0139315, 4.55625, -0.0275879, 4.55625, -1.0007324, 4.55625, -0.1568604, 4.55625, 0.9312977, 4.55625, 1.3053435, 4.55625, -2.7328243
0.5368235, -0.012253, 4.563, -0.0249023, 4.563, -1.0007324, 4.563, -0.1588745, 4.563, 0.3129771, 4.563, 1.4732825, 4.563, -2.8091602
0.5376176, -0.0112459, 4.56975, -0.0206299, 4.56975, -0.9973755, 4.56975, -0.1598511, 4.56975, 0.6412213, 4.56975, 1.5343511, 4.56975, -2.8549619
0.5384118, -0.0129244, 4.5765, -0.031189, 4.5765, -1.0033569, 4.5765, -0.1474609, 4.5765, 0.519084, 4.5765, 1.8167939, 4.5765, -2.8549619
0.5392059, -0.0151064, 4.58325, -0.0332031, 4.58325, -0.9992065, 4.58325, -0.1489258, 4.58325, 0.5267175, 4.58325, 1.8549619, 4.58325, -3.0076337
0.54, -0.0142672, 4.59, -0.0324097, 4.59, -1.0007324, 4.59, -0.1517334, 4.59, 0.7099237, 4.59, 2.221374, 4.59, -3.0534351
0.5407941, -0.0125887, 4.59675, -0.0344849, 4.59675, -1.0055542, 4.59675, -0.1505737, 4.59675, 0.519084, 4.59675, 1.9236641, 4.59675, -3.1450381
0.5415882, -0.0124208, 4.6035, -0.0407715, 4.6035, -0.9996948, 4.6035, -0.1464233, 4.6035, 0.0381679, 4.6035, 2.8549619, 4.6035, -3.0458016
0.5423824, -0.012253, 4.61025, -0.0407715, 4.61025, -1.0014648, 4.61025, -0.1488647, 4.61025, -0.259542, 4.61025, 3.2137403, 4.61025, -2.9007633
0.5431765, -0.0135958, 4.617, -0.0387573, 4.617, -1.0005493, 4.617, -0.1442871, 4.617, 0.221374, 4.617, 2.038168, 4.617, -3
0.5439706, -0.01561, 4.62375, -0.0373535, 4.62375, -1.0020142, 4.62375, -0.1394043, 4.62375, 0.5877863, 4.62375, 1.3969465, 4.62375, -3.0687022
0.5447647, -0.0135958, 4.6305, -0.0314941, 4.6305, -0.9991455, 4.6305, -0.1442871, 4.6305, 1.7251909, 4.6305, 1.1526718, 4.6305, -3.2366412
0.5455588, -0.0164492, 4.63725, -0.0273438, 4.63725, -0.9959717, 4.63725, -0.151062, 4.63725, 1.7557251, 4.63725, 1.8015267, 4.63725, -3.259542
0.5463529, -0.0182956, 4.644, -0.0391235, 4.644, -1.0042725, 4.644, -0.1514893, 4.644, 2.8091602, 4.644, 2.519084, 4.644, -2.9847329
0.5471471, -0.0182956, 4.65075, -0.0372314, 4.65075, -1.0016479, 4.65075, -0.1581421, 4.65075, 3.0305343, 4.65075, 2.2671757, 4.65075, -2.8778627
0.5479412, -0.0182956, 4.6575, -0.0296631, 4.6575, -1.0028687, 4.6575, -0.1645508, 4.6575, 3.1526718, 4.6575, 2.2061069, 4.6575, -2.7862597
0.5487353, -0.0198062, 4.66425, -0.0299072, 4.66425, -1.0021973, 4.66425, -0.168396, 4.66425, 3.0076337, 4.66425, 2.0152671, 4.66425, -2.6946564
0.5495294, -0.0213169, 4.671, -0.043457, 4.671, -1.0009155, 4.671, -0.1658325, 4.671, 2.351145, 4.671, 1.6870229, 4.671, -3.0839694
0.5503235, -0.018967, 4.67775, -0.0435791, 4.67775, -1.0066528, 4.67775, -0.1702881, 4.67775, 1.5648855, 4.67775, 1.2977099, 4.67775, -3.0076337
0.5511176, -0.0152743, 4.6845, -0.0419312, 4.6845, -1.0097046, 4.6845, -0.1624756, 4.6845, 0.9312977, 4.6845, 1.0229008, 4.6845, -2.9465649
0.5519118, -0.0146029, 4.69125, -0.0430908, 4.69125, -1.0105591, 4.69125, -0.1633301, 4.69125, 0.778626, 4.69125, 0.6564885, 4.69125, -3.1221373
0.5527059, -0.0135958, 4.698, -0.0443726, 4.698, -1.0064087, 4.698, -0.1656494, 4.698, 0.7328244, 4.698, -0.2061069, 4.698, -2.8091602
0.5535, -0.0105745, 4.70475, -0.0474243, 4.70475, -1.0106812, 4.70475, -0.1529541, 4.70475, 0.6564885, 4.70475, -0.7328244, 4.70475, -2.908397
0.5542941, -0.0097353, 4.7115, -0.039917, 4.7115, -1.0062256, 4.7115, -0.1640015, 4.7115, 0.3664122, 4.7115, -1.1374046, 4.7115, -3.1984732
0.5550882, -0.0117494, 4.71825, -0.0400391, 4.71825, -1.0076904, 4.71825, -0.1627197, 4.71825, 0.2366412, 4.71825, -0.8473282, 4.71825, -2.9694657
0.5558824, -0.0119173, 4.725, -0.0397949, 4.725, -1.0100708, 4.725, -0.1554565, 4.725, 0.6641222, 4.725, -0.6030535, 4.725, -3.129771
0.5566765, -0.0139315, 4.73175, -0.0402222, 4.73175, -1.0092773, 4.73175, -0.156311, 4.73175, 0.9923664, 4.73175, -0.6793893, 4.73175, -3.129771
0.5574706, -0.01561, 4.7385, -0.0409546, 4.7385, -1.0072021, 4.7385, -0.1569214, 4.7385, 1.4351145, 4.7385, -0.1450382, 4.7385, -3.0229008
0.5582647, -0.0152743, 4.74525, -0.0391846, 4.74525, -1.0056152, 4.74525, -0.1561279, 4.74525, 1.610687, 4.74525, -0.2519084, 4.74525, -3.0229008
0.5590588, -0.0164492, 4.752, -0.0323486, 4.752, -1.0062256, 4.752, -0.1558838, 4.752, 1.7099236, 4.752, -0.1221374, 4.752, -2.8549619
0.5598529, -0.0203098, 4.75875, -0.0285645, 4.75875, -1.001709, 4.75875, -0.1627197, 4.75875, 1.3816794, 4.75875, 0.1603053, 4.75875, -2.8167939
0.5606471, -0.0182956, 4.7655, -0.0402832, 4.7655, -1, 4.7655, -0.1629639, 4.7655, 1.1145039, 4.7655, 0.5114504, 4.7655, -2.8931298
0.5614412, -0.0162814, 4.77225, -0.039978, 4.77225, -1.0020142, 4.77225, -0.1585083, 4.77225, 1.389313, 4.77225, 0.648855, 4.77225, -2.9160306
0.5622353, -0.017792, 4.779, -0.0341187, 4.779, -1.0006104, 4.779, -0.1665649, 4.779, 1.610687, 4.779, 0.6641222, 4.779, -2.8473282
0.5630294, -0.0216526, 4.78575, -0.0296631, 4.78575, -1.0008545, 4.78575, -0.1640625, 4.78575, 1.3206106, 4.78575, 1.4503816, 4.78575, -3.0687022
0.5638235, -0.0226596, 4.7925, -0.0317383, 4.7925, -1.0004272, 4.7925, -0.1641235, 4.7925, 0.7862595, 4.7925, 1.870229, 4.7925, -3.2366412
0.5646176, -0.0213169, 4.79925, -0.0441284, 4.79925, -1.0025635, 4.79925, -0.1601562, 4.79925, 1.6030535, 4.79925, 2.2366412, 4.79925, -2.9923663
0.5654118, -0.0231632, 4.806, -0.0435181, 4.806, -1.0023804, 4.806, -0.1640015, 4.806, 1.8931298, 4.806, 1.8015267, 4.806, -2.961832
0.5662059, -0.0224918, 4.81275, -0.0464478, 4.81275, -1.0070801, 4.81275, -0.1531982, 4.81275, 2.0305343, 4.81275, 1.5801526, 4.81275, -3.1374047
0.567, -0.0248417, 4.8195, -0.0484009, 4.8195, -1.0046997, 4.8195, -0.1523438, 4.8195, 2.2824428, 4.8195, 1, 4.8195, -2.7480917
0.5677941, -0.0231632, 4.82625, -0.0426636, 4.82625, -1.0089111, 4.82625, -0.1482544, 4.82625, 2.8931298, 4.82625, 1.5419847, 4.82625, -2.6946564
0.5685882, -0.0162814, 4.833, -0.0349121, 4.833, -1.0061646, 4.833, -0.1499023, 4.833, 3.0992367, 4.833, 1.8320611, 4.833, -2.610687
0.5693824, -0.0149386, 4.83975, -0.0343018, 4.83975, -1.0053101, 4.83975, -0.1575928, 4.83975, 3.1526718, 4.83975, 1.4274809, 4.83975, -2.6412213
0.5701765, -0.018967, 4.8465, -0.0350342, 4.8465, -1.0026855, 4.8465, -0.1564941, 4.8465, 2.8244274, 4.8465, 1.5419847, 4.8465, -2.8015268
0.5709706, -0.0171206, 4.85325, -0.0302124, 4.85325, -1.0046997, 4.85325, -0.1502686, 4.85325, 2.610687, 4.85325, 1.8396946, 4.85325, -2.7480917
0.5717647, -0.0162814, 4.86, -0.0274048, 4.86, -1.0020142, 4.86, -0.1581421, 4.86, 2.9694657, 4.86, 1.2900764, 4.86, -2.8015268
0.5725588, -0.0176242, 4.86675, -0.0368042, 4.86675, -1.0022583, 4.86675, -0.1567993, 4.86675, 2.7251909, 4.86675, 1.038168, 4.86675, -2.961832
0.5733529, -0.0166171, 4.8735, -0.041687, 4.8735, -1.0030518, 4.8735, -0.1588745, 4.8735, 2, 4.8735, 0.3435115, 4.8735, -3.2137403
0.5741471, -0.0182956, 4.88025, -0.0435181, 4.88025, -1.005188, 4.88025, -0.1610718, 4.88025, 1.0305344, 4.88025, 0.6335878, 4.88025, -3.3129771
0.5749412, -0.0169528, 4.887, -0.0420532, 4.887, -1.0032959, 4.887, -0.163269, 4.887, 0.9236641, 4.887, 0.5419847, 4.887, -3.1221373
0.5757353, -0.0169528, 4.89375, -0.0418701, 4.89375, -1.0067139, 4.89375, -0.168396, 4.89375, 0.3129771, 4.89375, 0.1450382, 4.89375, -3.2824428
0.5765294, -0.014435, 4.9005, -0.0463257, 4.9005, -1.0101929, 4.9005, -0.1633301, 4.9005, -0.2748092, 4.9005, 0.870229, 4.9005, -3.2900763
0.5773235, -0.0139315, 4.90725, -0.0400391, 4.90725, -1.0091553, 4.90725, -0.1609497, 4.90725, -0.0916031, 4.90725, 1.3969465, 4.90725, -3.2442749
0.5781176, -0.0125887, 4.914, -0.0380249, 4.914, -1.0084229, 4.914, -0.1533203, 4.914, 0.0305344, 4.914, 1.6641221, 4.914, -3.4122138
0.5789118, -0.0112459, 4.92075, -0.0430298, 4.92075, -1.0075684, 4.92075, -0.1512451, 4.92075, 0.0152672, 4.92075, 1.3129771, 4.92075, -3.610687
0.5797059, -0.0095674, 4.9275, -0.0432129, 4.9275, -1.0064697, 4.9275, -0.1542969, 4.9275, 0.5038168, 4.9275, 0.9770992, 4.9275, -3.2900763
0.5805, -0.0068818, 4.93425, -0.0331421, 4.93425, -1.0044556, 4.93425, -0.1513672, 4.93425, 0.389313, 4.93425, 1.1679389, 4.93425, -3.3816793
0.5812941, -0.010071, 4.941, -0.0255737, 4.941, -1, 4.941, -0.1512451, 4.941, -0.2366412, 4.941, 1.1832061, 4.941, -3.6030533
0.5820882, -0.0112459, 4.94775, -0.0292969, 4.94775, -0.9980469, 4.94775, -0.1491089, 4.94775, -0.1145038, 4.94775, 1.4351145, 4.94775, -3.3435113
0.5828824, -0.0082246, 4.9545, -0.0383301, 4.9545, -1.0011597, 4.9545, -0.1383057, 4.9545, 0.5038168, 4.9545, 1.0839695, 4.9545, -3.3358779
0.5836765, -0.0072175, 4.96125, -0.0418701, 4.96125, -1.003479, 4.96125, -0.1506958, 4.96125, 1.519084, 4.96125, 0.0763359, 4.96125, -3.3435113
0.5844706, -0.0045319, 4.968, -0.0378418, 4.968, -1.0006104, 4.968, -0.1610107, 4.968, 1.7633588, 4.968, -0.0076336, 4.968, -3.1526718
0.5852647, -0.0070497, 4.97475, -0.0372314, 4.97475, -1.0053101, 4.97475, -0.1508179, 4.97475, 2.3129771, 4.97475, -0.1755725, 4.97475, -2.9770992
0.5860588, -0.0112459, 4.9815, -0.0407715, 4.9815, -1.0011597, 4.9815, -0.1517944, 4.9815, 3.2671757, 4.9815, 0, 4.9815, -3.2061069
0.5868529, -0.0112459, 4.98825, -0.0396118, 4.98825, -1.0028076, 4.98825, -0.1522217, 4.98825, 2.9770992, 4.98825, 0.1068702, 4.98825, -3.038168
0.5876471, -0.0095674, 4.995, -0.0361938, 4.995, -1.0047607, 4.995, -0.1488647, 4.995, 2.8320611, 4.995, -0.1374046, 4.995, -3.0229008
0.5884412, -0.0105745, 5.00175, -0.0342407, 5.00175, -1.0050659, 5.00175, -0.1504517, 5.00175, 2.3129771, 5.00175, 0.0534351, 5.00175, -2.8625953
0.5892353, -0.0082246, 5.0085, -0.0256348, 5.0085, -1.0026245, 5.0085, -0.1552124, 5.0085, 2.3053436, 5.0085, 1.129771, 5.0085, -2.7557251
0.5900294, -0.0104067, 5.01525, -0.03125, 5.01525, -1.0013428, 5.01525, -0.1504517, 5.01525, 2.1984732, 5.01525, 2.1145039, 5.01525, -3.0534351
0.5908235, -0.0109102, 5.022, -0.024353, 5.022, -0.9981079, 5.022, -0.1624146, 5.022, 1.648855, 5.022, 2.3206108, 5.022, -2.961832
0.5916176, -0.011078, 5.02875, -0.0299683, 5.02875, -1.0045776, 5.02875, -0.1639404, 5.02875, 1.351145, 5.02875, 3.0992367, 5.02875, -3.0534351
0.5924118, -0.0115816, 5.0355, -0.0339355, 5.0355, -1.0085449, 5.0355, -0.1578979, 5.0355, 0.9465649, 5.0355, 3.221374, 5.0355, -2.7862597
0.5932059, -0.0149386, 5.04225, -0.0321655, 5.04225, -1.0067749, 5.04225, -0.1619873, 5.04225, 0.7175573, 5.04225, 3.0992367, 5.04225, -2.9847329
0.594, -0.0149386, 5.049, -0.0411987, 5.049, -1.0097656, 5.049, -0.1550903, 5.049, 0.5648855, 5.049, 3.1984732, 5.049, -3.0076337
0.5947941, -0.012253, 5.05575, -0.0422363, 5.05575, -1.0110474, 5.05575, -0.1575317, 5.05575, 0.5496183, 5.05575, 2.8244274, 5.05575, -3.1908398
0.5955882, -0.0119173, 5.0625, -0.0407715, 5.0625, -1.0100098, 5.0625, -0.1514893, 5.0625, 0.5648855, 5.0625, 2.3358779, 5.0625, -2.9923663
0.5963824, -0.0152743, 5.06925, -0.0403442, 5.06925, -1.0083618, 5.06925, -0.1539307, 5.06925, 1.0992366, 5.06925, 1.3358779, 5.06925, -2.8931298
0.5971765, -0.0119173, 5.076, -0.0351562, 5.076, -1.0059814, 5.076, -0.1484985, 5.076, 1.0610687, 5.076, -0.0839695, 5.076, -2.9541984
0.5979706, -0.0115816, 5.08275, -0.0300293, 5.08275, -1.0079956, 5.08275, -0.1481934, 5.08275, 1.2442749, 5.08275, -0.6717557, 5.08275, -2.6030533
0.5987647, -0.0159457, 5.0895, -0.0324097, 5.0895, -1.0042725, 5.0895, -0.1641235, 5.0895, 2.0839694, 5.0895, 0.0305344, 5.0895, -2.6870229
0.5995588, -0.0135958, 5.09625, -0.0324097, 5.09625, -1.0020142, 5.09625, -0.1696167, 5.09625, 1.5496184, 5.09625, -0.0534351, 5.09625, -2.4351146
0.6003529, -0.0102388, 5.103, -0.0311279, 5.103, -1.0087891, 5.103, -0.1583862, 5.103, 1.3358779, 5.103, 0.4198473, 5.103, -2.1679389
0.6011471, -0.0114137, 5.10975, -0.0322266, 5.10975, -1.0065308, 5.10975, -0.1618652, 5.10975, 1.4351145, 5.10975, 0.2824427, 5.10975, -2.3816793
0.6019412, -0.0135958, 5.1165, -0.038208, 5.1165, -1.0057373, 5.1165, -0.1655884, 5.1165, 1.648855, 5.1165, 0.778626, 5.1165, -2.3206108
0.6027353, -0.0095674, 5.12325, -0.0422363, 5.12325, -1.0064087, 5.12325, -0.1652832, 5.12325, 1.3969465, 5.12325, 1.0534351, 5.12325, -2.2900763
0.6035294, -0.008896, 5.13, -0.0435791, 5.13, -1.0067749, 5.13, -0.1607666, 5.13, 1.1755725, 5.13, 1.7480916, 5.13, -2.5954199
0.6043235, -0.0077211, 5.13675, -0.0525513, 5.13675, -1.0070801, 5.13675, -0.159668, 5.13675, 1.6183206, 5.13675, 2.2137403, 5.13675, -2.5801528
0.6051176, -0.0031891, 5.1435, -0.0470581, 5.1435, -1.0040894, 5.1435, -0.1621094, 5.1435, 1.8396946, 5.1435, 2.0992367, 5.1435, -2.5725191
0.6059118, -0.0048676, 5.15025, -0.0369263, 5.15025, -1.0025024, 5.15025, -0.1602173, 5.15025, 1.3664122, 5.15025, 1.5343511, 5.15025, -2.8320611
0.6067059, -0.008896, 5.157, -0.0362549, 5.157, -1.00354, 5.157, -0.1572876, 5.157, 1.2290076, 5.157, 0.9465649, 5.157, -2.870229
0.6075, -0.0083925, 5.16375, -0.039917, 5.16375, -1.0026245, 5.16375, -0.1571045, 5.16375, 1.389313, 5.16375, 0.2290076, 5.16375, -2.9770992
0.6082941, -0.0095674, 5.1705, -0.0348511, 5.1705, -1.0002441, 5.1705, -0.1607056, 5.1705, 0.5725191, 5.1705, -0.1374046, 5.1705, -3.2900763
0.6090882, -0.0112459, 5.17725, -0.039978, 5.17725, -1.0007324, 5.17725, -0.1571045, 5.17725, -0.1832061, 5.17725, 0.3816794, 5.17725, -3.1984732
0.6098824, -0.0203098, 5.184, -0.0430908, 5.184, -1.0031128, 5.184, -0.1543579, 5.184, 0.5496183, 5.184, 0.4885496, 5.184, -3.259542
0.6106765, -0.0221561, 5.19075, -0.0336914, 5.19075, -1.0045776, 5.19075, -0.1610107, 5.19075, 0.4732825, 5.19075, -0.0916031, 5.19075, -3.2900763
0.6114706, -0.0199741, 5.1975, -0.0375366, 5.1975, -1.0042114, 5.1975, -0.1506958, 5.1975, 0.5496183, 5.1975, 0.3816794, 5.1975, -3.3435113
0.6122647, -0.0223239, 5.20425, -0.0400391, 5.20425, -1.005249, 5.20425, -0.1429443, 5.20425, 0.961832, 5.20425, 0.6564885, 5.20425, -3.129771
0.6130588, -0.0226596, 5.211, -0.0341797, 5.211, -1.0050049, 5.211, -0.1451416, 5.211, 0.8091603, 5.211, 0.7480916, 5.211, -3.129771
0.6138529, -0.0223239, 5.21775, -0.0336914, 5.21775, -1.0006104, 5.21775, -0.1530151, 5.21775, 0.7709923, 5.21775, 0.1679389, 5.21775, -3.091603
0.6146471, -0.0219883, 5.2245, -0.0374146, 5.2245, -1.0032959, 5.2245, -0.1500854, 5.2245, 0.9847328, 5.2245, -0.4045801, 5.2245, -3.2290077
0.6154412, -0.0204776, 5.23125, -0.0379639, 5.23125, -1.003479, 5.23125, -0.151123, 5.23125, 0.9923664, 5.23125, -0.1603053, 5.23125, -3.3740458
0.6162353, -0.0182956, 5.238, -0.0354614, 5.238, -1.0037842, 5.238, -0.1554565, 5.238, 1.0534351, 5.238, -0.3587786, 5.238, -3.1374047
0.6170294, -0.017792, 5.24475, -0.03302, 5.24475, -1.0039673, 5.24475, -0.1516113, 5.24475, 0.8778626, 5.24475, -0.0152672, 5.24475, -3.0534351
0.6178235, -0.0182956, 5.2515, -0.0336914, 5.2515, -1.0040894, 5.2515, -0.1512451, 5.2515, 0.2900763, 5.2515, -0.5572519, 5.2515, -3.0763359
0.6186176, -0.018967, 5.25825, -0.0460815, 5.25825, -1.0016479, 5.25825, -0.1591187, 5.25825, 0.1374046, 5.25825, -0.2900763, 5.25825, -3.2824428
0.6194118, -0.0231632, 5.265, -0.0369263, 5.265, -1.003479, 5.265, -0.1633911, 5.265, 0.2442748, 5.265, 0.3282443, 5.265, -3.0458016
0.6202059, -0.018967, 5.27175, -0.0296021, 5.27175, -1.0050049, 5.27175, -0.1636963, 5.27175, 0.0229008, 5.27175, 0.6412213, 5.27175, -3.1908398
0.621, -0.0206455, 5.2785, -0.0351562, 5.2785, -1.0064087, 5.2785, -0.1576538, 5.2785, 0.3206107, 5.2785, 0.5801527, 5.2785, -3.1755726
0.6217941, -0.0243381, 5.28525, -0.0421753, 5.28525, -1.0120239, 5.28525, -0.1469116, 5.28525, 0.6870229, 5.28525, 1.480916, 5.28525, -3.3206108
0.6225882, -0.0203098, 5.292, -0.0474243, 5.292, -1.0079346, 5.292, -0.1499634, 5.292, 1.7251909, 5.292, 2.1908398, 5.292, -3.389313
0.6233824, -0.0152743, 5.29875, -0.0466919, 5.29875, -1.0058594, 5.29875, -0.1595459, 5.29875, 2.0152671, 5.29875, 1.6030535, 5.29875, -2.9847329
0.6241765, -0.0112459, 5.3055, -0.0481567, 5.3055, -1.0067749, 5.3055, -0.1509399, 5.3055, 1.961832, 5.3055, 1.9312977, 5.3055, -3.2519083
0.6249706, -0.0119173, 5.31225, -0.0472412, 5.31225, -1.0070801, 5.31225, -0.15271, 5.31225, 1.7328244, 5.31225, 1.8931298, 5.31225, -3.0305343
0.6257647, -0.0115816, 5.319, -0.0444336, 5.319, -1.0106812, 5.319, -0.1571655, 5.319, 2.2366412, 5.319, 2.5419848, 5.319, -3.0763359
0.6265588, -0.0115816, 5.32575, -0.0430298, 5.32575, -1.0053711, 5.32575, -0.1576538, 5.32575, 2.0839694, 5.32575, 2.2900763, 5.32575, -3.0992367
0.6273529, -0.0164492, 5.3325, -0.0466309, 5.3325, -1.0079956, 5.3325, -0.1471558, 5.3325, 1.9694656, 5.3325, 2.221374, 5.3325, -3.0458016
0.6281471, -0.0159457, 5.33925, -0.045105, 5.33925, -1.0117798, 5.33925, -0.1533203, 5.33925, 1.9923664, 5.33925, 1.2977099, 5.33925, -2.6870229
0.6289412, -0.01561, 5.346, -0.0427246, 5.346, -1.0072632, 5.346, -0.1549072, 5.346, 1.8473282, 5.346, 1.0992366, 5.346, -2.5954199
0.6297353, -0.0129244, 5.35275, -0.0361328, 5.35275, -1.0053101, 5.35275, -0.1580811, 5.35275, 1.9770992, 5.35275, 1.2442749, 5.35275, -2.6183207
0.6305294, -0.0102388, 5.3595, -0.0333252, 5.3595, -1.0054321, 5.3595, -0.1558838, 5.3595, 1.8931298, 5.3595, 0.8625954, 5.3595, -2.7099237
0.6313235, -0.0127565, 5.36625, -0.0244141, 5.36625, -1.0031738, 5.36625, -0.1497192, 5.36625, 1.8320611, 5.36625, 0.6259542, 5.36625, -2.8854961
0.6321176, -0.0135958, 5.373, -0.0178223, 5.373, -0.9976196, 5.373, -0.1537476, 5.373, 1.9389313, 5.373, 0.9389313, 5.373, -2.961832
0.6329118, -0.0152743, 5.37975, -0.0197754, 5.37975, -0.9936523, 5.37975, -0.1593018, 5.37975, 2.1832061, 5.37975, 0.9694657, 5.37975, -2.8396947
0.6337059, -0.0132601, 5.3865, -0.0299072, 5.3865, -0.9957275, 5.3865, -0.1551514, 5.3865, 2.0076337, 5.3865, 1.1984733, 5.3865, -2.8778627
0.6345, -0.0129244, 5.39325, -0.0344238, 5.39325, -0.9973755, 5.39325, -0.1516113, 5.39325, 2.0992367, 5.39325, 0.4122137, 5.39325, -3.1832061
0.6352941, -0.0119173, 5.4, -0.0317993, 5.4, -0.9977417, 5.4, -0.1601562, 5.4, 2.5496182, 5.4, 0.2442748, 5.4, -2.8778627
0.6360882, -0.011078, 5.40675, -0.024231, 5.40675, -0.998291, 5.40675, -0.1541748, 5.40675, 2.4427481, 5.40675, 1.4961832, 5.40675, -2.8167939
0.6368824, -0.0149386, 5.4135, -0.0308228, 5.4135, -0.9955444, 5.4135, -0.1613159, 5.4135, 2.1755726, 5.4135, 2.7175572, 5.4135, -2.8931298
0.6376765, -0.014435, 5.42025, -0.0422363, 5.42025, -0.9998169, 5.42025, -0.1500244, 5.42025, 1.8320611, 5.42025, 3.4580152, 5.42025, -2.6793892
0.6384706, -0.01561, 5.427, -0.0385132, 5.427, -1.0059814, 5.427, -0.1456909, 5.427, 2.0839694, 5.427, 3.6335878, 5.427, -2.8854961
0.6392647, -0.0152743, 5.43375, -0.0391846, 5.43375, -1.0042725, 5.43375, -0.1452026, 5.43375, 2.3587787, 5.43375, 3.5648854, 5.43375, -2.908397
0.6400588, -0.0161135, 5.4405, -0.0477905, 5.4405, -1.006897, 5.4405, -0.1482544, 5.4405, 2.6335878, 5.4405, 3.9847329, 5.4405, -2.9847329
0.6408529, -0.0176242, 5.44725, -0.0455322, 5.44725, -1.0065308, 5.44725, -0.145813, 5.44725, 2.7099237, 5.44725, 3.8473282, 5.44725, -2.8473282
0.6416471, -0.0193027, 5.454, -0.0446167, 5.454, -1.0048828, 5.454, -0.1548462, 5.454, 2.519084, 5.454, 3.5572519, 5.454, -2.6946564
0.6424412, -0.018967, 5.46075, -0.0495605, 5.46075, -1.012146, 5.46075, -0.1456299, 5.46075, 2.091603, 5.46075, 3.4045801, 5.46075, -2.8473282
0.6432353, -0.0169528, 5.4675, -0.0496216, 5.4675, -1.0105591, 5.4675, -0.1467896, 5.4675, 1.908397, 5.4675, 2.9236641, 5.4675, -2.908397
0.6440294, -0.014435, 5.47425, -0.0432739, 5.47425, -1.0081177, 5.47425, -0.1513062, 5.47425, 2.2366412, 5.47425, 2.2748091, 5.47425, -3.0763359
0.6448235, -0.014435, 5.481, -0.045105, 5.481, -1.0081177, 5.481, -0.1509399, 5.481, 2.0610688, 5.481, 2.0534351, 5.481, -3.1526718
0.6456176, -0.0142672, 5.48775, -0.0421143, 5.48775, -1.0060425, 5.48775, -0.1567993, 5.48775, 2.1603053, 5.48775, 1.5038168, 5.48775, -3.0839694
0.6464118, -0.0162814, 5.4945, -0.0411377, 5.4945, -1.0054321, 5.4945, -0.1605835, 5.4945, 2.2442749, 5.4945, 0.1908397, 5.4945, -2.480916
0.6472059, -0.0169528, 5.50125, -0.024353, 5.50125, -1.0081177, 5.50125, -0.15802, 5.50125, 2.0076337, 5.50125, -0.1068702, 5.50125, -2.4961832
0.648, -0.0216526, 5.508, -0.0211792, 5.508, -1.0042725, 5.508, -0.1646118, 5.508, 1.6946565, 5.508, -0.1755725, 5.508, -2.6183207
0.6487941, -0.0219883, 5.51475, -0.0349121, 5.51475, -1.0036011, 5.51475, -0.1553955, 5.51475, 1.1679389, 5.51475, 0.6564885, 5.51475, -2.8931298
0.6495882, -0.0229953, 5.5215, -0.034729, 5.5215, -1.0039673, 5.5215, -0.1542969, 5.5215, 1.2061069, 5.5215, 1.4961832, 5.5215, -2.7022901
0.6503824, -0.0246738, 5.52825, -0.0415039, 5.52825, -1.0039673, 5.52825, -0.1585693, 5.52825, 1.221374, 5.52825, 2.0839694, 5.52825, -3.0305343
0.6511765, -0.026688, 5.535, -0.0478516, 5.535, -1.0039673, 5.535, -0.1583252, 5.535, 1.0992366, 5.535, 1.7633588, 5.535, -2.9007633
0.6519706, -0.0229953, 5.54175, -0.0464478, 5.54175, -1.0054932, 5.54175, -0.1573486, 5.54175, 0.4503817, 5.54175, 1.8778626, 5.54175, -2.8473282
0.6527647, -0.0216526, 5.5485, -0.0462646, 5.5485, -1.0079346, 5.5485, -0.1511841, 5.5485, -0.3358779, 5.5485, 1.9007634, 5.5485, -3.1679389
0.6535588, -0.0206455, 5.55525, -0.0436401, 5.55525, -1.0046997, 5.55525, -0.1520386, 5.55525, -0.3282443, 5.55525, 2.1450381, 5.55525, -3.0687022
0.6543529, -0.0203098, 5.562, -0.0322876, 5.562, -1.0073242, 5.562, -0.1602783, 5.562, 0.1068702, 5.562, 1.4961832, 5.562, -3.1526718
0.6551471, -0.0179599, 5.56875, -0.0369873, 5.56875, -1.0073242, 5.56875, -0.1539307, 5.56875, 0.0381679, 5.56875, 1.389313, 5.56875, -3.2290077
0.6559412, -0.0176242, 5.5755, -0.0442505, 5.5755, -1.0075073, 5.5755, -0.1601562, 5.5755, 0.7938932, 5.5755, 0.7251908, 5.5755, -2.9160306
0.6567353, -0.0172885, 5.58225, -0.0425415, 5.58225, -1.0043335, 5.58225, -0.1616821, 5.58225, 0.6870229, 5.58225, 0.648855, 5.58225, -2.908397
0.6575294, -0.0203098, 5.589, -0.0516357, 5.589, -1.0091553, 5.589, -0.1591187, 5.589, 0.6030535, 5.589, 0.648855, 5.589, -3.0076337
0.6583235, -0.0191348, 5.59575, -0.0548706, 5.59575, -1.0122681, 5.59575, -0.1581421, 5.59575, 1.129771, 5.59575, 0.8854962, 5.59575, -3.038168
0.6591176, -0.0203098, 5.6025, -0.0463867, 5.6025, -1.0072632, 5.6025, -0.15271, 5.6025, 2.2519083, 5.6025, 0.7480916, 5.6025, -2.7480917
0.6599118, -0.0209812, 5.60925, -0.0421753, 5.60925, -1.0076294, 5.60925, -0.149292, 5.60925, 2.870229, 5.60925, 0.4274809, 5.60925, -2.9312978
0.6607059, -0.0218204, 5.616, -0.0429077, 5.616, -1.0072021, 5.616, -0.1504517, 5.616, 3.0610688, 5.616, 0.0534351, 5.616, -2.870229
0.6615, -0.0191348, 5.62275, -0.045105, 5.62275, -1.0041504, 5.62275, -0.1497803, 5.62275, 2.8931298, 5.62275, 0.5648855, 5.62275, -2.8396947
0.6622941, -0.0162814, 5.6295, -0.0418091, 5.6295, -1.0033569, 5.6295, -0.1501465, 5.6295, 2.6259542, 5.6295, 0.5572519, 5.6295, -2.8320611
0.6630882, -0.0166171, 5.63625, -0.0394897, 5.63625, -0.9998169, 5.63625, -0.1542358, 5.63625, 2.2061069, 5.63625, -0.4274809, 5.63625, -3.1526718
0.6638824, -0.0146029, 5.643, -0.0426636, 5.643, -1.0009155, 5.643, -0.1529541, 5.643, 1.389313, 5.643, -0.8244275, 5.643, -3.0229008
0.6646765, -0.0169528, 5.64975, -0.0308228, 5.64975, -1.0015869, 5.64975, -0.1572876, 5.64975, 1.0152671, 5.64975, -1.4885496, 5.64975, -2.8396947
0.6654706, -0.0176242, 5.6565, -0.020752, 5.6565, -1.0007935, 5.6565, -0.1650391, 5.6565, 0.4274809, 5.6565, -0.9770992, 5.6565, -3.3816793
0.6662647, -0.0135958, 5.66325, -0.026062, 5.66325, -1.0018921, 5.66325, -0.1566162, 5.66325, 0.1679389, 5.66325, -0.6335878, 5.66325, -3.2824428
0.6670588, -0.0115816, 5.67, -0.0258789, 5.67, -1.006897, 5.67, -0.1572266, 5.67, 0.5725191, 5.67, -0.0229008, 5.67, -3.0534351
0.6678529, -0.0140993, 5.67675, -0.0327759, 5.67675, -1.0063477, 5.67675, -0.1522827, 5.67675, 0.3969466, 5.67675, 0.5954198, 5.67675, -3.2977099
0.6686471, -0.0119173, 5.6835, -0.0444336, 5.6835, -1.0043945, 5.6835, -0.1573486, 5.6835, 1.4885496, 5.6835, 1.7633588, 5.6835, -3.0305343
0.6694412, -0.0095674, 5.69025, -0.0428467, 5.69025, -1.0056763, 5.69025, -0.1520386, 5.69025, 1.8167939, 5.69025, 1.8396946, 5.69025, -3.1679389
0.6702353, -0.0083925, 5.697, -0.0441284, 5.697, -1.0030518, 5.697, -0.1605225, 5.697, 1.6717557, 5.697, 1.3282443, 5.697, -3.2290077
0.6710294, -0.0115816, 5.70375, -0.0473022, 5.70375, -1.0057373, 5.70375, -0.1502075, 5.70375, 0.9160305, 5.70375, 2.1679389, 5.70375, -3.2671757
0.6718235, -0.0159457, 5.7105, -0.0438232, 5.7105, -1.0046387, 5.7105, -0.1445312, 5.7105, 1.2824427, 5.7105, 1.7557251, 5.7105, -3.389313
0.6726176, -0.0146029, 5.71725, -0.0519409, 5.71725, -1.006897, 5.71725, -0.1488037, 5.71725, 1.6030535, 5.71725, 1.0305344, 5.71725, -3.5114503
0.6734118, -0.0139315, 5.724, -0.0515137, 5.724, -1.0097656, 5.724, -0.1437988, 5.724, 1.4274809, 5.724, 1.3282443, 5.724, -3.1068702
0.6742059, -0.0119173, 5.73075, -0.0421143, 5.73075, -1.0084229, 5.73075, -0.1497192, 5.73075, 1.7175573, 5.73075, 0.6793893, 5.73075, -3.2137403
0.675, -0.0115816, 5.7375, -0.0419922, 5.7375, -1.0057983, 5.7375, -0.1582642, 5.7375, 1.6335878, 5.7375, 0.0381679, 5.7375, -3.2748091
