Application:, Trigno Discover (1.7.0)
Date/Time:, 2026/9/9 上午 10:55:15
Collection Length (seconds):, 41.958
Avanti Sensor 11 (69574)
sensor mode: 50
EMG 1 Time Series (s), EMG 1 (mV), ACC X Time Series (s), ACC X (G), ACC Y Time Series (s), ACC Y (G), ACC Z Time Series (s), ACC Z (G), GYRO X Time Series (s), GYRO X (deg/s), GYRO Y Time Series (s), GYRO Y (deg/s), GYRO Z Time Series (s), GYRO Z (deg/s)
, 1259.2593 Hz, , 148.1481 Hz, , 148.1481 Hz, , 148.1481 Hz, , 148.1481 Hz, , 148.1481 Hz, , 148.1481 Hz
0, -0.018967, 0, 0.015564, 0, -1.0078735, 0, -0.076355, 0, 1.3664122, 0, 0.740458, 0, -3.2290077
0.0007941, -0.018967, 0.00675, 0.0140991, 0.00675, -1.0053711, 0.00675, -0.0751343, 0.00675, 1.221374, 0.00675, 0.5877863, 0.00675, -3.3282442
0.0015882, -0.0157778, 0.0135, 0.0130005, 0.0135, -1.0075684, 0.0135, -0.0782471, 0.0135, 1.3664122, 0.0135, 0.6641222, 0.0135, -3.1908398
0.0023824, -0.01561, 0.02025, 0.0134277, 0.02025, -1.0076904, 0.02025, -0.0770264, 0.02025, 1.3358779, 0.02025, 0.4656489, 0.02025, -3.2442749
0.0031765, -0.0213169, 0.027, 0.0108643, 0.027, -1.0076294, 0.027, -0.076416, 0.027, 1.221374, 0.027, 0.5572519, 0.027, -3.1832061
0.0039706, -0.0219883, 0.03375, 0.0147095, 0.03375, -1.0061646, 0.03375, -0.0759888, 0.03375, 1.4122137, 0.03375, 0.7175573, 0.03375, -3.0229008
0.0047647, -0.0199741, 0.0405, 0.0161743, 0.0405, -1.0072632, 0.0405, -0.0764771, 0.0405, 1.2519084, 0.0405, 0.7251908, 0.0405, -3.2671757
0.0055588, -0.018967, 0.04725, 0.0177612, 0.04725, -1.0059814, 0.04725, -0.0787964, 0.04725, 1.3053435, 0.04725, 0.7709923, 0.04725, -3.1832061
0.0063529, -0.0157778, 0.054, 0.0134888, 0.054, -1.0040283, 0.054, -0.0786133, 0.054, 1.2748091, 0.054, 0.8473282, 0.054, -3.2900763
0.0071471, -0.0137636, 0.06075, 0.0153198, 0.06075, -1.0088501, 0.06075, -0.0797119, 0.06075, 1.0305344, 0.06075, 0.740458, 0.06075, -3.1908398
0.0079412, -0.0129244, 0.0675, 0.0145264, 0.0675, -1.0078735, 0.0675, -0.0776978, 0.0675, 1, 0.0675, 0.8167939, 0.0675, -3.1679389
0.0087353, -0.0115816, 0.07425, 0.0125122, 0.07425, -1.0071411, 0.07425, -0.0783081, 0.07425, 0.9541985, 0.07425, 0.8244275, 0.07425, -3.129771
0.0095294, -0.0095674, 0.081, 0.0142822, 0.081, -1.0078735, 0.081, -0.078125, 0.081, 0.8778626, 0.081, 0.7022901, 0.081, -3.1526718
0.0103235, -0.0082246, 0.08775, 0.0139771, 0.08775, -1.0067139, 0.08775, -0.0801392, 0.08775, 0.9847328, 0.08775, 0.648855, 0.08775, -3.1679389
0.0111176, -0.0099031, 0.0945, 0.0162354, 0.0945, -1.0066528, 0.0945, -0.0765381, 0.0945, 1.038168, 0.0945, 0.7709923, 0.0945, -3.1221373
0.0119118, -0.008896, 0.10125, 0.0177002, 0.10125, -1.0081787, 0.10125, -0.0786133, 0.10125, 1.1221374, 0.10125, 0.7328244, 0.10125, -3.091603
0.0127059, -0.0068818, 0.108, 0.0150146, 0.108, -1.0063477, 0.108, -0.0776367, 0.108, 0.9465649, 0.108, 0.8931298, 0.108, -3.3129771
0.0135, -0.0090639, 0.11475, 0.0140381, 0.11475, -1.0087891, 0.11475, -0.0748901, 0.11475, 0.9923664, 0.11475, 0.5725191, 0.11475, -3.2442749
0.0142941, -0.0105745, 0.1215, 0.0180054, 0.1215, -1.0083008, 0.1215, -0.0769653, 0.1215, 1.0229008, 0.1215, 0.4503817, 0.1215, -3.2748091
0.0150882, -0.0132601, 0.12825, 0.0169067, 0.12825, -1.0083008, 0.12825, -0.0784912, 0.12825, 1.2061069, 0.12825, 0.5572519, 0.12825, -3.2061069
0.0158824, -0.0149386, 0.135, 0.0170288, 0.135, -1.0081787, 0.135, -0.0799561, 0.135, 1.0152671, 0.135, 0.8167939, 0.135, -3.0458016
0.0166765, -0.0162814, 0.14175, 0.0147095, 0.14175, -1.0061035, 0.14175, -0.0732422, 0.14175, 0.9694657, 0.14175, 0.8854962, 0.14175, -3.1755726
0.0174706, -0.0146029, 0.1485, 0.0161743, 0.1485, -1.0090332, 0.1485, -0.0703125, 0.1485, 1.0610687, 0.1485, 0.7175573, 0.1485, -3.3282442
0.0182647, -0.0149386, 0.15525, 0.0140991, 0.15525, -1.0074463, 0.15525, -0.0714111, 0.15525, 1.0763359, 0.15525, 0.9541985, 0.15525, -3.1984732
0.0190588, -0.0169528, 0.162, 0.0150757, 0.162, -1.0085449, 0.162, -0.0742188, 0.162, 1, 0.162, 0.8931298, 0.162, -3.2290077
0.0198529, -0.0193027, 0.16875, 0.015625, 0.16875, -1.0085449, 0.16875, -0.0758057, 0.16875, 0.9389313, 0.16875, 0.778626, 0.16875, -3.259542
0.0206471, -0.0216526, 0.1755, 0.012146, 0.1755, -1.0076904, 0.1755, -0.0749512, 0.1755, 1.1908396, 0.1755, 0.9007633, 0.1755, -3.1755726
0.0214412, -0.0203098, 0.18225, 0.0144653, 0.18225, -1.0050659, 0.18225, -0.0762939, 0.18225, 1.1603054, 0.18225, 0.8931298, 0.18225, -3.1068702
0.0222353, -0.018967, 0.189, 0.0134888, 0.189, -1.0061035, 0.189, -0.0752563, 0.189, 1.2442749, 0.189, 0.7557252, 0.189, -3.2977099
0.0230294, -0.0182956, 0.19575, 0.0115967, 0.19575, -1.0064697, 0.19575, -0.0753784, 0.19575, 1.1603054, 0.19575, 0.8091603, 0.19575, -3.3969467
0.0238235, -0.0216526, 0.2025, 0.0131836, 0.2025, -1.0075073, 0.2025, -0.0759277, 0.2025, 1.1526718, 0.2025, 0.8320611, 0.2025, -3.2290077
0.0246176, -0.0196384, 0.20925, 0.0134888, 0.20925, -1.0093994, 0.20925, -0.0770264, 0.20925, 1.1068702, 0.20925, 0.9847328, 0.20925, -3.1068702
0.0254118, -0.01561, 0.216, 0.0131226, 0.216, -1.0075073, 0.216, -0.0767212, 0.216, 1.2824427, 0.216, 1.0610687, 0.216, -3.1832061
0.0262059, -0.0130922, 0.22275, 0.015625, 0.22275, -1.0081177, 0.22275, -0.0770874, 0.22275, 1.0839695, 0.22275, 0.9923664, 0.22275, -3.1603053
0.027, -0.0129244, 0.2295, 0.0145264, 0.2295, -1.0054932, 0.2295, -0.0735474, 0.2295, 1.2519084, 0.2295, 0.961832, 0.2295, -3.0305343
0.0277941, -0.0176242, 0.23625, 0.0140991, 0.23625, -1.0073853, 0.23625, -0.0750732, 0.23625, 1.1374046, 0.23625, 0.9236641, 0.23625, -3.0687022
0.0285882, -0.0199741, 0.243, 0.0148315, 0.243, -1.005188, 0.243, -0.0741577, 0.243, 1.2900764, 0.243, 0.9694657, 0.243, -2.9847329
0.0293824, -0.0179599, 0.24975, 0.0187988, 0.24975, -1.0081177, 0.24975, -0.0776978, 0.24975, 1.1526718, 0.24975, 0.9923664, 0.24975, -3.0534351
0.0301765, -0.0142672, 0.2565, 0.0149536, 0.2565, -1.0073242, 0.2565, -0.0767822, 0.2565, 0.9236641, 0.2565, 0.908397, 0.2565, -3.1450381
0.0309706, -0.0095674, 0.26325, 0.0148315, 0.26325, -1.0106812, 0.26325, -0.0795288, 0.26325, 0.9465649, 0.26325, 1.0687023, 0.26325, -3.0992367
0.0317647, -0.0117494, 0.27, 0.0150146, 0.27, -1.008606, 0.27, -0.078064, 0.27, 0.961832, 0.27, 0.9236641, 0.27, -3.1832061
0.0325588, -0.0182956, 0.27675, 0.013916, 0.27675, -1.0064697, 0.27675, -0.0768433, 0.27675, 0.908397, 0.27675, 0.9694657, 0.27675, -3.0305343
0.0333529, -0.018967, 0.2835, 0.0105591, 0.2835, -1.0054932, 0.2835, -0.0778198, 0.2835, 0.6946565, 0.2835, 0.6641222, 0.2835, -2.8320611
0.0341471, -0.0229953, 0.29025, 0.0100098, 0.29025, -1.0075073, 0.29025, -0.0772095, 0.29025, 0.7328244, 0.29025, 0.4961832, 0.29025, -2.9923663
0.0349412, -0.023331, 0.297, 0.0131836, 0.297, -1.0088501, 0.297, -0.0722656, 0.297, 0.8854962, 0.297, 0.2900763, 0.297, -3.0610688
0.0357353, -0.018967, 0.30375, 0.0177612, 0.30375, -1.006958, 0.30375, -0.072876, 0.30375, 0.9389313, 0.30375, 0.4732825, 0.30375, -3.2137403
0.0365294, -0.018967, 0.3105, 0.0172119, 0.3105, -1.0076904, 0.3105, -0.076416, 0.3105, 0.9160305, 0.3105, 0.740458, 0.3105, -3.0305343
0.0373235, -0.018967, 0.31725, 0.0177612, 0.31725, -1.0058594, 0.31725, -0.0769043, 0.31725, 0.9465649, 0.31725, 0.7251908, 0.31725, -3.0763359
0.0381176, -0.017792, 0.324, 0.0174561, 0.324, -1.0093384, 0.324, -0.0754395, 0.324, 1.221374, 0.324, 0.7175573, 0.324, -3.1221373
0.0389118, -0.0129244, 0.33075, 0.0137329, 0.33075, -1.0094604, 0.33075, -0.0773315, 0.33075, 1.0076336, 0.33075, 0.778626, 0.33075, -3.1984732
0.0397059, -0.0102388, 0.3375, 0.0115356, 0.3375, -1.0059204, 0.3375, -0.078186, 0.3375, 0.9694657, 0.3375, 0.7557252, 0.3375, -3.2366412
0.0405, -0.008896, 0.34425, 0.010437, 0.34425, -1.0036621, 0.34425, -0.0751953, 0.34425, 1.0687023, 0.34425, 0.7862595, 0.34425, -3.2748091
0.0412941, -0.0092317, 0.351, 0.0132446, 0.351, -1.0064697, 0.351, -0.0761108, 0.351, 1, 0.351, 0.3664122, 0.351, -3.0229008
0.0420882, -0.012253, 0.35775, 0.0135498, 0.35775, -1.0084839, 0.35775, -0.0765381, 0.35775, 0.9541985, 0.35775, 0.4427481, 0.35775, -3.1679389
0.0428824, -0.0159457, 0.3645, 0.0122681, 0.3645, -1.0098877, 0.3645, -0.0776978, 0.3645, 0.9770992, 0.3645, 0.4961832, 0.3645, -3.2977099
0.0436765, -0.0169528, 0.37125, 0.0163574, 0.37125, -1.010376, 0.37125, -0.0784302, 0.37125, 1.1832061, 0.37125, 0.7709923, 0.37125, -3.1832061
0.0444706, -0.0162814, 0.378, 0.0159302, 0.378, -1.0062866, 0.378, -0.0794678, 0.378, 1.0687023, 0.378, 0.8625954, 0.378, -3.221374
0.0452647, -0.0135958, 0.38475, 0.0167236, 0.38475, -1.0078735, 0.38475, -0.0783081, 0.38475, 1.2824427, 0.38475, 0.7328244, 0.38475, -3.0839694
0.0460588, -0.0142672, 0.3915, 0.0170898, 0.3915, -1.006958, 0.3915, -0.0776978, 0.3915, 1.2900764, 0.3915, 0.8320611, 0.3915, -3.2137403
0.0468529, -0.0129244, 0.39825, 0.0158081, 0.39825, -1.0078125, 0.39825, -0.0823975, 0.39825, 1.091603, 0.39825, 0.6412213, 0.39825, -3.091603
0.0476471, -0.0115816, 0.405, 0.0148926, 0.405, -1.0093384, 0.405, -0.0802612, 0.405, 1.1755725, 0.405, 0.6259542, 0.405, -3.3969467
0.0484412, -0.0146029, 0.41175, 0.0130615, 0.41175, -1.0065918, 0.41175, -0.078064, 0.41175, 1.3129771, 0.41175, 0.8244275, 0.41175, -3.1145039
0.0492353, -0.0146029, 0.4185, 0.013916, 0.4185, -1.0063477, 0.4185, -0.0823975, 0.4185, 1.3740458, 0.4185, 0.8244275, 0.4185, -3.3053436
0.0500294, -0.012253, 0.42525, 0.015564, 0.42525, -1.0032349, 0.42525, -0.0799561, 0.42525, 1.4122137, 0.42525, 0.9236641, 0.42525, -3.0534351
0.0508235, -0.012253, 0.432, 0.0136108, 0.432, -1.0056763, 0.432, -0.0811157, 0.432, 1.5801526, 0.432, 0.9847328, 0.432, -3.221374
0.0516176, -0.0135958, 0.43875, 0.0112915, 0.43875, -1.0085449, 0.43875, -0.0784912, 0.43875, 1.4351145, 0.43875, 0.9694657, 0.43875, -3.2519083
0.0524118, -0.0139315, 0.4455, 0.0089722, 0.4455, -1.0066528, 0.4455, -0.0789185, 0.4455, 1.4045801, 0.4455, 0.9160305, 0.4455, -3.2824428
0.0532059, -0.0119173, 0.45225, 0.0081787, 0.45225, -1.0078125, 0.45225, -0.0761719, 0.45225, 1.351145, 0.45225, 0.7251908, 0.45225, -3.0992367
0.054, -0.0114137, 0.459, 0.0126343, 0.459, -1.0068359, 0.459, -0.0751953, 0.459, 1.2824427, 0.459, 0.5496183, 0.459, -3.2290077
0.0547941, -0.0119173, 0.46575, 0.0112915, 0.46575, -1.0090332, 0.46575, -0.0764771, 0.46575, 1.3969465, 0.46575, 0.5648855, 0.46575, -3.2290077
0.0555882, -0.0109102, 0.4725, 0.013916, 0.4725, -1.0079346, 0.4725, -0.0785522, 0.4725, 1.3664122, 0.4725, 0.6870229, 0.4725, -3.2366412
0.0563824, -0.0082246, 0.47925, 0.0126953, 0.47925, -1.0126343, 0.47925, -0.0762939, 0.47925, 1.4427481, 0.47925, 0.961832, 0.47925, -3.389313
0.0571765, -0.0115816, 0.486, 0.0132446, 0.486, -1.008667, 0.486, -0.0759277, 0.486, 1.4045801, 0.486, 0.9160305, 0.486, -3.4045801
0.0579706, -0.0146029, 0.49275, 0.0152588, 0.49275, -1.0058594, 0.49275, -0.0778809, 0.49275, 1.3053435, 0.49275, 0.9007633, 0.49275, -3.4961832
0.0587647, -0.0162814, 0.4995, 0.0139771, 0.4995, -1.0068359, 0.4995, -0.0767212, 0.4995, 1.3053435, 0.4995, 0.8320611, 0.4995, -3.3053436
0.0595588, -0.0129244, 0.50625, 0.0144043, 0.50625, -1.005249, 0.50625, -0.0749512, 0.50625, 1.2900764, 0.50625, 0.7938932, 0.50625, -3.3053436
0.0603529, -0.0117494, 0.513, 0.0134277, 0.513, -1.0045776, 0.513, -0.0748291, 0.513, 1.3206106, 0.513, 0.908397, 0.513, -3.3129771
0.0611471, -0.011078, 0.51975, 0.0160522, 0.51975, -1.003479, 0.51975, -0.0755615, 0.51975, 1.4045801, 0.51975, 0.7175573, 0.51975, -3.0992367
0.0619412, -0.0137636, 0.5265, 0.0146484, 0.5265, -1.0065918, 0.5265, -0.0753784, 0.5265, 1.5038168, 0.5265, 0.6946565, 0.5265, -3.3435113
0.0627353, -0.0129244, 0.53325, 0.0137939, 0.53325, -1.0083008, 0.53325, -0.0707397, 0.53325, 1.3587786, 0.53325, 0.6641222, 0.53325, -3.389313
0.0635294, -0.014435, 0.54, 0.015686, 0.54, -1.0056763, 0.54, -0.0759277, 0.54, 1.4122137, 0.54, 0.7022901, 0.54, -3.3435113
0.0643235, -0.0135958, 0.54675, 0.0181885, 0.54675, -1.0081177, 0.54675, -0.0716553, 0.54675, 1.259542, 0.54675, 0.8091603, 0.54675, -3.1984732
0.0651176, -0.0102388, 0.5535, 0.0181885, 0.5535, -1.0119629, 0.5535, -0.0704956, 0.5535, 1.4351145, 0.5535, 0.9007633, 0.5535, -3.259542
0.0659118, -0.0102388, 0.56025, 0.0183716, 0.56025, -1.0103149, 0.56025, -0.0717163, 0.56025, 1.221374, 0.56025, 0.8167939, 0.56025, -3.2900763
0.0667059, -0.0112459, 0.567, 0.0152588, 0.567, -1.0073242, 0.567, -0.0722656, 0.567, 1.1526718, 0.567, 0.8549618, 0.567, -3.3206108
0.0675, -0.0104067, 0.57375, 0.015564, 0.57375, -1.008728, 0.57375, -0.0736694, 0.57375, 0.6641222, 0.57375, 0.8320611, 0.57375, -3.351145
0.0682941, -0.012253, 0.5805, 0.0132446, 0.5805, -1.0075684, 0.5805, -0.0725708, 0.5805, 0.4351145, 0.5805, 0.5038168, 0.5805, -3.2748091
0.0690882, -0.0146029, 0.58725, 0.0152588, 0.58725, -1.0095215, 0.58725, -0.0741577, 0.58725, 0.3206107, 0.58725, 0.2748092, 0.58725, -3.3587787
0.0698824, -0.0166171, 0.594, 0.0119019, 0.594, -1.006897, 0.594, -0.0773315, 0.594, 0.1374046, 0.594, 0.480916, 0.594, -3.2748091
0.0706765, -0.0151064, 0.60075, 0.0117798, 0.60075, -1.010376, 0.60075, -0.0737915, 0.60075, 0.2366412, 0.60075, 0.3740458, 0.60075, -3.1984732
0.0714706, -0.0142672, 0.6075, 0.0110474, 0.6075, -1.0079956, 0.6075, -0.0725098, 0.6075, 0.1145038, 0.6075, 0.5801527, 0.6075, -3.3053436
0.0722647, -0.01561, 0.61425, 0.0129395, 0.61425, -1.0081787, 0.61425, -0.0768433, 0.61425, 0.1145038, 0.61425, 0.6946565, 0.61425, -3.1832061
0.0730588, -0.0164492, 0.621, 0.0096436, 0.621, -1.0085449, 0.621, -0.0793457, 0.621, 0.1984733, 0.621, 0.2442748, 0.621, -3.1908398
0.0738529, -0.0142672, 0.62775, 0.0100708, 0.62775, -1.008667, 0.62775, -0.0778809, 0.62775, 0.1832061, 0.62775, 0.1145038, 0.62775, -3.1374047
0.0746471, -0.0157778, 0.6345, 0.015686, 0.6345, -1.0075684, 0.6345, -0.0736084, 0.6345, 0.3969466, 0.6345, 0.3358779, 0.6345, -3.1984732
0.0754412, -0.0149386, 0.64125, 0.0171509, 0.64125, -1.0076294, 0.64125, -0.0776367, 0.64125, 0.5267175, 0.64125, 0.3816794, 0.64125, -3.1832061
0.0762353, -0.0154421, 0.648, 0.019043, 0.648, -1.0078125, 0.648, -0.0756836, 0.648, 0.648855, 0.648, 0.4580153, 0.648, -3.221374
0.0770294, -0.0169528, 0.65475, 0.0198364, 0.65475, -1.0058594, 0.65475, -0.0809937, 0.65475, 0.5343512, 0.65475, 0.6564885, 0.65475, -3.221374
0.0778235, -0.018967, 0.6615, 0.0200195, 0.6615, -1.0063477, 0.6615, -0.0835571, 0.6615, 0.6793893, 0.6615, 0.8015267, 0.6615, -3.1221373
0.0786176, -0.0203098, 0.66825, 0.0200195, 0.66825, -1.0079956, 0.66825, -0.0778198, 0.66825, 0.6259542, 0.66825, 0.908397, 0.66825, -3.091603
0.0794118, -0.0196384, 0.675, 0.0189209, 0.675, -1.006958, 0.675, -0.0814819, 0.675, 0.7557252, 0.675, 1.1679389, 0.675, -3.0687022
0.0802059, -0.018967, 0.68175, 0.012207, 0.68175, -1.006897, 0.68175, -0.0784912, 0.68175, 0.8625954, 0.68175, 1.091603, 0.68175, -3.1603053
0.081, -0.0206455, 0.6885, 0.0116577, 0.6885, -1.003479, 0.6885, -0.0791016, 0.6885, 0.5801527, 0.6885, 0.8244275, 0.6885, -3.2366412
0.0817941, -0.021149, 0.69525, 0.0076904, 0.69525, -1.0062256, 0.69525, -0.081543, 0.69525, 0.1603053, 0.69525, 0.3740458, 0.69525, -3.3206108
0.0825882, -0.0179599, 0.702, 0.0084839, 0.702, -1.0071411, 0.702, -0.0795288, 0.702, -0.1374046, 0.702, 0.1832061, 0.702, -3.2900763
0.0833824, -0.0172885, 0.70875, 0.0098267, 0.70875, -1.0042114, 0.70875, -0.0774536, 0.70875, -0.3816794, 0.70875, 0.351145, 0.70875, -3.2137403
0.0841765, -0.0152743, 0.7155, 0.0137939, 0.7155, -1.0101929, 0.7155, -0.0790405, 0.7155, -0.6641222, 0.7155, 0.2137405, 0.7155, -3.0076337
0.0849706, -0.0135958, 0.72225, 0.0195312, 0.72225, -1.0116577, 0.72225, -0.0780029, 0.72225, -0.5572519, 0.72225, 0.4427481, 0.72225, -2.9160306
0.0857647, -0.0095674, 0.729, 0.0215454, 0.729, -1.0089111, 0.729, -0.0761719, 0.729, -0.740458, 0.729, 1.1374046, 0.729, -3.1984732
0.0865588, -0.0105745, 0.73575, 0.0186157, 0.73575, -1.008667, 0.73575, -0.0795898, 0.73575, -0.8396947, 0.73575, 1.3358779, 0.73575, -2.8396947
0.0873529, -0.0092317, 0.7425, 0.0211792, 0.7425, -1.0092773, 0.7425, -0.0811157, 0.7425, -0.3206107, 0.7425, 1.2900764, 0.7425, -2.7099237
0.0881471, -0.0142672, 0.74925, 0.024292, 0.74925, -1.012207, 0.74925, -0.0808105, 0.74925, -0.3816794, 0.74925, 1.5343511, 0.74925, -2.8015268
0.0889412, -0.0115816, 0.756, 0.0267334, 0.756, -1.0122681, 0.756, -0.0739746, 0.756, -0.8778626, 0.756, 2.2671757, 0.756, -2.6564887
0.0897353, -0.0099031, 0.76275, 0.0301514, 0.76275, -1.0096436, 0.76275, -0.0700684, 0.76275, -1.2977099, 0.76275, 3.3664122, 0.76275, -2.2977099
0.0905294, -0.0082246, 0.7695, 0.0310059, 0.7695, -1.0107422, 0.7695, -0.0828857, 0.7695, -1.5572519, 0.7695, 4.4732823, 0.7695, -1.9923664
0.0913235, -0.0095674, 0.77625, 0.0272217, 0.77625, -1.0093384, 0.77625, -0.0866699, 0.77625, -1.1908396, 0.77625, 4.1984735, 0.77625, -1.778626
0.0921176, -0.0097353, 0.783, 0.0269775, 0.783, -1.008667, 0.783, -0.0870361, 0.783, -1.0534351, 0.783, 3.8931298, 0.783, -1.9694656
0.0929118, -0.0137636, 0.78975, 0.0202026, 0.78975, -1.0064697, 0.78975, -0.0895996, 0.78975, -1, 0.78975, 3.519084, 0.78975, -2.0763359
0.0937059, -0.0142672, 0.7965, 0.0145874, 0.7965, -1.0065918, 0.7965, -0.0831909, 0.7965, -0.9007633, 0.7965, 3.7557251, 0.7965, -2.1908398
0.0945, -0.0129244, 0.80325, 0.0061646, 0.80325, -1.0085449, 0.80325, -0.0789795, 0.80325, -0.961832, 0.80325, 3.9541984, 0.80325, -2.2900763
0.0952941, -0.012253, 0.81, 0.0010376, 0.81, -1.0024414, 0.81, -0.0847168, 0.81, -0.8244275, 0.81, 3.3969467, 0.81, -2.1984732
0.0960882, -0.0112459, 0.81675, -0.0024414, 0.81675, -0.9998779, 0.81675, -0.0905151, 0.81675, -0.870229, 0.81675, 3.1832061, 0.81675, -2.259542
0.0968824, -0.0119173, 0.8235, 0.0005493, 0.8235, -1.0025635, 0.8235, -0.0889282, 0.8235, -1.0839695, 0.8235, 3.3969467, 0.8235, -2.221374
0.0976765, -0.0117494, 0.83025, 0.0031128, 0.83025, -1.0045776, 0.83025, -0.083374, 0.83025, -1.0534351, 0.83025, 2.778626, 0.83025, -2.259542
0.0984706, -0.0109102, 0.837, 0.0059814, 0.837, -1.0055542, 0.837, -0.0822144, 0.837, -0.7862595, 0.837, 2.351145, 0.837, -2.5343511
0.0992647, -0.0132601, 0.84375, 0.0058594, 0.84375, -1.0053101, 0.84375, -0.0839844, 0.84375, -0.778626, 0.84375, 1.8778626, 0.84375, -2.5725191
0.1000588, -0.0176242, 0.8505, 0.0124512, 0.8505, -1.005127, 0.8505, -0.0822144, 0.8505, -0.7175573, 0.8505, 1.6793894, 0.8505, -2.5496182
0.1008529, -0.0152743, 0.85725, 0.0118408, 0.85725, -1.008728, 0.85725, -0.0817261, 0.85725, -0.7480916, 0.85725, 1.8396946, 0.85725, -2.2290077
0.1016471, -0.0154421, 0.864, 0.0161133, 0.864, -1.0085449, 0.864, -0.0801392, 0.864, -0.5572519, 0.864, 1.7480916, 0.864, -2.2366412
0.1024412, -0.0137636, 0.87075, 0.0214233, 0.87075, -1.0064697, 0.87075, -0.0808716, 0.87075, -0.0458015, 0.87075, 1.6412214, 0.87075, -2.3358779
0.1032353, -0.01561, 0.8775, 0.0206299, 0.8775, -1.0092163, 0.8775, -0.085083, 0.8775, -0.0229008, 0.8775, 1.6030535, 0.8775, -2.6717558
0.1040294, -0.0172885, 0.88425, 0.0179443, 0.88425, -1.008667, 0.88425, -0.0842896, 0.88425, -0.4503817, 0.88425, 1.5572519, 0.88425, -2.5801528
0.1048235, -0.017792, 0.891, 0.0149536, 0.891, -1.0064697, 0.891, -0.081543, 0.891, -0.4656489, 0.891, 1.6412214, 0.891, -2.5725191
0.1056176, -0.0209812, 0.89775, 0.0135498, 0.89775, -1.0092163, 0.89775, -0.0769653, 0.89775, -0.6641222, 0.89775, 1.4503816, 0.89775, -2.8244274
0.1064118, -0.0223239, 0.9045, 0.0157471, 0.9045, -1.0109253, 0.9045, -0.0758057, 0.9045, -0.6564885, 0.9045, 1.870229, 0.9045, -2.2519083
0.1072059, -0.0250095, 0.91125, 0.0188599, 0.91125, -1.0105591, 0.91125, -0.0782471, 0.91125, -0.389313, 0.91125, 1.9389313, 0.91125, -2.389313
0.108, -0.0209812, 0.918, 0.0197144, 0.918, -1.0088501, 0.918, -0.0805054, 0.918, -0.3664122, 0.918, 1.9770992, 0.918, -2.3740458
0.1087941, -0.0176242, 0.92475, 0.0216064, 0.92475, -1.005188, 0.92475, -0.0836792, 0.92475, -0.1755725, 0.92475, 2.129771, 0.92475, -2.3816793
0.1095882, -0.0193027, 0.9315, 0.0159302, 0.9315, -1.0056152, 0.9315, -0.0830078, 0.9315, -0.3816794, 0.9315, 2.6564887, 0.9315, -2.4503818
0.1103824, -0.0184634, 0.93825, 0.0128174, 0.93825, -1.0050659, 0.93825, -0.0803833, 0.93825, -0.4427481, 0.93825, 2.8396947, 0.93825, -2.4503818
0.1111765, -0.0139315, 0.945, 0.0057983, 0.945, -1.0033569, 0.945, -0.0839844, 0.945, -0.4885496, 0.945, 2.6030533, 0.945, -2.519084
0.1119706, -0.0162814, 0.95175, -0.0010376, 0.95175, -1.0025024, 0.95175, -0.0861816, 0.95175, -0.5267175, 0.95175, 2.1755726, 0.95175, -2.6335878
0.1127647, -0.0176242, 0.9585, -0.0044556, 0.9585, -1.0046387, 0.9585, -0.0861816, 0.9585, -0.5114504, 0.9585, 2.129771, 0.9585, -2.5801528
0.1135588, -0.0139315, 0.96525, 0.0004883, 0.96525, -1.0050049, 0.96525, -0.0828247, 0.96525, -0.4503817, 0.96525, 1.7633588, 0.96525, -2.480916
0.1143529, -0.0115816, 0.972, 0.0003052, 0.972, -1.0022583, 0.972, -0.0855713, 0.972, -0.2748092, 0.972, 1.5343511, 0.972, -2.4503818
0.1151471, -0.0130922, 0.97875, 0.0018311, 0.97875, -1.0037231, 0.97875, -0.086792, 0.97875, -0.2290076, 0.97875, 1.1755725, 0.97875, -2.6030533
0.1159412, -0.008896, 0.9855, 0.0007324, 0.9855, -1.0026855, 0.9855, -0.0806885, 0.9855, -0.1374046, 0.9855, 0.9541985, 0.9855, -2.8091602
0.1167353, -0.0083925, 0.99225, 0.0050049, 0.99225, -1.0098267, 0.99225, -0.0817871, 0.99225, -0.0839695, 0.99225, 0.8396947, 0.99225, -3.0610688
0.1175294, -0.0068818, 0.999, 0.0063477, 0.999, -1.0084229, 0.999, -0.0824585, 0.999, 0.1526718, 0.999, 0.8625954, 0.999, -3.0229008
0.1183235, -0.0045319, 1.00575, 0.0115356, 1.00575, -1.0079956, 1.00575, -0.0811768, 1.00575, 0.3129771, 1.00575, 0.8320611, 1.00575, -3.1221373
0.1191176, -0.0078889, 1.0125, 0.0093994, 1.0125, -1.0073242, 1.0125, -0.0799561, 1.0125, 0.4885496, 1.0125, 0.8549618, 1.0125, -2.9465649
0.1199118, -0.0063783, 1.01925, 0.0140991, 1.01925, -1.006897, 1.01925, -0.0812988, 1.01925, 0.2824427, 1.01925, 0.9236641, 1.01925, -3.1374047
0.1207059, -0.0041962, 1.026, 0.013855, 1.026, -1.0068359, 1.026, -0.081665, 1.026, 0.5954198, 1.026, 1.0610687, 1.026, -3.3282442
0.1215, -0.0065461, 1.03275, 0.0089722, 1.03275, -1.0093384, 1.03275, -0.0835571, 1.03275, 0.5267175, 1.03275, 1.1679389, 1.03275, -3.2519083
0.1222941, -0.0095674, 1.0395, 0.0067749, 1.0395, -1.008728, 1.0395, -0.0844727, 1.0395, 0.4274809, 1.0395, 1.3664122, 1.0395, -3.4503818
0.1230882, -0.0075532, 1.04625, 0.0117188, 1.04625, -1.0098267, 1.04625, -0.0827026, 1.04625, 0.4122137, 1.04625, 1.1679389, 1.04625, -3.1832061
0.1238824, -0.0127565, 1.053, 0.0092163, 1.053, -1.0093994, 1.053, -0.0861816, 1.053, 0.3435115, 1.053, 0.9312977, 1.053, -3.3740458
0.1246765, -0.0149386, 1.05975, 0.0092163, 1.05975, -1.0068359, 1.05975, -0.0913086, 1.05975, 0.1679389, 1.05975, 0.9389313, 1.05975, -3.3740458
0.1254706, -0.0124208, 1.0665, 0.0100098, 1.0665, -1.0062866, 1.0665, -0.095459, 1.0665, -0.3664122, 1.0665, 0.9770992, 1.0665, -3.2748091
0.1262647, -0.012253, 1.07325, 0.0108032, 1.07325, -1.008667, 1.07325, -0.0929565, 1.07325, -0.519084, 1.07325, 1.1603054, 1.07325, -3.1908398
0.1270588, -0.0095674, 1.08, 0.0088501, 1.08, -1.0091553, 1.08, -0.09021, 1.08, -0.4885496, 1.08, 1.0610687, 1.08, -3.0992367
0.1278529, -0.0109102, 1.08675, 0.0109253, 1.08675, -1.0097046, 1.08675, -0.0895386, 1.08675, -0.7557252, 1.08675, 1.2290076, 1.08675, -2.9923663
0.1286471, -0.0162814, 1.0935, 0.012085, 1.0935, -1.0090332, 1.0935, -0.0855713, 1.0935, -0.778626, 1.0935, 1.4503816, 1.0935, -3.038168
0.1294412, -0.0169528, 1.10025, 0.0125732, 1.10025, -1.010498, 1.10025, -0.0835571, 1.10025, -0.7022901, 1.10025, 1.6717557, 1.10025, -2.8854961
0.1302353, -0.0169528, 1.107, 0.0142822, 1.107, -1.0085449, 1.107, -0.0910034, 1.107, -0.4656489, 1.107, 1.961832, 1.107, -2.778626
0.1310294, -0.0179599, 1.11375, 0.0123901, 1.11375, -1.0046997, 1.11375, -0.0968628, 1.11375, -0.3969466, 1.11375, 1.7862595, 1.11375, -2.9389312
0.1318235, -0.0166171, 1.1205, 0.0127563, 1.1205, -1.0089111, 1.1205, -0.0928345, 1.1205, -0.8396947, 1.1205, 1.6717557, 1.1205, -2.8167939
0.1326176, -0.0176242, 1.12725, 0.0130005, 1.12725, -1.0136108, 1.12725, -0.0844116, 1.12725, -0.961832, 1.12725, 2, 1.12725, -2.7862597
0.1334118, -0.0135958, 1.134, 0.0107422, 1.134, -1.006958, 1.134, -0.0949707, 1.134, -0.908397, 1.134, 2.1832061, 1.134, -2.6793892
0.1342059, -0.0135958, 1.14075, 0.0107422, 1.14075, -1.0039062, 1.14075, -0.0923462, 1.14075, -0.6564885, 1.14075, 2.0687022, 1.14075, -2.7480917
0.135, -0.0146029, 1.1475, 0.0102539, 1.1475, -1.0059814, 1.1475, -0.0900269, 1.1475, -0.5496183, 1.1475, 2.1068702, 1.1475, -2.9389312
0.1357941, -0.0166171, 1.15425, 0.0053101, 1.15425, -1.008667, 1.15425, -0.0909424, 1.15425, -0.6946565, 1.15425, 2.0992367, 1.15425, -2.7328243
0.1365882, -0.0204776, 1.161, 0.0079956, 1.161, -1.0063477, 1.161, -0.0951538, 1.161, -0.908397, 1.161, 1.9465649, 1.161, -2.610687
0.1373824, -0.0196384, 1.16775, 0.0147095, 1.16775, -1.0073853, 1.16775, -0.0971069, 1.16775, -0.778626, 1.16775, 1.8320611, 1.16775, -2.6564887
0.1381765, -0.0181277, 1.1745, 0.019104, 1.1745, -1.0100708, 1.1745, -0.0966797, 1.1745, -0.8320611, 1.1745, 1.9541985, 1.1745, -2.6412213
0.1389706, -0.0166171, 1.18125, 0.022644, 1.18125, -1.0101318, 1.18125, -0.0911255, 1.18125, -0.5877863, 1.18125, 1.7709924, 1.18125, -2.610687
0.1397647, -0.0176242, 1.188, 0.0258179, 1.188, -1.0093384, 1.188, -0.0930786, 1.188, -0.870229, 1.188, 1.8931298, 1.188, -2.6335878
0.1405588, -0.0203098, 1.19475, 0.0236816, 1.19475, -1.0100708, 1.19475, -0.0911255, 1.19475, -1.038168, 1.19475, 2.0458016, 1.19475, -2.740458
0.1413529, -0.018967, 1.2015, 0.019165, 1.2015, -1.0115356, 1.2015, -0.0870361, 1.2015, -0.8015267, 1.2015, 2.3969467, 1.2015, -2.5648854
0.1421471, -0.017792, 1.20825, 0.0167847, 1.20825, -1.0133667, 1.20825, -0.0895386, 1.20825, -0.5877863, 1.20825, 2.5419848, 1.20825, -2.7633588
0.1429412, -0.0135958, 1.215, 0.0164795, 1.215, -1.0112915, 1.215, -0.0935059, 1.215, -0.6412213, 1.215, 2.2900763, 1.215, -2.5648854
0.1437353, -0.0146029, 1.22175, 0.0112915, 1.22175, -1.0077515, 1.22175, -0.0949707, 1.22175, -0.5801527, 1.22175, 2.0152671, 1.22175, -2.5038168
0.1445294, -0.0152743, 1.2285, 0.0095215, 1.2285, -1.007019, 1.2285, -0.0895386, 1.2285, -0.778626, 1.2285, 1.4885496, 1.2285, -2.7633588
0.1453235, -0.0166171, 1.23525, 0.0078735, 1.23525, -1.0082397, 1.23525, -0.0910034, 1.23525, -0.6793893, 1.23525, 1.4274809, 1.23525, -2.7862597
0.1461176, -0.0162814, 1.242, 0.0073853, 1.242, -1.0062256, 1.242, -0.0961304, 1.242, -0.5877863, 1.242, 1.2137405, 1.242, -2.6641221
0.1469118, -0.0171206, 1.24875, 0.0085449, 1.24875, -1.0027466, 1.24875, -0.0997314, 1.24875, -0.6793893, 1.24875, 1.0992366, 1.24875, -2.6641221
0.1477059, -0.0182956, 1.2555, 0.0073242, 1.2555, -1.0071411, 1.2555, -0.0994263, 1.2555, -0.8625954, 1.2555, 0.908397, 1.2555, -2.5725191
0.1485, -0.0224918, 1.26225, 0.0109863, 1.26225, -1.0128174, 1.26225, -0.0819092, 1.26225, -0.870229, 1.26225, 0.7099237, 1.26225, -2.5419848
0.1492941, -0.0223239, 1.269, 0.0161743, 1.269, -1.0107422, 1.269, -0.0773315, 1.269, -1.3358779, 1.269, 1.7251909, 1.269, -2.3740458
0.1500882, -0.018967, 1.27575, 0.0236206, 1.27575, -1.0102539, 1.27575, -0.088623, 1.27575, -1.4198474, 1.27575, 3.2671757, 1.27575, -2.0687022
0.1508824, -0.0184634, 1.2825, 0.0319214, 1.2825, -1.0074463, 1.2825, -0.0971069, 1.2825, -1.3358779, 1.2825, 3.961832, 1.2825, -1.9770992
0.1516765, -0.0198062, 1.28925, 0.0278931, 1.28925, -1.0046387, 1.28925, -0.1066895, 1.28925, -1.3435115, 1.28925, 4.5954199, 1.28925, -1.9694656
0.1524706, -0.0216526, 1.296, 0.0177002, 1.296, -1.0002441, 1.296, -0.1104126, 1.296, -1.3664122, 1.296, 4.4656487, 1.296, -2.2977099
0.1532647, -0.0231632, 1.30275, 0.0042725, 1.30275, -1.0014648, 1.30275, -0.1011353, 1.30275, -1.5954199, 1.30275, 4.9312978, 1.30275, -2.2442749
0.1540588, -0.0203098, 1.3095, -0.007019, 1.3095, -1.0084839, 1.3095, -0.09375, 1.3095, -1.6641221, 1.3095, 6.6106873, 1.3095, -1.961832
0.1548529, -0.0152743, 1.31625, 0.0084229, 1.31625, -1.0045166, 1.31625, -0.0932007, 1.31625, -1.2519084, 1.31625, 5.8931298, 1.31625, -2.1832061
0.1556471, -0.0149386, 1.323, 0.0106201, 1.323, -1.0031738, 1.323, -0.0878906, 1.323, -1.2748091, 1.323, 4.1832061, 1.323, -2.4885497
0.1564412, -0.0135958, 1.32975, 0.0068359, 1.32975, -1.003418, 1.32975, -0.0910645, 1.32975, -1.5419847, 1.32975, 3.8549619, 1.32975, -2.5343511
0.1572353, -0.0082246, 1.3365, 0.0015259, 1.3365, -1.0004272, 1.3365, -0.1021729, 1.3365, -2.0458016, 1.3365, 3.1068702, 1.3365, -2.610687
0.1580294, -0.0085603, 1.34325, 0.0023193, 1.34325, -1.0001221, 1.34325, -0.1052246, 1.34325, -2.1068702, 1.34325, 3.038168, 1.34325, -2.5572519
0.1588235, -0.0115816, 1.35, 0.0043335, 1.35, -1.0084229, 1.35, -0.0908813, 1.35, -1.3435115, 1.35, 3.5267177, 1.35, -2.2671757
0.1596176, -0.0105745, 1.35675, 0.0089722, 1.35675, -1.0048218, 1.35675, -0.09198, 1.35675, -0.6335878, 1.35675, 3.5419848, 1.35675, -2.5572519
0.1604118, -0.0102388, 1.3635, 0.0043945, 1.3635, -1.0006714, 1.3635, -0.0905762, 1.3635, -0.7633588, 1.3635, 2.9389312, 1.3635, -2.6335878
0.1612059, -0.0072175, 1.37025, 0.0011597, 1.37025, -1.0041504, 1.37025, -0.088623, 1.37025, -1.1068702, 1.37025, 2.8015268, 1.37025, -2.8778627
0.162, -0.0129244, 1.377, -0.0004883, 1.377, -1.0105591, 1.377, -0.0901489, 1.377, -1.0610687, 1.377, 3.3282442, 1.377, -2.6030533
0.1627941, -0.0137636, 1.38375, -0.0020142, 1.38375, -1.010437, 1.38375, -0.0968018, 1.38375, -1.0458015, 1.38375, 3.2366412, 1.38375, -2.7480917
0.1635882, -0.0130922, 1.3905, -0.0012207, 1.3905, -1.0098877, 1.3905, -0.0969238, 1.3905, -0.9541985, 1.3905, 2.1679389, 1.3905, -2.6412213
0.1643824, -0.0119173, 1.39725, -0.0027466, 1.39725, -1.0045776, 1.39725, -0.0899658, 1.39725, -1.6717557, 1.39725, 3.038168, 1.39725, -2.4045801
0.1651765, -0.012253, 1.404, -0.0036621, 1.404, -1.0092773, 1.404, -0.0893555, 1.404, -2.1221373, 1.404, 3.4503818, 1.404, -2.2900763
0.1659706, -0.0135958, 1.41075, 0.0083008, 1.41075, -1.0145874, 1.41075, -0.0971069, 1.41075, -2.3358779, 1.41075, 3.3587787, 1.41075, -2.1984732
0.1667647, -0.012253, 1.4175, 0.0202026, 1.4175, -1.0170288, 1.4175, -0.0962524, 1.4175, -2, 1.4175, 2.4122138, 1.4175, -2.4732823
0.1675588, -0.0099031, 1.42425, 0.0278931, 1.42425, -1.0114746, 1.42425, -0.1066284, 1.42425, -0.8854962, 1.42425, 2.2824428, 1.42425, -3.0458016
0.1683529, -0.008896, 1.431, 0.0198975, 1.431, -1.0062256, 1.431, -0.1112061, 1.431, -1.0152671, 1.431, 3.1832061, 1.431, -3.1984732
0.1691471, -0.0068818, 1.43775, 0.0130005, 1.43775, -1.0083618, 1.43775, -0.1015625, 1.43775, -1.778626, 1.43775, 3.2671757, 1.43775, -3.1908398
0.1699412, -0.0068818, 1.4445, 0.0090942, 1.4445, -1.0098877, 1.4445, -0.0927124, 1.4445, -1.4351145, 1.4445, 2.7557251, 1.4445, -3.2900763
0.1707353, -0.0052033, 1.45125, -0.0030518, 1.45125, -1.0117188, 1.45125, -0.0909424, 1.45125, -1.1755725, 1.45125, 2.6641221, 1.45125, -3.6335878
0.1715294, -0.0028534, 1.458, -0.012207, 1.458, -1.0032349, 1.458, -0.0878906, 1.458, -1.3206106, 1.458, 2.3053436, 1.458, -3.7633588
0.1723235, -0.0020142, 1.46475, -0.0236816, 1.46475, -0.9996338, 1.46475, -0.081604, 1.46475, -1.4732825, 1.46475, 2.1068702, 1.46475, -3.7862597
0.1731176, -0.002182, 1.4715, -0.0251465, 1.4715, -0.9949341, 1.4715, -0.0886841, 1.4715, -1.5725191, 1.4715, 1.1068702, 1.4715, -4.1221375
0.1739118, -0.0011749, 1.47825, -0.0292358, 1.47825, -0.9998169, 1.47825, -0.0861206, 1.47825, -2.4503818, 1.47825, 0.4961832, 1.47825, -4.1603055
0.1747059, 0.0001678, 1.485, -0.0283813, 1.485, -0.9974976, 1.485, -0.0906982, 1.485, -2.6335878, 1.485, -0.1145038, 1.485, -4.2900763
0.1755, -0.0058747, 1.49175, -0.0211182, 1.49175, -0.9908447, 1.49175, -0.0977173, 1.49175, -2.8320611, 1.49175, -1.0687023, 1.49175, -4.2900763
0.1762941, -0.0099031, 1.4985, -0.0088501, 1.4985, -0.9931641, 1.4985, -0.1019897, 1.4985, -2.908397, 1.4985, -0.0992366, 1.4985, -4.2290077
0.1770882, -0.008896, 1.50525, -0.0029297, 1.50525, -0.9926758, 1.50525, -0.1074829, 1.50525, -3.8320611, 1.50525, 1.3816794, 1.50525, -4.0229006
0.1778824, -0.0137636, 1.512, 0.0079956, 1.512, -0.9993286, 1.512, -0.105957, 1.512, -4.0534353, 1.512, 2.1374047, 1.512, -4.0839696
0.1786765, -0.0149386, 1.51875, 0.0136108, 1.51875, -1.0066528, 1.51875, -0.107666, 1.51875, -3.778626, 1.51875, 1.9694656, 1.51875, -3.8320611
0.1794706, -0.0135958, 1.5255, 0.0184326, 1.5255, -1.0057983, 1.5255, -0.1105957, 1.5255, -3.5496182, 1.5255, 2.5954199, 1.5255, -3.8167939
0.1802647, -0.018967, 1.53225, 0.022522, 1.53225, -1.0089111, 1.53225, -0.1045532, 1.53225, -3.3664122, 1.53225, 3.1984732, 1.53225, -3.6259542
0.1810588, -0.021149, 1.539, 0.0320435, 1.539, -1.0115356, 1.539, -0.1071777, 1.539, -3.2900763, 1.539, 3.519084, 1.539, -3.5877862
0.1818529, -0.0229953, 1.54575, 0.0276489, 1.54575, -1.0064697, 1.54575, -0.1155396, 1.54575, -3.1755726, 1.54575, 3.5725191, 1.54575, -3.7633588
0.1826471, -0.0258488, 1.5525, 0.0292969, 1.5525, -1.0093384, 1.5525, -0.1131592, 1.5525, -2.9923663, 1.5525, 3.8015268, 1.5525, -3.8396947
0.1834412, -0.0290379, 1.55925, 0.0297241, 1.55925, -1.0146484, 1.55925, -0.1157837, 1.55925, -2.6793892, 1.55925, 3.7938931, 1.55925, -3.8015268
0.1842353, -0.0293736, 1.566, 0.0297241, 1.566, -1.0131836, 1.566, -0.1228027, 1.566, -2.778626, 1.566, 4.2671757, 1.566, -3.480916
0.1850294, -0.030045, 1.57275, 0.027832, 1.57275, -1.0115356, 1.57275, -0.1247559, 1.57275, -2.8091602, 1.57275, 4.8625956, 1.57275, -3.2671757
0.1858235, -0.0292058, 1.5795, 0.0283813, 1.5795, -1.0142212, 1.5795, -0.1207886, 1.5795, -2.4351146, 1.5795, 5.0839696, 1.5795, -3.221374
0.1866176, -0.0243381, 1.58625, 0.0223999, 1.58625, -1.008606, 1.58625, -0.1230469, 1.58625, -2.0687022, 1.58625, 5.5419846, 1.58625, -3.0305343
0.1874118, -0.0209812, 1.593, 0.0128784, 1.593, -1.0108032, 1.593, -0.1229858, 1.593, -2.091603, 1.593, 5.7709923, 1.593, -3.0687022
0.1882059, -0.0166171, 1.59975, 0.0076904, 1.59975, -1.0115356, 1.59975, -0.1218262, 1.59975, -1.7022901, 1.59975, 5.5114503, 1.59975, -2.9923663
0.189, -0.0119173, 1.6065, -0.0010376, 1.6065, -1.0078125, 1.6065, -0.1179199, 1.6065, -1.5343511, 1.6065, 5.5877862, 1.6065, -3.1755726
0.1897941, -0.012253, 1.61325, -0.0016479, 1.61325, -1.0074463, 1.61325, -0.1224976, 1.61325, -1.6335878, 1.61325, 5.1908398, 1.61325, -2.8091602
0.1905882, -0.010071, 1.62, -0.0045166, 1.62, -1.0103149, 1.62, -0.1176147, 1.62, -1.8473282, 1.62, 4.8931298, 1.62, -2.8167939
0.1913824, -0.0090639, 1.62675, -0.0012207, 1.62675, -1.0105591, 1.62675, -0.1116943, 1.62675, -1.5419847, 1.62675, 4.4351144, 1.62675, -2.9465649
0.1921765, -0.0099031, 1.6335, 0.0036621, 1.6335, -1.0084229, 1.6335, -0.1065674, 1.6335, -1.389313, 1.6335, 4.1374044, 1.6335, -2.9541984
0.1929706, -0.0125887, 1.64025, 0.006958, 1.64025, -1.0098877, 1.64025, -0.1056519, 1.64025, -1.3816794, 1.64025, 3.9694657, 1.64025, -3.038168
0.1937647, -0.0139315, 1.647, 0.0031738, 1.647, -1.0105591, 1.647, -0.1099243, 1.647, -0.9541985, 1.647, 3.9847329, 1.647, -3.1068702
0.1945588, -0.0125887, 1.65375, 0.0047607, 1.65375, -1.0108643, 1.65375, -0.107666, 1.65375, -0.9770992, 1.65375, 4.1450381, 1.65375, -3
0.1953529, -0.0164492, 1.6605, 0.0026245, 1.6605, -1.0079956, 1.6605, -0.1085205, 1.6605, -0.9847328, 1.6605, 4.2366414, 1.6605, -2.8931298
0.1961471, -0.0182956, 1.66725, 0.0042114, 1.66725, -1.0085449, 1.66725, -0.1055908, 1.66725, -1.091603, 1.66725, 4.259542, 1.66725, -2.8091602
0.1969412, -0.0182956, 1.674, 0.0072021, 1.674, -1.0108643, 1.674, -0.1075439, 1.674, -0.8854962, 1.674, 4.1832061, 1.674, -2.8854961
0.1977353, -0.0176242, 1.68075, 0.0064087, 1.68075, -1.008606, 1.68075, -0.1049805, 1.68075, -1.1603054, 1.68075, 4.1145039, 1.68075, -3.091603
0.1985294, -0.01561, 1.6875, 0.0093994, 1.6875, -1.0098877, 1.6875, -0.1019287, 1.6875, -0.9465649, 1.6875, 4.1068702, 1.6875, -3.0763359
0.1993235, -0.0149386, 1.69425, 0.0062866, 1.69425, -1.0072632, 1.69425, -0.1055298, 1.69425, -0.9541985, 1.69425, 3.9389312, 1.69425, -3.1832061
0.2001176, -0.0169528, 1.701, 0.0060425, 1.701, -1.0057983, 1.701, -0.107666, 1.701, -0.9312977, 1.701, 3.9312978, 1.701, -3.2671757
0.2009118, -0.0176242, 1.70775, -0.0037231, 1.70775, -1.0028687, 1.70775, -0.1120605, 1.70775, -1.2137405, 1.70775, 4.4427481, 1.70775, -3.3206108
0.2017059, -0.0149386, 1.7145, -0.0054932, 1.7145, -1.0020142, 1.7145, -0.1107788, 1.7145, -1.0763359, 1.7145, 4.259542, 1.7145, -3.3664122
0.2025, -0.0146029, 1.72125, -0.0063477, 1.72125, -1.0012207, 1.72125, -0.1127319, 1.72125, -1.2977099, 1.72125, 3.8396947, 1.72125, -3.6717558
0.2032941, -0.0129244, 1.728, -0.0101318, 1.728, -1.0020752, 1.728, -0.1160278, 1.728, -1.6259542, 1.728, 3.2290077, 1.728, -3.6412213
0.2040882, -0.0124208, 1.73475, -0.0187988, 1.73475, -1.0032349, 1.73475, -0.114563, 1.73475, -1.6183206, 1.73475, 2.6564887, 1.73475, -3.8778627
0.2048824, -0.008896, 1.7415, -0.0189209, 1.7415, -1.0082397, 1.7415, -0.1156616, 1.7415, -1.870229, 1.7415, 2.2748091, 1.7415, -3.9923663
0.2056765, -0.0109102, 1.74825, -0.0141602, 1.74825, -1.0081177, 1.74825, -0.1124878, 1.74825, -1.9465649, 1.74825, 1.7251909, 1.74825, -3.9847329
0.2064706, -0.0149386, 1.755, -0.0139771, 1.755, -1.0075684, 1.755, -0.1103516, 1.755, -2.0992367, 1.755, 1.4732825, 1.755, -4.0992365
0.2072647, -0.014435, 1.76175, -0.0089722, 1.76175, -1.0059204, 1.76175, -0.1099243, 1.76175, -2.0992367, 1.76175, 0.7251908, 1.76175, -4.4656487
0.2080588, -0.012253, 1.7685, -0.0063477, 1.7685, -1.003479, 1.7685, -0.1155396, 1.7685, -1.8244275, 1.7685, 0.4961832, 1.7685, -4.8015265
0.2088529, -0.0087282, 1.77525, -0.0010376, 1.77525, -1.0045776, 1.77525, -0.119751, 1.77525, -1.6946565, 1.77525, 0.4274809, 1.77525, -4.9923663
0.2096471, -0.0085603, 1.782, -0.0001221, 1.782, -1.005188, 1.782, -0.1282959, 1.782, -1.480916, 1.782, 0.2442748, 1.782, -4.9923663
0.2104412, -0.0102388, 1.78875, 0.0002441, 1.78875, -1.0057373, 1.78875, -0.1270142, 1.78875, -1.4427481, 1.78875, -0.0152672, 1.78875, -5.0152674
0.2112353, -0.0092317, 1.7955, 0.0014038, 1.7955, -1.0075073, 1.7955, -0.1307373, 1.7955, -1.2671756, 1.7955, -0.0458015, 1.7955, -5.0152674
0.2120294, -0.0109102, 1.80225, -0.0015869, 1.80225, -1.0072632, 1.80225, -0.1324463, 1.80225, -1.129771, 1.80225, 0.0992366, 1.80225, -5.0076337
0.2128235, -0.0115816, 1.809, -0.0029907, 1.809, -1.0076294, 1.809, -0.1381836, 1.809, -1, 1.809, 0.1603053, 1.809, -5.1450381
0.2136176, -0.011078, 1.81575, -0.0018311, 1.81575, -1.0090942, 1.81575, -0.137207, 1.81575, -0.8854962, 1.81575, -0.1221374, 1.81575, -5.3053436
0.2144118, -0.0117494, 1.8225, 0.0011597, 1.8225, -1.0131836, 1.8225, -0.1390991, 1.8225, -0.6030535, 1.8225, -0.389313, 1.8225, -5.3282442
0.2152059, -0.01561, 1.82925, 0.0041504, 1.82925, -1.0100098, 1.82925, -0.1359253, 1.82925, -0.6183206, 1.82925, -0.389313, 1.82925, -5.2671757
0.216, -0.0149386, 1.836, 0.0065308, 1.836, -1.0070801, 1.836, -0.1398926, 1.836, -0.5267175, 1.836, -0.1908397, 1.836, -5.4656487
0.2167941, -0.0149386, 1.84275, 0.0144043, 1.84275, -1.0118408, 1.84275, -0.1443481, 1.84275, -0.3816794, 1.84275, -0.0916031, 1.84275, -5.4351144
0.2175882, -0.0149386, 1.8495, 0.0177002, 1.8495, -1.0100098, 1.8495, -0.1445923, 1.8495, -0.4122137, 1.8495, -0.0381679, 1.8495, -5.5267177
0.2183824, -0.0139315, 1.85625, 0.0178223, 1.85625, -1.0128174, 1.85625, -0.1460571, 1.85625, -0.2519084, 1.85625, 0.4274809, 1.85625, -5.3282442
0.2191765, -0.0127565, 1.863, 0.0188599, 1.863, -1.0146484, 1.863, -0.1459961, 1.863, 0.0916031, 1.863, 0.4122137, 1.863, -5.4351144
0.2199706, -0.0119173, 1.86975, 0.0175781, 1.86975, -1.0137329, 1.86975, -0.1448975, 1.86975, 0.1984733, 1.86975, 0.5267175, 1.86975, -5.4351144
0.2207647, -0.0104067, 1.8765, 0.0130615, 1.8765, -1.0123901, 1.8765, -0.1428223, 1.8765, 0.2900763, 1.8765, 0.8854962, 1.8765, -5.6870227
0.2215588, -0.0124208, 1.88325, 0.0087891, 1.88325, -1.010437, 1.88325, -0.1431274, 1.88325, 0.5267175, 1.88325, 0.9541985, 1.88325, -5.6946564
0.2223529, -0.0109102, 1.89, 0.0046387, 1.89, -1.013855, 1.89, -0.1367188, 1.89, 0.8244275, 1.89, 0.6030535, 1.89, -6.0229006
0.2231471, -0.0115816, 1.89675, -0.0006104, 1.89675, -1.0131836, 1.89675, -0.1444092, 1.89675, 0.7022901, 1.89675, 0.7480916, 1.89675, -5.7251906
0.2239412, -0.014435, 1.9035, 0.0023804, 1.9035, -1.0140991, 1.9035, -0.1405029, 1.9035, 0.4580153, 1.9035, 0.5496183, 1.9035, -5.5801525
0.2247353, -0.0129244, 1.91025, 0.0062256, 1.91025, -1.0115356, 1.91025, -0.1326904, 1.91025, 0.4885496, 1.91025, 0.0305344, 1.91025, -5.5038166
0.2255294, -0.0135958, 1.917, 0.0117798, 1.917, -1.0120239, 1.917, -0.125061, 1.917, 0.7557252, 1.917, -0.2442748, 1.917, -5.5801525
0.2263235, -0.0162814, 1.92375, 0.0157471, 1.92375, -1.0158691, 1.92375, -0.1287231, 1.92375, 1.1145039, 1.92375, 0, 1.92375, -5.5572519
0.2271176, -0.017792, 1.9305, 0.0236816, 1.9305, -1.0114136, 1.9305, -0.1256714, 1.9305, 0.9465649, 1.9305, 0.3587786, 1.9305, -5.4503818
0.2279118, -0.0164492, 1.93725, 0.0284424, 1.93725, -1.0097046, 1.93725, -0.1283569, 1.93725, 1.1908396, 1.93725, 0.0687023, 1.93725, -5.4885497
0.2287059, -0.0135958, 1.944, 0.0273438, 1.944, -1.0098267, 1.944, -0.1239624, 1.944, 1.1755725, 1.944, -0.4274809, 1.944, -5.6335878
0.2295, -0.0164492, 1.95075, 0.0230713, 1.95075, -1.0119019, 1.95075, -0.1257935, 1.95075, 0.9923664, 1.95075, -0.2519084, 1.95075, -5.5038166
0.2302941, -0.0186313, 1.9575, 0.0202637, 1.9575, -1.0096436, 1.9575, -0.1237793, 1.9575, 0.778626, 1.9575, -0.4732825, 1.9575, -5.3435116
0.2310882, -0.0166171, 1.96425, 0.0245972, 1.96425, -1.0117188, 1.96425, -0.1218262, 1.96425, 0.5954198, 1.96425, -1.0229008, 1.96425, -5.2442746
0.2318824, -0.0184634, 1.971, 0.0302124, 1.971, -1.0119019, 1.971, -0.1228027, 1.971, 0.351145, 1.971, -1.129771, 1.971, -4.9847326
0.2326765, -0.0182956, 1.97775, 0.0236816, 1.97775, -1.0079956, 1.97775, -0.1233521, 1.97775, 0.4580153, 1.97775, -1.4656489, 1.97775, -5.1832061
0.2334706, -0.0182956, 1.9845, 0.0228271, 1.9845, -1.0070801, 1.9845, -0.1275024, 1.9845, 0.2900763, 1.9845, -1.6564885, 1.9845, -5.1984735
0.2342647, -0.0196384, 1.99125, 0.0211792, 1.99125, -1.0098877, 1.99125, -0.1253662, 1.99125, 0.1603053, 1.99125, -1.259542, 1.99125, -5.1221375
0.2350588, -0.021149, 1.998, 0.0255737, 1.998, -1.0101929, 1.998, -0.1202393, 1.998, -0.1374046, 1.998, -0.9770992, 1.998, -4.9389315
0.2358529, -0.0166171, 2.00475, 0.0233765, 2.00475, -1.006958, 2.00475, -0.1226807, 2.00475, -0.5725191, 2.00475, -1.5572519, 2.00475, -4.8320613
0.2366471, -0.0149386, 2.0115, 0.0234375, 2.0115, -1.0073242, 2.0115, -0.1235352, 2.0115, -1.1450381, 2.0115, -2.2824428, 2.0115, -4.7633586
0.2374412, -0.0162814, 2.01825, 0.0305786, 2.01825, -1.0032349, 2.01825, -0.1252441, 2.01825, -1.7099236, 2.01825, -2.0610688, 2.01825, -4.9770994
0.2382353, -0.0149386, 2.025, 0.0308228, 2.025, -1.0050659, 2.025, -0.1229248, 2.025, -2.221374, 2.025, -1.9236641, 2.025, -5.0076337
0.2390294, -0.0124208, 2.03175, 0.0249634, 2.03175, -1.0067749, 2.03175, -0.1137085, 2.03175, -2.9847329, 2.03175, -1.4122137, 2.03175, -4.8320613
0.2398235, -0.0129244, 2.0385, 0.0258179, 2.0385, -1.0076904, 2.0385, -0.1143799, 2.0385, -2.7633588, 2.0385, -0.2290076, 2.0385, -4.4885497
0.2406176, -0.01561, 2.04525, 0.0301514, 2.04525, -1.0137939, 2.04525, -0.1082153, 2.04525, -2.6946564, 2.04525, -0.0458015, 2.04525, -4.4045801
0.2414118, -0.0216526, 2.052, 0.029541, 2.052, -1.0092773, 2.052, -0.1210938, 2.052, -2.0610688, 2.052, -0.0687023, 2.052, -4.7480917
0.2422059, -0.0216526, 2.05875, 0.0310059, 2.05875, -1.0079956, 2.05875, -0.1254883, 2.05875, -1.9694656, 2.05875, 0.0839695, 2.05875, -4.6564884
0.243, -0.018967, 2.0655, 0.0299683, 2.0655, -1.0092163, 2.0655, -0.1292725, 2.0655, -1.4351145, 2.0655, 0.0916031, 2.0655, -4.8167939
0.2437941, -0.0169528, 2.07225, 0.0270386, 2.07225, -1.0126953, 2.07225, -0.1258545, 2.07225, -1.0610687, 2.07225, 0.2824427, 2.07225, -4.5267177
0.2445882, -0.018967, 2.079, 0.0229492, 2.079, -1.008667, 2.079, -0.1278076, 2.079, -0.5114504, 2.079, 0.7480916, 2.079, -4.4122138
0.2453824, -0.0229953, 2.08575, 0.022522, 2.08575, -1.0040894, 2.08575, -0.1333008, 2.08575, 0.259542, 2.08575, 1.5267175, 2.08575, -4.4961834
0.2461765, -0.0236667, 2.0925, 0.0254517, 2.0925, -1.0016479, 2.0925, -0.140564, 2.0925, 0.9847328, 2.0925, 1.1984733, 2.0925, -4.5954199
0.2469706, -0.0179599, 2.09925, 0.0269165, 2.09925, -1.0073242, 2.09925, -0.1257324, 2.09925, 1.3053435, 2.09925, 1.3206106, 2.09925, -4.259542
0.2477647, -0.0146029, 2.106, 0.0273438, 2.106, -1.0112305, 2.106, -0.1185913, 2.106, 1.4351145, 2.106, 1.4274809, 2.106, -4.2366414
0.2485588, -0.0146029, 2.11275, 0.0321655, 2.11275, -1.0090942, 2.11275, -0.1248779, 2.11275, 2.0458016, 2.11275, 1.3053435, 2.11275, -4.1679387
0.2493529, -0.0146029, 2.1195, 0.0269775, 2.1195, -1.003479, 2.1195, -0.1368408, 2.1195, 2.2061069, 2.1195, 1.4732825, 2.1195, -4.1908398
0.2501471, -0.0151064, 2.12625, 0.026001, 2.12625, -1.0083618, 2.12625, -0.1361694, 2.12625, 1.9694656, 2.12625, 2.0152671, 2.12625, -4.259542
0.2509412, -0.0152743, 2.133, 0.0285645, 2.133, -1.0029297, 2.133, -0.1341553, 2.133, 1.9160305, 2.133, 2.2900763, 2.133, -3.9236641
0.2517353, -0.0209812, 2.13975, 0.0227051, 2.13975, -1.0113525, 2.13975, -0.1303101, 2.13975, 1.5572519, 2.13975, 2.4503818, 2.13975, -3.7099237
0.2525294, -0.0243381, 2.1465, 0.0153809, 2.1465, -1.0076904, 2.1465, -0.1330566, 2.1465, 2.0763359, 2.1465, 2.5648854, 2.1465, -3.740458
0.2533235, -0.0182956, 2.15325, 0.0145264, 2.15325, -1.0057983, 2.15325, -0.1339722, 2.15325, 1.8015267, 2.15325, 2.7480917, 2.15325, -3.8778627
0.2541176, -0.012253, 2.16, 0.0153809, 2.16, -1.010376, 2.16, -0.1282349, 2.16, 1.8549619, 2.16, 2.4580152, 2.16, -3.6335878
0.2549118, -0.0135958, 2.16675, 0.0150146, 2.16675, -1.0056152, 2.16675, -0.1278687, 2.16675, 2.1526718, 2.16675, 2.0992367, 2.16675, -3.8396947
0.2557059, -0.0119173, 2.1735, 0.0186768, 2.1735, -1.0033569, 2.1735, -0.1280518, 2.1735, 2.1221373, 2.1735, 2.1374047, 2.1735, -3.6870229
0.2565, -0.0092317, 2.18025, 0.020874, 2.18025, -1.0050659, 2.18025, -0.1264038, 2.18025, 2.1221373, 2.18025, 1.908397, 2.18025, -3.6335878
0.2572941, -0.008896, 2.187, 0.0250854, 2.187, -1.0064697, 2.187, -0.1277466, 2.187, 2.2748091, 2.187, 1.6870229, 2.187, -3.7328243
0.2580882, -0.0077211, 2.19375, 0.022522, 2.19375, -1.0031128, 2.19375, -0.1325684, 2.19375, 2.3129771, 2.19375, 1.8625954, 2.19375, -3.5496182
0.2588824, -0.0058747, 2.2005, 0.0239258, 2.2005, -1.0033569, 2.2005, -0.1270752, 2.2005, 2.7328243, 2.2005, 1.7862595, 2.2005, -3.389313
0.2596765, -0.0095674, 2.20725, 0.0179443, 2.20725, -1.0024414, 2.20725, -0.1288452, 2.20725, 2.8320611, 2.20725, 1.7633588, 2.20725, -3.1755726
0.2604706, -0.0114137, 2.214, 0.0170898, 2.214, -1.0028687, 2.214, -0.1276245, 2.214, 2.5572519, 2.214, 1.7938931, 2.214, -3.2671757
0.2612647, -0.0129244, 2.22075, 0.0192261, 2.22075, -1.0042725, 2.22075, -0.1297607, 2.22075, 2.8778627, 2.22075, 1.5954199, 2.22075, -3.091603
0.2620588, -0.0137636, 2.2275, 0.0180054, 2.2275, -1.0036621, 2.2275, -0.1369629, 2.2275, 2.5572519, 2.2275, 1.1145039, 2.2275, -3.2977099
0.2628529, -0.0129244, 2.23425, 0.0239258, 2.23425, -1.0059204, 2.23425, -0.1361694, 2.23425, 1.259542, 2.23425, 1.1603054, 2.23425, -3.0992367
0.2636471, -0.0149386, 2.241, 0.0274658, 2.241, -1.0091553, 2.241, -0.1338501, 2.241, 0.3587786, 2.241, 1.6259542, 2.241, -3.1679389
0.2644412, -0.0142672, 2.24775, 0.0269165, 2.24775, -1.0095215, 2.24775, -0.1348267, 2.24775, 0.3206107, 2.24775, 1.3206106, 2.24775, -3.2061069
0.2652353, -0.0115816, 2.2545, 0.0250244, 2.2545, -1.0155029, 2.2545, -0.1262817, 2.2545, 0.221374, 2.2545, 1.091603, 2.2545, -3.0763359
0.2660294, -0.012253, 2.26125, 0.0289917, 2.26125, -1.0184326, 2.26125, -0.1290894, 2.26125, 0.1832061, 2.26125, 1.221374, 2.26125, -2.8778627
0.2668235, -0.0151064, 2.268, 0.0255737, 2.268, -1.0178223, 2.268, -0.1265869, 2.268, 0.0534351, 2.268, 1.6259542, 2.268, -2.6412213
0.2676176, -0.0142672, 2.27475, 0.0231934, 2.27475, -1.0148315, 2.27475, -0.121521, 2.27475, 0.5114504, 2.27475, 1.0534351, 2.27475, -2.8625953
0.2684118, -0.0169528, 2.2815, 0.0244751, 2.2815, -1.0137939, 2.2815, -0.124939, 2.2815, 0.8854962, 2.2815, 1.3816794, 2.2815, -2.9007633
0.2692059, -0.0182956, 2.28825, 0.0281372, 2.28825, -1.0111084, 2.28825, -0.1293335, 2.28825, 1.0839695, 2.28825, 1.351145, 2.28825, -2.9770992
0.27, -0.0154421, 2.295, 0.0266113, 2.295, -1.0115967, 2.295, -0.1363525, 2.295, 1.2519084, 2.295, 1.2442749, 2.295, -2.9541984
0.2707941, -0.0169528, 2.30175, 0.0181274, 2.30175, -1.0114136, 2.30175, -0.1346436, 2.30175, 1.1603054, 2.30175, 1, 2.30175, -2.6412213
0.2715882, -0.0206455, 2.3085, 0.0183105, 2.3085, -1.0054932, 2.3085, -0.1295166, 2.3085, 1.6183206, 2.3085, 0.7938932, 2.3085, -2.7328243
0.2723824, -0.0203098, 2.31525, 0.0180054, 2.31525, -1.0054932, 2.31525, -0.1307983, 2.31525, 1.8854961, 2.31525, 0.961832, 2.31525, -2.7175572
0.2731765, -0.0193027, 2.322, 0.0150146, 2.322, -1.0040283, 2.322, -0.137085, 2.322, 1.961832, 2.322, 1.0152671, 2.322, -2.519084
0.2739706, -0.0169528, 2.32875, 0.0134277, 2.32875, -1.0023804, 2.32875, -0.1334229, 2.32875, 2.4503818, 2.32875, 0.7862595, 2.32875, -2.4198472
0.2747647, -0.0169528, 2.3355, 0.0131836, 2.3355, -1.000061, 2.3355, -0.1334229, 2.3355, 2.7480917, 2.3355, 0.6793893, 2.3355, -2.4885497
0.2755588, -0.0146029, 2.34225, 0.013916, 2.34225, -0.9978638, 2.34225, -0.131897, 2.34225, 2.9694657, 2.34225, 0.9694657, 2.34225, -2.6030533
0.2763529, -0.0125887, 2.349, 0.0157471, 2.349, -0.9991455, 2.349, -0.1282349, 2.349, 2.7709923, 2.349, 0.480916, 2.349, -2.7709923
0.2771471, -0.0082246, 2.35575, 0.0186157, 2.35575, -1.0049438, 2.35575, -0.1257324, 2.35575, 2.7251909, 2.35575, 0.1526718, 2.35575, -2.7480917
0.2779412, -0.0082246, 2.3625, 0.0178223, 2.3625, -1.0061646, 2.3625, -0.1186523, 2.3625, 2.961832, 2.3625, 0.1374046, 2.3625, -2.6183207
0.2787353, -0.0117494, 2.36925, 0.0176392, 2.36925, -1.0042114, 2.36925, -0.119751, 2.36925, 2.9465649, 2.36925, 0.1221374, 2.36925, -2.7099237
0.2795294, -0.0129244, 2.376, 0.020813, 2.376, -1.005127, 2.376, -0.1202393, 2.376, 2.7633588, 2.376, -0.1679389, 2.376, -2.6412213
0.2803235, -0.0149386, 2.38275, 0.0253906, 2.38275, -1.0054321, 2.38275, -0.1245117, 2.38275, 2.4274809, 2.38275, -0.221374, 2.38275, -2.610687
0.2811176, -0.01561, 2.3895, 0.0194702, 2.3895, -1.0116577, 2.3895, -0.1168213, 2.3895, 2.870229, 2.3895, -0.3129771, 2.3895, -2.7099237
0.2819118, -0.012253, 2.39625, 0.0205078, 2.39625, -1.0084229, 2.39625, -0.1182861, 2.39625, 3.0458016, 2.39625, 0.3206107, 2.39625, -2.5114503
0.2827059, -0.0142672, 2.403, 0.0217285, 2.403, -1.0055542, 2.403, -0.1234741, 2.403, 2.778626, 2.403, 0.8015267, 2.403, -2.2900763
0.2835, -0.0117494, 2.40975, 0.0197754, 2.40975, -1.0076294, 2.40975, -0.1213379, 2.40975, 2.6335878, 2.40975, 0.2366412, 2.40975, -2.4122138
0.2842941, -0.0115816, 2.4165, 0.0216064, 2.4165, -1.0057983, 2.4165, -0.1252441, 2.4165, 2.8167939, 2.4165, 0.0610687, 2.4165, -2.4427481
0.2850882, -0.0135958, 2.42325, 0.0198364, 2.42325, -1.0053101, 2.42325, -0.1254272, 2.42325, 2.6412213, 2.42325, 0.1679389, 2.42325, -2.3664122
0.2858824, -0.0135958, 2.43, 0.0213013, 2.43, -1.0042725, 2.43, -0.1231689, 2.43, 2.8396947, 2.43, 0.2977099, 2.43, -2.2519083
0.2866765, -0.0135958, 2.43675, 0.0231323, 2.43675, -1.0028687, 2.43675, -0.1201782, 2.43675, 2.8625953, 2.43675, -0.1374046, 2.43675, -2.3358779
0.2874706, -0.0149386, 2.4435, 0.0167847, 2.4435, -1.0070801, 2.4435, -0.1201782, 2.4435, 3.1145039, 2.4435, -0.6793893, 2.4435, -2.3053436
0.2882647, -0.012253, 2.45025, 0.0185547, 2.45025, -1.0050049, 2.45025, -0.1220093, 2.45025, 2.7328243, 2.45025, -0.221374, 2.45025, -2.4580152
0.2890588, -0.0105745, 2.457, 0.0194702, 2.457, -1.0074463, 2.457, -0.114502, 2.457, 2.9160306, 2.457, -0.2137405, 2.457, -2.3358779
0.2898529, -0.008896, 2.46375, 0.017395, 2.46375, -1.0050049, 2.46375, -0.1165161, 2.46375, 3.0610688, 2.46375, -0.3129771, 2.46375, -2.4351146
0.2906471, -0.0117494, 2.4705, 0.015625, 2.4705, -1.0057373, 2.4705, -0.1184082, 2.4705, 2.9236641, 2.4705, -0.5038168, 2.4705, -2.2824428
0.2914412, -0.0119173, 2.47725, 0.0147095, 2.47725, -1.0037842, 2.47725, -0.1171875, 2.47725, 2.7175572, 2.47725, -0.5343512, 2.47725, -2.2824428
0.2922353, -0.011078, 2.484, 0.0192871, 2.484, -1.0037231, 2.484, -0.1151733, 2.484, 2.8396947, 2.484, -0.4503817, 2.484, -2.389313
0.2930294, -0.0099031, 2.49075, 0.0187378, 2.49075, -1.0067749, 2.49075, -0.1141357, 2.49075, 2.8015268, 2.49075, -0.4198473, 2.49075, -2.4122138
0.2938235, -0.0085603, 2.4975, 0.0211182, 2.4975, -1.0045166, 2.4975, -0.1178589, 2.4975, 2.6335878, 2.4975, -0.7557252, 2.4975, -2.4503818
0.2946176, -0.0132601, 2.50425, 0.0194092, 2.50425, -1.0091553, 2.50425, -0.1182861, 2.50425, 2.7175572, 2.50425, -0.778626, 2.50425, -2.4122138
0.2954118, -0.0179599, 2.511, 0.0147705, 2.511, -1.0066528, 2.511, -0.1221924, 2.511, 2.7328243, 2.511, -0.610687, 2.511, -2.3129771
0.2962059, -0.0164492, 2.51775, 0.0155029, 2.51775, -1.0046997, 2.51775, -0.1221924, 2.51775, 2.6717558, 2.51775, -0.4885496, 2.51775, -2.3664122
0.297, -0.0149386, 2.5245, 0.0112305, 2.5245, -1.0026245, 2.5245, -0.1177368, 2.5245, 2.6259542, 2.5245, -0.8854962, 2.5245, -2.4274809
0.2977941, -0.0162814, 2.53125, 0.0155029, 2.53125, -1.0019531, 2.53125, -0.1191406, 2.53125, 2.5114503, 2.53125, -1.0687023, 2.53125, -2.2290077
0.2985882, -0.0139315, 2.538, 0.0154419, 2.538, -1.0061035, 2.538, -0.1188965, 2.538, 2.2748091, 2.538, -1.2748091, 2.538, -2.3969467
0.2993824, -0.0149386, 2.54475, 0.0159912, 2.54475, -1.0036621, 2.54475, -0.1184692, 2.54475, 2.6870229, 2.54475, -1.7557251, 2.54475, -2.4732823
0.3001765, -0.014435, 2.5515, 0.0140381, 2.5515, -1.0037842, 2.5515, -0.1182251, 2.5515, 2.4885497, 2.5515, -1.7328244, 2.5515, -2.3816793
0.3009706, -0.0169528, 2.55825, 0.0166016, 2.55825, -1.0050049, 2.55825, -0.1142578, 2.55825, 2.4351146, 2.55825, -1.7175573, 2.55825, -2.5267177
0.3017647, -0.0182956, 2.565, 0.019104, 2.565, -1.0071411, 2.565, -0.1137695, 2.565, 2.221374, 2.565, -2.1221373, 2.565, -2.5343511
0.3025588, -0.0159457, 2.57175, 0.0185547, 2.57175, -1.008606, 2.57175, -0.1187744, 2.57175, 2.1450381, 2.57175, -2.0305343, 2.57175, -2.351145
0.3033529, -0.0171206, 2.5785, 0.017395, 2.5785, -1.0123901, 2.5785, -0.1188965, 2.5785, 1.6030535, 2.5785, -1.9389313, 2.5785, -2.4732823
0.3041471, -0.0179599, 2.58525, 0.0180664, 2.58525, -1.0143433, 2.58525, -0.1184692, 2.58525, 1.4045801, 2.58525, -1.9160305, 2.58525, -2.4351146
0.3049412, -0.0193027, 2.592, 0.0186157, 2.592, -1.0109253, 2.592, -0.1155396, 2.592, 0.9236641, 2.592, -1.7175573, 2.592, -2.2748091
0.3057353, -0.0179599, 2.59875, 0.0165405, 2.59875, -1.0074463, 2.59875, -0.1166992, 2.59875, 0.7328244, 2.59875, -1.8320611, 2.59875, -2.3664122
0.3065294, -0.0172885, 2.6055, 0.0137329, 2.6055, -1.0066528, 2.6055, -0.1144409, 2.6055, 0.6335878, 2.6055, -1.8167939, 2.6055, -2.5877862
0.3073235, -0.0129244, 2.61225, 0.0163574, 2.61225, -1.0061646, 2.61225, -0.1156616, 2.61225, 0.7938932, 2.61225, -1.870229, 2.61225, -2.2977099
0.3081176, -0.0119173, 2.619, 0.0176392, 2.619, -1.0064697, 2.619, -0.1124268, 2.619, 0.8854962, 2.619, -1.6030535, 2.619, -2.4198472
0.3089118, -0.0134279, 2.62575, 0.017334, 2.62575, -1.0075684, 2.62575, -0.1161499, 2.62575, 1.0458015, 2.62575, -1.7633588, 2.62575, -2.389313
0.3097059, -0.0102388, 2.6325, 0.015564, 2.6325, -1.0067139, 2.6325, -0.1160889, 2.6325, 1.0152671, 2.6325, -1.5801526, 2.6325, -2.3129771
0.3105, -0.0048676, 2.63925, 0.0145264, 2.63925, -1.0014648, 2.63925, -0.1210938, 2.63925, 1.2519084, 2.63925, -1.4580153, 2.63925, -2.4427481
0.3112941, -0.0041962, 2.646, 0.0144653, 2.646, -1.0028076, 2.646, -0.1222534, 2.646, 1.0763359, 2.646, -1.2366412, 2.646, -2.4427481
0.3120882, -0.0065461, 2.65275, 0.0128174, 2.65275, -1.0038452, 2.65275, -0.1211548, 2.65275, 1.3740458, 2.65275, -1.3358779, 2.65275, -2.3282442
0.3128824, -0.0068818, 2.6595, 0.0117188, 2.6595, -1.0029297, 2.6595, -0.1193237, 2.6595, 1.4351145, 2.6595, -1.5114504, 2.6595, -2.4351146
0.3136765, -0.0085603, 2.66625, 0.0113525, 2.66625, -1.005127, 2.66625, -0.1193848, 2.66625, 1.3816794, 2.66625, -1.1374046, 2.66625, -2.3587787
0.3144706, -0.0095674, 2.673, 0.0135498, 2.673, -1.0059814, 2.673, -0.1212158, 2.673, 1.389313, 2.673, -1.1221374, 2.673, -2.3282442
0.3152647, -0.0102388, 2.67975, 0.0136108, 2.67975, -1.0067139, 2.67975, -0.1254272, 2.67975, 1.5572519, 2.67975, -1.259542, 2.67975, -2.3740458
0.3160588, -0.0097353, 2.6865, 0.0181274, 2.6865, -1.0066528, 2.6865, -0.1210938, 2.6865, 1.4656489, 2.6865, -1.0687023, 2.6865, -2.389313
0.3168529, -0.0102388, 2.69325, 0.0147705, 2.69325, -1.0073853, 2.69325, -0.1206665, 2.69325, 1.7557251, 2.69325, -0.8473282, 2.69325, -2.3969467
0.3176471, -0.0124208, 2.7, 0.0139771, 2.7, -1.006897, 2.7, -0.1138306, 2.7, 1.8473282, 2.7, -0.8549618, 2.7, -2.2824428
0.3184412, -0.014435, 2.70675, 0.0148926, 2.70675, -1.0068359, 2.70675, -0.1165161, 2.70675, 1.908397, 2.70675, -0.5496183, 2.70675, -2.4351146
0.3192353, -0.0157778, 2.7135, 0.013855, 2.7135, -1.0050049, 2.7135, -0.1167603, 2.7135, 1.9770992, 2.7135, -0.5648855, 2.7135, -2.129771
0.3200294, -0.01561, 2.72025, 0.0178223, 2.72025, -1.0085449, 2.72025, -0.1192627, 2.72025, 1.4961832, 2.72025, -0.4732825, 2.72025, -2.3664122
0.3208235, -0.0166171, 2.727, 0.0199585, 2.727, -1.0083618, 2.727, -0.1152954, 2.727, 1.3664122, 2.727, -0.5954198, 2.727, -2.351145
0.3216176, -0.0135958, 2.73375, 0.0164185, 2.73375, -1.0068359, 2.73375, -0.1130371, 2.73375, 1.4885496, 2.73375, -0.6641222, 2.73375, -2.1450381
0.3224118, -0.0107424, 2.7405, 0.0150146, 2.7405, -1.0032349, 2.7405, -0.1152344, 2.7405, 1.1832061, 2.7405, -0.5343512, 2.7405, -2.2137403
0.3232059, -0.012253, 2.74725, 0.0141602, 2.74725, -1.0011597, 2.74725, -0.118103, 2.74725, 1.0839695, 2.74725, -0.6564885, 2.74725, -2.2824428
0.324, -0.0115816, 2.754, 0.0137329, 2.754, -1.0031738, 2.754, -0.119751, 2.754, 1.389313, 2.754, -0.6641222, 2.754, -2.1984732
0.3247941, -0.012253, 2.76075, 0.0161133, 2.76075, -1.005188, 2.76075, -0.1167603, 2.76075, 0.8854962, 2.76075, -0.5954198, 2.76075, -2.3129771
0.3255882, -0.0102388, 2.7675, 0.0125732, 2.7675, -1.0090942, 2.7675, -0.1200562, 2.7675, 0.9160305, 2.7675, -0.5343512, 2.7675, -2.1908398
0.3263824, -0.0104067, 2.77425, 0.0161133, 2.77425, -1.0093994, 2.77425, -0.1206055, 2.77425, 0.9160305, 2.77425, -0.351145, 2.77425, -2.259542
0.3271765, -0.0109102, 2.781, 0.0189209, 2.781, -1.0094604, 2.781, -0.1218262, 2.781, 1.0076336, 2.781, -0.1679389, 2.781, -2.4351146
0.3279706, -0.0095674, 2.78775, 0.0143433, 2.78775, -1.0092163, 2.78775, -0.119751, 2.78775, 1.0305344, 2.78775, 0.0076336, 2.78775, -2.1526718
0.3287647, -0.0119173, 2.7945, 0.0084229, 2.7945, -1.0148315, 2.7945, -0.1211548, 2.7945, 1.1526718, 2.7945, -0.0534351, 2.7945, -2.3587787
0.3295588, -0.0130922, 2.80125, 0.0060425, 2.80125, -1.0147095, 2.80125, -0.119812, 2.80125, 1.1603054, 2.80125, 0.0687023, 2.80125, -2.2824428
0.3303529, -0.0139315, 2.808, 0.0111084, 2.808, -1.0115967, 2.808, -0.1212769, 2.808, 1.0458015, 2.808, 0.1221374, 2.808, -2.0152671
0.3311471, -0.0169528, 2.81475, 0.0119019, 2.81475, -1.0124512, 2.81475, -0.1228027, 2.81475, 1.3282443, 2.81475, -0.0763359, 2.81475, -2.1984732
0.3319412, -0.018967, 2.8215, 0.0149536, 2.8215, -1.0083008, 2.8215, -0.119873, 2.8215, 1.3435115, 2.8215, -0.2290076, 2.8215, -2.2442749
0.3327353, -0.0176242, 2.82825, 0.0153198, 2.82825, -1.0076294, 2.82825, -0.12146, 2.82825, 1.4198474, 2.82825, 0, 2.82825, -2.3282442
0.3335294, -0.0186313, 2.835, 0.0167847, 2.835, -1.0072021, 2.835, -0.1213379, 2.835, 1.648855, 2.835, 0.1679389, 2.835, -2.519084
0.3343235, -0.0193027, 2.84175, 0.0113525, 2.84175, -1.0045776, 2.84175, -0.1219482, 2.84175, 1.6412214, 2.84175, 0.3053435, 2.84175, -2.2671757
0.3351176, -0.0166171, 2.8485, 0.0112915, 2.8485, -1.0063477, 2.8485, -0.1185913, 2.8485, 1.6412214, 2.8485, 0.3358779, 2.8485, -2.2748091
0.3359118, -0.018967, 2.85525, 0.0097656, 2.85525, -1.0055542, 2.85525, -0.119812, 2.85525, 1.9923664, 2.85525, 0.3435115, 2.85525, -2.3053436
0.3367059, -0.0201419, 2.862, 0.0030518, 2.862, -1.0023804, 2.862, -0.1190796, 2.862, 2.2824428, 2.862, 0.2137405, 2.862, -2.4351146
0.3375, -0.0196384, 2.86875, 0.0045776, 2.86875, -1.0043335, 2.86875, -0.1237183, 2.86875, 2.2671757, 2.86875, 0.1450382, 2.86875, -2.4656489
0.3382941, -0.0186313, 2.8755, 0.0056763, 2.8755, -1.003418, 2.8755, -0.1174927, 2.8755, 2.4427481, 2.8755, -0.1145038, 2.8755, -2.4122138
0.3390882, -0.0182956, 2.88225, 0.0046387, 2.88225, -1.0048828, 2.88225, -0.117981, 2.88225, 2.5801528, 2.88225, -0.0687023, 2.88225, -2.4045801
0.3398824, -0.0157778, 2.889, 0.0102539, 2.889, -1.0039062, 2.889, -0.1239624, 2.889, 2.221374, 2.889, -0.2519084, 2.889, -2.3053436
0.3406765, -0.0152743, 2.89575, 0.0115967, 2.89575, -1.0062256, 2.89575, -0.1242065, 2.89575, 2.0458016, 2.89575, -0.1832061, 2.89575, -2.3053436
0.3414706, -0.0146029, 2.9025, 0.0148926, 2.9025, -1.0093994, 2.9025, -0.1181641, 2.9025, 2.1832061, 2.9025, -0.1450382, 2.9025, -2.1145039
0.3422647, -0.0132601, 2.90925, 0.0149536, 2.90925, -1.0089111, 2.90925, -0.1151123, 2.90925, 2.480916, 2.90925, 0.3740458, 2.90925, -2.3587787
0.3430588, -0.0139315, 2.916, 0.0172119, 2.916, -1.0129395, 2.916, -0.1152344, 2.916, 2.8931298, 2.916, 0.8625954, 2.916, -2.2061069
0.3438529, -0.0162814, 2.92275, 0.0169678, 2.92275, -1.0101318, 2.92275, -0.1204834, 2.92275, 2.9312978, 2.92275, 0.8854962, 2.92275, -2.3053436
0.3446471, -0.0137636, 2.9295, 0.0185547, 2.9295, -1.0067139, 2.9295, -0.1239624, 2.9295, 3.1526718, 2.9295, 1.1603054, 2.9295, -2.389313
0.3454412, -0.0112459, 2.93625, 0.0103149, 2.93625, -1.0081787, 2.93625, -0.1220703, 2.93625, 3.1679389, 2.93625, 1.2671756, 2.93625, -2.2900763
0.3462353, -0.0104067, 2.943, 0.0075684, 2.943, -1.0059814, 2.943, -0.121521, 2.943, 3.5038168, 2.943, 1.389313, 2.943, -2.2748091
0.3470294, -0.0095674, 2.94975, 0.0020142, 2.94975, -1.0059204, 2.94975, -0.1210327, 2.94975, 3.6717558, 2.94975, 1.4580153, 2.94975, -2.4045801
0.3478235, -0.0105745, 2.9565, 6.1E-05, 2.9565, -1.0048218, 2.9565, -0.1217041, 2.9565, 3.8091602, 2.9565, 1.4198474, 2.9565, -2.2900763
0.3486176, -0.0112459, 2.96325, -0.0046387, 2.96325, -1.0041504, 2.96325, -0.1182861, 2.96325, 3.8854961, 2.96325, 1.7938931, 2.96325, -2.129771
0.3494118, -0.0129244, 2.97, -0.0002441, 2.97, -1.0038452, 2.97, -0.118042, 2.97, 3.8549619, 2.97, 2.0076337, 2.97, -1.9541985
0.3502059, -0.01561, 2.97675, -6.1E-05, 2.97675, -1.0050659, 2.97675, -0.1176147, 2.97675, 4.0839696, 2.97675, 1.480916, 2.97675, -2.1450381
0.351, -0.0193027, 2.9835, -0.0023193, 2.9835, -1.0039673, 2.9835, -0.1149292, 2.9835, 3.9847329, 2.9835, 1.2061069, 2.9835, -2.3816793
0.3517941, -0.0191348, 2.99025, -0.001709, 2.99025, -1.0061035, 2.99025, -0.1089478, 2.99025, 4.2137403, 2.99025, 1.1755725, 2.99025, -2.3053436
0.3525882, -0.0226596, 2.997, 0.0042114, 2.997, -1.0097656, 2.997, -0.105896, 2.997, 4.5725193, 2.997, 1.610687, 2.997, -2.129771
0.3533824, -0.023331, 3.00375, 0.0112915, 3.00375, -1.0077515, 3.00375, -0.1050415, 3.00375, 4.480916, 3.00375, 0.5572519, 3.00375, -2.4045801
0.3541765, -0.023331, 3.0105, 0.0141602, 3.0105, -1.0045776, 3.0105, -0.1013794, 3.0105, 4.9541984, 3.0105, -0.0305344, 3.0105, -2.740458
0.3549706, -0.0221561, 3.01725, 0.0150146, 3.01725, -1.0076294, 3.01725, -0.1032715, 3.01725, 5.1068702, 3.01725, 0.0839695, 3.01725, -2.7022901
0.3557647, -0.0216526, 3.024, 0.0150146, 3.024, -1.0073853, 3.024, -0.1124268, 3.024, 5.3893127, 3.024, -0.1679389, 3.024, -2.6717558
0.3565588, -0.0199741, 3.03075, 0.0117798, 3.03075, -1.006897, 3.03075, -0.119873, 3.03075, 5.2824426, 3.03075, 0.3587786, 3.03075, -2.7175572
0.3573529, -0.0169528, 3.0375, 0.0100098, 3.0375, -1.0031128, 3.0375, -0.1206055, 3.0375, 5.0305343, 3.0375, 0.6259542, 3.0375, -2.7709923
0.3581471, -0.0159457, 3.04425, 0.0080566, 3.04425, -1.0030518, 3.04425, -0.1166992, 3.04425, 5.1297708, 3.04425, 0.2900763, 3.04425, -2.9007633
0.3589412, -0.0124208, 3.051, -0.0003662, 3.051, -1.0025024, 3.051, -0.1187134, 3.051, 5.2671757, 3.051, -0.0305344, 3.051, -3.0992367
0.3597353, -0.0095674, 3.05775, -0.0123901, 3.05775, -1.0050049, 3.05775, -0.1165771, 3.05775, 5.3435116, 3.05775, 0.0229008, 3.05775, -3.1832061
0.3605294, -0.0092317, 3.0645, -0.0067749, 3.0645, -1.0016479, 3.0645, -0.1185913, 3.0645, 5.5343513, 3.0645, -0.5877863, 3.0645, -3.2366412
0.3613235, -0.0112459, 3.07125, -0.0130005, 3.07125, -1.0019531, 3.07125, -0.1224976, 3.07125, 5.6335878, 3.07125, -0.6259542, 3.07125, -3.1374047
0.3621176, -0.0132601, 3.078, -0.0076294, 3.078, -0.9984741, 3.078, -0.1182861, 3.078, 5.5496182, 3.078, -0.961832, 3.078, -3.1908398
0.3629118, -0.0169528, 3.08475, 0.0012207, 3.08475, -1.0028687, 3.08475, -0.1026611, 3.08475, 5.4198475, 3.08475, -1.2900764, 3.08475, -3.221374
0.3637059, -0.0181277, 3.0915, 0.0087891, 3.0915, -1.0083618, 3.0915, -0.1039429, 3.0915, 5.5954199, 3.0915, -0.5648855, 3.0915, -2.9694657
0.3645, -0.0184634, 3.09825, 0.0111694, 3.09825, -1.0126953, 3.09825, -0.1099854, 3.09825, 5.3206105, 3.09825, -0.1145038, 3.09825, -2.961832
0.3652941, -0.0193027, 3.105, 0.0124512, 3.105, -1.0080566, 3.105, -0.1081543, 3.105, 5.0687022, 3.105, 0.1068702, 3.105, -2.8931298
0.3660882, -0.0191348, 3.11175, 0.0144653, 3.11175, -1.006897, 3.11175, -0.1065674, 3.11175, 4.9007635, 3.11175, 0.2824427, 3.11175, -3.1145039
0.3668824, -0.017792, 3.1185, 0.0152588, 3.1185, -1.008728, 3.1185, -0.1091919, 3.1185, 4.7480917, 3.1185, 0.351145, 3.1185, -3.2824428
0.3676765, -0.0157778, 3.12525, 0.0154419, 3.12525, -1.0149536, 3.12525, -0.0953369, 3.12525, 4.7022901, 3.12525, 0.3129771, 3.12525, -3.3358779
0.3684706, -0.0135958, 3.132, 0.0130005, 3.132, -1.0125732, 3.132, -0.1008301, 3.132, 4.9770994, 3.132, 0.0076336, 3.132, -3.3435113
0.3692647, -0.0142672, 3.13875, 0.0131226, 3.13875, -1.0084229, 3.13875, -0.1004028, 3.13875, 4.7480917, 3.13875, 0.3969466, 3.13875, -3.3969467
0.3700588, -0.0130922, 3.1455, 0.0097656, 3.1455, -1.0081177, 3.1455, -0.09729, 3.1455, 4.7022901, 3.1455, 0.4351145, 3.1455, -3.6564887
0.3708529, -0.012253, 3.15225, 0.0022583, 3.15225, -1.0073853, 3.15225, -0.0946655, 3.15225, 4.7099237, 3.15225, 0.3969466, 3.15225, -3.6030533
0.3716471, -0.012253, 3.159, 0.0018921, 3.159, -1.0090332, 3.159, -0.0957642, 3.159, 4.9312978, 3.159, 0.4122137, 3.159, -3.480916
0.3724412, -0.0078889, 3.16575, 0.0037842, 3.16575, -1.0064087, 3.16575, -0.0961304, 3.16575, 4.9160304, 3.16575, 0.5496183, 3.16575, -3.5572519
0.3732353, -0.0011749, 3.1725, 0.0048828, 3.1725, -1.0015259, 3.1725, -0.1081543, 3.1725, 4.5343513, 3.1725, 0.5725191, 3.1725, -3.4732823
0.3740294, -0.0031891, 3.17925, 0.0020752, 3.17925, -1.0050049, 3.17925, -0.1012573, 3.17925, 4.3511453, 3.17925, 0.5877863, 3.17925, -3.1755726
0.3748235, -0.0048676, 3.186, 0.0026245, 3.186, -1.0048828, 3.186, -0.0957031, 3.186, 4.3282442, 3.186, 0.5038168, 3.186, -3.0458016
0.3756176, -0.0072175, 3.19275, 0.0020142, 3.19275, -1.0037231, 3.19275, -0.0984497, 3.19275, 4.3511453, 3.19275, 0.7938932, 3.19275, -3.1145039
0.3764118, -0.0078889, 3.1995, 0.0073242, 3.1995, -1.0007935, 3.1995, -0.0980225, 3.1995, 4.6564884, 3.1995, 0.6870229, 3.1995, -3.1221373
0.3772059, -0.0095674, 3.20625, 0.0098877, 3.20625, -1.0012817, 3.20625, -0.0998535, 3.20625, 4.4961834, 3.20625, 0.3358779, 3.20625, -3.1908398
0.378, -0.0102388, 3.213, 0.0132446, 3.213, -1.0027466, 3.213, -0.0945435, 3.213, 4.2290077, 3.213, 0.0152672, 3.213, -2.9465649
0.3787941, -0.012253, 3.21975, 0.0202026, 3.21975, -1.0093384, 3.21975, -0.0932617, 3.21975, 4.2442746, 3.21975, 0.3129771, 3.21975, -3.038168
0.3795882, -0.0119173, 3.2265, 0.0238037, 3.2265, -1.0099487, 3.2265, -0.0958862, 3.2265, 4.038168, 3.2265, 0.3053435, 3.2265, -2.8549619
0.3803824, -0.0166171, 3.23325, 0.0214844, 3.23325, -1.0088501, 3.23325, -0.0917969, 3.23325, 3.2748091, 3.23325, 0.389313, 3.23325, -2.8244274
0.3811765, -0.0162814, 3.24, 0.0187378, 3.24, -1.0112305, 3.24, -0.0889282, 3.24, 3.389313, 3.24, 0.3969466, 3.24, -3.2442749
0.3819706, -0.0176242, 3.24675, 0.0140381, 3.24675, -1.0127563, 3.24675, -0.085022, 3.24675, 3.4045801, 3.24675, -0.1984733, 3.24675, -3.2290077
0.3827647, -0.0179599, 3.2535, 0.0048828, 3.2535, -1.0093384, 3.2535, -0.0963135, 3.2535, 2.9465649, 3.2535, -0.2824427, 3.2535, -3.1145039
0.3835588, -0.0166171, 3.26025, 0.0033569, 3.26025, -1.0076294, 3.26025, -0.0946655, 3.26025, 2.8473282, 3.26025, -0.2519084, 3.26025, -2.8320611
0.3843529, -0.0213169, 3.267, 0.0024414, 3.267, -1.0094604, 3.267, -0.0909424, 3.267, 2.9847329, 3.267, -0.5572519, 3.267, -2.9236641
0.3851471, -0.0203098, 3.27375, 0.005188, 3.27375, -1.008728, 3.27375, -0.0892944, 3.27375, 3.8549619, 3.27375, -1.4351145, 3.27375, -3.1145039
0.3859412, -0.0196384, 3.2805, 0.0066528, 3.2805, -1.008728, 3.2805, -0.0948486, 3.2805, 3.7175572, 3.2805, -2.0992367, 3.2805, -3.3740458
0.3867353, -0.0184634, 3.28725, 0.0067139, 3.28725, -1.0134888, 3.28725, -0.09552, 3.28725, 3.5267177, 3.28725, -2.1832061, 3.28725, -3.4732823
0.3875294, -0.0176242, 3.294, 0.0067139, 3.294, -1.015686, 3.294, -0.0919189, 3.294, 3.5572519, 3.294, -2.221374, 3.294, -3.2137403
0.3883235, -0.0159457, 3.30075, 0.0022583, 3.30075, -1.0159302, 3.30075, -0.0858765, 3.30075, 3.6946564, 3.30075, -2.1755726, 3.30075, -3.129771
0.3891176, -0.01561, 3.3075, 0.0078125, 3.3075, -1.013855, 3.3075, -0.0856934, 3.3075, 3.7480917, 3.3075, -2.6259542, 3.3075, -3.2290077
0.3899118, -0.0157778, 3.31425, 0.0130615, 3.31425, -1.0108032, 3.31425, -0.0845337, 3.31425, 3.9160306, 3.31425, -3.038168, 3.31425, -3.4732823
0.3907059, -0.0109102, 3.321, 0.0105591, 3.321, -1.0073853, 3.321, -0.0914917, 3.321, 3.8396947, 3.321, -3.259542, 3.321, -3.5877862
0.3915, -0.0129244, 3.32775, 0.005249, 3.32775, -1.008667, 3.32775, -0.0916138, 3.32775, 3.6793892, 3.32775, -2.8091602, 3.32775, -3.5038168
0.3922941, -0.0161135, 3.3345, 0.006958, 3.3345, -1.008606, 3.3345, -0.0917969, 3.3345, 3.7557251, 3.3345, -2.9770992, 3.3345, -3.259542
0.3930882, -0.0146029, 3.34125, 0.0095825, 3.34125, -1.0053711, 3.34125, -0.09021, 3.34125, 4.038168, 3.34125, -3.2900763, 3.34125, -3.5572519
0.3938824, -0.0115816, 3.348, 0.0120239, 3.348, -1.0062866, 3.348, -0.0911865, 3.348, 4.1755724, 3.348, -3.4122138, 3.348, -3.6335878
0.3946765, -0.012253, 3.35475, 0.0111694, 3.35475, -1.0050049, 3.35475, -0.1000977, 3.35475, 3.961832, 3.35475, -3.1755726, 3.35475, -3.3435113
0.3954706, -0.0115816, 3.3615, 0.0074463, 3.3615, -1.0047607, 3.3615, -0.1057129, 3.3615, 3.5114503, 3.3615, -2.4351146, 3.3615, -3.519084
0.3962647, -0.0115816, 3.36825, 0.010376, 3.36825, -1.0068359, 3.36825, -0.1112061, 3.36825, 3.2442749, 3.36825, -2.1832061, 3.36825, -3.3664122
0.3970588, -0.0102388, 3.375, 0.0158691, 3.375, -1.0091553, 3.375, -0.1051636, 3.375, 2.7557251, 3.375, -2.1832061, 3.375, -3.2137403
0.3978529, -0.0176242, 3.38175, 0.0079956, 3.38175, -1.0095215, 3.38175, -0.1056519, 3.38175, 2.2900763, 3.38175, -1.9312977, 3.38175, -3.0534351
0.3986471, -0.018967, 3.3885, 0.0071411, 3.3885, -1.0090332, 3.3885, -0.1078491, 3.3885, 2.0687022, 3.3885, -1.0534351, 3.3885, -3.0076337
0.3994412, -0.0162814, 3.39525, 0.0090942, 3.39525, -1.0120239, 3.39525, -0.1011353, 3.39525, 2.5114503, 3.39525, -1.0687023, 3.39525, -3.3664122
0.4002353, -0.0182956, 3.402, 0.0092163, 3.402, -1.0101929, 3.402, -0.0942993, 3.402, 2.7557251, 3.402, -1.5954199, 3.402, -3.4961832
0.4010294, -0.0149386, 3.40875, 0.0010376, 3.40875, -1.010498, 3.40875, -0.0958862, 3.40875, 2.3206108, 3.40875, -1.9160305, 3.40875, -3.5267177
0.4018235, -0.0135958, 3.4155, -0.0029907, 3.4155, -1.0081787, 3.4155, -0.0983887, 3.4155, 2.4351146, 3.4155, -1.6946565, 3.4155, -3.4580152
0.4026176, -0.0146029, 3.42225, -0.0016479, 3.42225, -1.0093994, 3.42225, -0.0952759, 3.42225, 2.3740458, 3.42225, -1.7709924, 3.42225, -3.5801528
0.4034118, -0.0102388, 3.429, 0.0031128, 3.429, -1.0106812, 3.429, -0.0935059, 3.429, 2.908397, 3.429, -1.9236641, 3.429, -3.5572519
0.4042059, -0.0072175, 3.43575, 0.0100708, 3.43575, -1.0063477, 3.43575, -0.0929565, 3.43575, 2.7938931, 3.43575, -2.1832061, 3.43575, -3.6793892
0.405, -0.0075532, 3.4425, 0.0092773, 3.4425, -1.0092163, 3.4425, -0.0900269, 3.4425, 2.8015268, 3.4425, -2.1603053, 3.4425, -3.8091602
0.4057941, -0.0065461, 3.44925, 0.0078125, 3.44925, -1.0117798, 3.44925, -0.0891724, 3.44925, 2.6030533, 3.44925, -1.9694656, 3.44925, -3.5725191
0.4065882, -0.0072175, 3.456, 0.0072021, 3.456, -1.0130615, 3.456, -0.0919189, 3.456, 2.8320611, 3.456, -1.6412214, 3.456, -3.7938931
0.4073824, -0.012253, 3.46275, 0.0073853, 3.46275, -1.0103149, 3.46275, -0.0925293, 3.46275, 2.7633588, 3.46275, -1.2671756, 3.46275, -3.740458
0.4081765, -0.0109102, 3.4695, 0.0081177, 3.4695, -1.0085449, 3.4695, -0.09552, 3.4695, 2.6793892, 3.4695, -1.3435115, 3.4695, -3.8091602
0.4089706, -0.0109102, 3.47625, 0.0081177, 3.47625, -1.0089111, 3.47625, -0.0964966, 3.47625, 2.7633588, 3.47625, -1.4732825, 3.47625, -3.9236641
0.4097647, -0.0135958, 3.483, 0.0097046, 3.483, -1.0059814, 3.483, -0.0990601, 3.483, 2.5114503, 3.483, -1.6259542, 3.483, -3.740458
0.4105588, -0.0152743, 3.48975, 0.0090942, 3.48975, -1.0023193, 3.48975, -0.0952759, 3.48975, 2.6183207, 3.48975, -2.1908398, 3.48975, -4.038168
0.4113529, -0.0166171, 3.4965, 0.0131226, 3.4965, -1.0061035, 3.4965, -0.0933838, 3.4965, 2.8091602, 3.4965, -1.9541985, 3.4965, -3.8167939
0.4121471, -0.0171206, 3.50325, 0.0141602, 3.50325, -1.0060425, 3.50325, -0.0952759, 3.50325, 2.8015268, 3.50325, -1.9236641, 3.50325, -3.8091602
0.4129412, -0.0162814, 3.51, 0.0183716, 3.51, -1.0111694, 3.51, -0.0925293, 3.51, 2.7938931, 3.51, -2.0458016, 3.51, -3.7251909
0.4137353, -0.0206455, 3.51675, 0.017395, 3.51675, -1.0076294, 3.51675, -0.093689, 3.51675, 2.7709923, 3.51675, -1.4351145, 3.51675, -3.8091602
0.4145294, -0.0216526, 3.5235, 0.0193481, 3.5235, -1.0098877, 3.5235, -0.093689, 3.5235, 2.9007633, 3.5235, -1.1374046, 3.5235, -3.8167939
0.4153235, -0.0218204, 3.53025, 0.0176392, 3.53025, -1.0095825, 3.53025, -0.0926514, 3.53025, 2.6870229, 3.53025, -0.4274809, 3.53025, -3.7022901
0.4161176, -0.0236667, 3.537, 0.0162354, 3.537, -1.0084229, 3.537, -0.0983887, 3.537, 3.0534351, 3.537, -0.2671756, 3.537, -3.648855
0.4169118, -0.0243381, 3.54375, 0.012146, 3.54375, -1.0128174, 3.54375, -0.0939331, 3.54375, 2.8625953, 3.54375, -0.610687, 3.54375, -3.3816793
0.4177059, -0.0219883, 3.5505, 0.0085449, 3.5505, -1.012207, 3.5505, -0.0912476, 3.5505, 3.221374, 3.5505, -0.2900763, 3.5505, -3.3053436
0.4185, -0.0209812, 3.55725, 0.0085449, 3.55725, -1.0078125, 3.55725, -0.086731, 3.55725, 3.3435113, 3.55725, 0.2290076, 3.55725, -3.3969467
0.4192941, -0.0176242, 3.564, 0.0092163, 3.564, -1.0099487, 3.564, -0.0876465, 3.564, 3.1908398, 3.564, 0.3206107, 3.564, -3.3435113
0.4200882, -0.0196384, 3.57075, 0.0139771, 3.57075, -1.0108032, 3.57075, -0.0889282, 3.57075, 3.1374047, 3.57075, 0.4122137, 3.57075, -3.389313
0.4208824, -0.0198062, 3.5775, 0.0145874, 3.5775, -1.0102539, 3.5775, -0.0858154, 3.5775, 2.961832, 3.5775, 0.4503817, 3.5775, -3.3206108
0.4216765, -0.0174563, 3.58425, 0.0145874, 3.58425, -1.0109253, 3.58425, -0.0880127, 3.58425, 2.9236641, 3.58425, 0.6641222, 3.58425, -3.2824428
0.4224706, -0.0159457, 3.591, 0.0145874, 3.591, -1.0100708, 3.591, -0.0883789, 3.591, 2.4045801, 3.591, 0.9694657, 3.591, -3.3206108
0.4232647, -0.0179599, 3.59775, 0.0162354, 3.59775, -1.0080566, 3.59775, -0.0855713, 3.59775, 2.4427481, 3.59775, 0.9847328, 3.59775, -3.1068702
0.4240588, -0.0162814, 3.6045, 0.0147705, 3.6045, -1.0067139, 3.6045, -0.0883179, 3.6045, 2.3129771, 3.6045, 1.2977099, 3.6045, -3.0229008
0.4248529, -0.0151064, 3.61125, 0.0107422, 3.61125, -1.0093994, 3.61125, -0.0841064, 3.61125, 2.3358779, 3.61125, 1.4503816, 3.61125, -3.351145
0.4256471, -0.0132601, 3.618, 0.0114746, 3.618, -1.0082397, 3.618, -0.0817261, 3.618, 2.5725191, 3.618, 1.2900764, 3.618, -3.2290077
0.4264412, -0.012253, 3.62475, 0.0085449, 3.62475, -1.0096436, 3.62475, -0.0811768, 3.62475, 2.4885497, 3.62475, 1.4732825, 3.62475, -3.3129771
0.4272353, -0.0124208, 3.6315, 0.008667, 3.6315, -1.0057373, 3.6315, -0.0822754, 3.6315, 2.6412213, 3.6315, 1.5954199, 3.6315, -3.0687022
0.4280294, -0.0125887, 3.63825, 0.0115356, 3.63825, -1.0053101, 3.63825, -0.0847168, 3.63825, 2.5877862, 3.63825, 1.4503816, 3.63825, -3.0839694
0.4288235, -0.0166171, 3.645, 0.0107422, 3.645, -1.0079346, 3.645, -0.0819702, 3.645, 2.7022901, 3.645, 1.0152671, 3.645, -3.3358779
0.4296176, -0.0213169, 3.65175, 0.0147705, 3.65175, -1.0101929, 3.65175, -0.0776978, 3.65175, 2.7557251, 3.65175, 1.0992366, 3.65175, -3.3206108
0.4304118, -0.0219883, 3.6585, 0.0111084, 3.6585, -1.0097046, 3.6585, -0.078186, 3.6585, 2.8549619, 3.6585, 1.2442749, 3.6585, -3.3435113
0.4312059, -0.0206455, 3.66525, 0.0117798, 3.66525, -1.0056152, 3.66525, -0.081665, 3.66525, 2.6641221, 3.66525, 1.351145, 3.66525, -3.519084
0.432, -0.0191348, 3.672, 0.0074463, 3.672, -1.0043945, 3.672, -0.0845947, 3.672, 2.5496182, 3.672, 1.2900764, 3.672, -3.389313
0.4327941, -0.0203098, 3.67875, 0.0112305, 3.67875, -1.0048218, 3.67875, -0.0812378, 3.67875, 2.8015268, 3.67875, 1.4045801, 3.67875, -3.2366412
0.4335882, -0.0213169, 3.6855, 0.0095215, 3.6855, -1.0061646, 3.6855, -0.0803833, 3.6855, 2.6946564, 3.6855, 1.2442749, 3.6855, -3.3664122
0.4343824, -0.0206455, 3.69225, 0.0117188, 3.69225, -1.0083618, 3.69225, -0.0759888, 3.69225, 2.7175572, 3.69225, 0.8854962, 3.69225, -3.3435113
0.4351765, -0.0172885, 3.699, 0.0087891, 3.699, -1.0068359, 3.699, -0.076355, 3.699, 2.7022901, 3.699, 1.0229008, 3.699, -3.4122138
0.4359706, -0.0102388, 3.70575, 0.0071411, 3.70575, -1.0072021, 3.70575, -0.0795288, 3.70575, 2.6717558, 3.70575, 1.0992366, 3.70575, -3.3206108
0.4367647, -0.0075532, 3.7125, 0.008728, 3.7125, -1.0092163, 3.7125, -0.0778809, 3.7125, 2.7862597, 3.7125, 1.0763359, 3.7125, -3.3969467
0.4375588, -0.0099031, 3.71925, 0.0108643, 3.71925, -1.0064697, 3.71925, -0.0774536, 3.71925, 2.7480917, 3.71925, 1.0229008, 3.71925, -3.4961832
0.4383529, -0.0068818, 3.726, 0.0077515, 3.726, -1.0050049, 3.726, -0.0787354, 3.726, 2.8396947, 3.726, 1.2442749, 3.726, -3.2366412
0.4391471, -0.0085603, 3.73275, 0.0054932, 3.73275, -1.0020142, 3.73275, -0.0812378, 3.73275, 2.6259542, 3.73275, 1.1526718, 3.73275, -3.221374
0.4399412, -0.008896, 3.7395, 0.0061646, 3.7395, -1.0029907, 3.7395, -0.079895, 3.7395, 2.7099237, 3.7395, 0.5572519, 3.7395, -3.5343511
0.4407353, -0.0082246, 3.74625, 0.0032959, 3.74625, -1.0040894, 3.74625, -0.0809326, 3.74625, 2.6259542, 3.74625, 0.4503817, 3.74625, -3.7022901
0.4415294, -0.0082246, 3.753, 0.0036621, 3.753, -1.0031128, 3.753, -0.0797119, 3.753, 2.6030533, 3.753, 0.4427481, 3.753, -3.5801528
0.4423235, -0.0083925, 3.75975, 0.0039062, 3.75975, -1.0031128, 3.75975, -0.0791016, 3.75975, 2.5725191, 3.75975, 0.7251908, 3.75975, -3.4580152
0.4431176, -0.0119173, 3.7665, 0.0092773, 3.7665, -1.0018311, 3.7665, -0.0788574, 3.7665, 2.480916, 3.7665, 0.6335878, 3.7665, -3.5267177
0.4439118, -0.0139315, 3.77325, 0.0119019, 3.77325, -1.0039673, 3.77325, -0.076416, 3.77325, 2.2442749, 3.77325, 0.4351145, 3.77325, -3.3664122
0.4447059, -0.0115816, 3.78, 0.0147705, 3.78, -1.0047607, 3.78, -0.0778198, 3.78, 2.3129771, 3.78, 0.7557252, 3.78, -3.6183207
0.4455, -0.012253, 3.78675, 0.0117798, 3.78675, -1.0075684, 3.78675, -0.0804443, 3.78675, 2.1984732, 3.78675, 0.8015267, 3.78675, -3.6641221
0.4462941, -0.0181277, 3.7935, 0.0103149, 3.7935, -1.0119019, 3.7935, -0.0747681, 3.7935, 2.1832061, 3.7935, 0.9847328, 3.7935, -3.5725191
0.4470882, -0.0169528, 3.80025, 0.0087891, 3.80025, -1.0118408, 3.80025, -0.0802002, 3.80025, 2.3435113, 3.80025, 1.2748091, 3.80025, -3.5114503
0.4478824, -0.0135958, 3.807, 0.010437, 3.807, -1.0080566, 3.807, -0.0820312, 3.807, 2.0687022, 3.807, 0.8931298, 3.807, -3.5343511
0.4486765, -0.0135958, 3.81375, 0.0076294, 3.81375, -1.0064087, 3.81375, -0.0809326, 3.81375, 2.1984732, 3.81375, 0.7557252, 3.81375, -3.6183207
0.4494706, -0.0082246, 3.8205, 0.0064087, 3.8205, -1.0065918, 3.8205, -0.0872192, 3.8205, 1.9847329, 3.8205, 0.8167939, 3.8205, -3.740458
0.4502647, -0.0045319, 3.82725, 0.0067139, 3.82725, -1.006958, 3.82725, -0.0880127, 3.82725, 2.0076337, 3.82725, 0.6335878, 3.82725, -3.6183207
0.4510588, -0.0073854, 3.834, 0.0047607, 3.834, -1.0076294, 3.834, -0.0817871, 3.834, 1.9770992, 3.834, 0.5877863, 3.834, -3.5954199
0.4518529, -0.0043641, 3.84075, 0.0074463, 3.84075, -1.0123291, 3.84075, -0.0793457, 3.84075, 2.0534351, 3.84075, 0.1526718, 3.84075, -3.648855
0.4526471, -0.0095674, 3.8475, 0.0105591, 3.8475, -1.0134888, 3.8475, -0.078125, 3.8475, 2.259542, 3.8475, -0.0687023, 3.8475, -3.8167939
0.4534412, -0.011078, 3.85425, 0.0158081, 3.85425, -1.0126343, 3.85425, -0.0814819, 3.85425, 2.4732823, 3.85425, 0.0458015, 3.85425, -3.9007633
0.4542353, -0.0090639, 3.861, 0.0209961, 3.861, -1.0098267, 3.861, -0.0823975, 3.861, 2.2442749, 3.861, 0.4961832, 3.861, -3.6335878
0.4550294, -0.012253, 3.86775, 0.0195923, 3.86775, -1.0092773, 3.86775, -0.0780029, 3.86775, 2.2442749, 3.86775, 0.7022901, 3.86775, -3.5648854
0.4558235, -0.0152743, 3.8745, 0.0154419, 3.8745, -1.0093384, 3.8745, -0.0768433, 3.8745, 2.4961832, 3.8745, 0.8015267, 3.8745, -3.4427481
0.4566176, -0.0149386, 3.88125, 0.013916, 3.88125, -1.005249, 3.88125, -0.0747681, 3.88125, 2.6793892, 3.88125, 0.8244275, 3.88125, -3.5572519
0.4574118, -0.0159457, 3.888, 0.0135498, 3.888, -1.005127, 3.888, -0.0772095, 3.888, 2.7175572, 3.888, 0.9847328, 3.888, -3.4885497
0.4582059, -0.0169528, 3.89475, 0.0114136, 3.89475, -1.0082397, 3.89475, -0.0806274, 3.89475, 2.6641221, 3.89475, 1.3053435, 3.89475, -3.7328243
0.459, -0.0182956, 3.9015, 0.0109863, 3.9015, -1.0066528, 3.9015, -0.0817261, 3.9015, 2.6259542, 3.9015, 1.1450381, 3.9015, -3.5267177
0.4597941, -0.0139315, 3.90825, 0.0080566, 3.90825, -1.0067749, 3.90825, -0.0785522, 3.90825, 2.5877862, 3.90825, 0.6030535, 3.90825, -3.5114503
0.4605882, -0.0169528, 3.915, 0.0087891, 3.915, -1.0054321, 3.915, -0.0785522, 3.915, 2.8320611, 3.915, 0.6335878, 3.915, -3.5114503
0.4613824, -0.0182956, 3.92175, 0.0090942, 3.92175, -1.0092773, 3.92175, -0.0797119, 3.92175, 2.7557251, 3.92175, 0.740458, 3.92175, -3.5267177
0.4621765, -0.0172885, 3.9285, 0.0092163, 3.9285, -1.0067749, 3.9285, -0.0802612, 3.9285, 2.480916, 3.9285, 0.961832, 3.9285, -3.3129771
0.4629706, -0.018967, 3.93525, 0.0100708, 3.93525, -1.0067749, 3.93525, -0.081665, 3.93525, 2.4427481, 3.93525, 1.0763359, 3.93525, -3.2671757
0.4637647, -0.0218204, 3.942, 0.0124512, 3.942, -1.0076904, 3.942, -0.0792847, 3.942, 2.3664122, 3.942, 0.9541985, 3.942, -3.5419848
0.4645588, -0.0199741, 3.94875, 0.0123901, 3.94875, -1.0101318, 3.94875, -0.0775146, 3.94875, 2.2977099, 3.94875, 0.9694657, 3.94875, -3.5343511
0.4653529, -0.0186313, 3.9555, 0.0112305, 3.9555, -1.0107422, 3.9555, -0.076355, 3.9555, 2.5877862, 3.9555, 0.9770992, 3.9555, -3.3435113
0.4661471, -0.0169528, 3.96225, 0.0103149, 3.96225, -1.0106201, 3.96225, -0.0800171, 3.96225, 2.2900763, 3.96225, 1.259542, 3.96225, -3.2977099
0.4669412, -0.0203098, 3.969, 0.0092773, 3.969, -1.0089111, 3.969, -0.0800781, 3.969, 2.129771, 3.969, 1.4198474, 3.969, -3.3664122
0.4677353, -0.0216526, 3.97575, 0.010376, 3.97575, -1.0105591, 3.97575, -0.0759888, 3.97575, 2.2442749, 3.97575, 1.2671756, 3.97575, -3.3435113
0.4685294, -0.0176242, 3.9825, 0.0116577, 3.9825, -1.0108032, 3.9825, -0.0753784, 3.9825, 2.0610688, 3.9825, 1.2824427, 3.9825, -3.3129771
0.4693235, -0.0172885, 3.98925, 0.0130005, 3.98925, -1.0071411, 3.98925, -0.0732422, 3.98925, 2.0458016, 3.98925, 1.0305344, 3.98925, -3.3282442
0.4701176, -0.018967, 3.996, 0.0114746, 3.996, -1.0076294, 3.996, -0.0740967, 3.996, 2.1908398, 3.996, 0.8854962, 3.996, -3.3740458
0.4709118, -0.0171206, 4.00275, 0.0111694, 4.00275, -1.005249, 4.00275, -0.0742188, 4.00275, 1.9389313, 4.00275, 0.9389313, 4.00275, -3.4580152
0.4717059, -0.0162814, 4.0095, 0.0092163, 4.0095, -1.0015259, 4.0095, -0.0720825, 4.0095, 1.5114504, 4.0095, 1.0687023, 4.0095, -3.5038168
0.4725, -0.0152743, 4.01625, 0.0124512, 4.01625, -1.00354, 4.01625, -0.0699463, 4.01625, 1.5725191, 4.01625, 1.1221374, 4.01625, -3.4045801
0.4732941, -0.0129244, 4.023, 0.0134888, 4.023, -1.0026245, 4.023, -0.069458, 4.023, 1.5343511, 4.023, 1.2061069, 4.023, -3.3129771
0.4740882, -0.0115816, 4.02975, 0.0128174, 4.02975, -1.0026245, 4.02975, -0.0683594, 4.02975, 1.6717557, 4.02975, 1.3053435, 4.02975, -3.5038168
0.4748824, -0.011078, 4.0365, 0.010498, 4.0365, -1.0036621, 4.0365, -0.0731201, 4.0365, 1.389313, 4.0365, 1.6717557, 4.0365, -3.389313
0.4756765, -0.0112459, 4.04325, 0.0095215, 4.04325, -1.0029297, 4.04325, -0.0743408, 4.04325, 1.4961832, 4.04325, 1.5038168, 4.04325, -3.5038168
0.4764706, -0.0142672, 4.05, 0.0085449, 4.05, -1.0065308, 4.05, -0.0723877, 4.05, 1.3969465, 4.05, 1.3282443, 4.05, -3.5954199
0.4772647, -0.0176242, 4.05675, 0.0131226, 4.05675, -1.0048218, 4.05675, -0.0742798, 4.05675, 1.3816794, 4.05675, 1.4961832, 4.05675, -3.3129771
0.4780588, -0.0142672, 4.0635, 0.010498, 4.0635, -1.0059814, 4.0635, -0.0782471, 4.0635, 1.4580153, 4.0635, 1.2824427, 4.0635, -3.4732823
0.4788529, -0.0152743, 4.07025, 0.0081787, 4.07025, -1.0054932, 4.07025, -0.0775757, 4.07025, 1.4885496, 4.07025, 1.2137405, 4.07025, -3.5572519
0.4796471, -0.0142672, 4.077, 0.0125122, 4.077, -1.0092773, 4.077, -0.0730591, 4.077, 1.5114504, 4.077, 1.0687023, 4.077, -3.5114503
0.4804412, -0.0149386, 4.08375, 0.0111694, 4.08375, -1.0114746, 4.08375, -0.0738525, 4.08375, 1.4961832, 4.08375, 1.129771, 4.08375, -3.5038168
0.4812353, -0.0125887, 4.0905, 0.0079346, 4.0905, -1.0084839, 4.0905, -0.0715332, 4.0905, 1.4122137, 4.0905, 1.0076336, 4.0905, -3.4732823
0.4820294, -0.0125887, 4.09725, 0.0103149, 4.09725, -1.0093994, 4.09725, -0.0736084, 4.09725, 1.3206106, 4.09725, 0.870229, 4.09725, -3.6030533
0.4828235, -0.01561, 4.104, 0.0107422, 4.104, -1.0083008, 4.104, -0.072998, 4.104, 1.3816794, 4.104, 1.0763359, 4.104, -3.4732823
0.4836176, -0.0151064, 4.11075, 0.0111084, 4.11075, -1.0092773, 4.11075, -0.0730591, 4.11075, 1.3969465, 4.11075, 1.0534351, 4.11075, -3.2977099
0.4844118, -0.012253, 4.1175, 0.0103149, 4.1175, -1.0093994, 4.1175, -0.0769043, 4.1175, 1.5343511, 4.1175, 1.0763359, 4.1175, -3.480916
0.4852059, -0.0139315, 4.12425, 0.0107422, 4.12425, -1.006958, 4.12425, -0.078064, 4.12425, 1.4351145, 4.12425, 0.961832, 4.12425, -3.5648854
0.486, -0.0159457, 4.131, 0.0106201, 4.131, -1.0065308, 4.131, -0.0778198, 4.131, 1.4885496, 4.131, 0.8473282, 4.131, -3.4045801
0.4867941, -0.0154421, 4.13775, 0.0081177, 4.13775, -1.0078735, 4.13775, -0.0760498, 4.13775, 1.2137405, 4.13775, 1.0839695, 4.13775, -3.3969467
0.4875882, -0.0152743, 4.1445, 0.0100708, 4.1445, -1.0061646, 4.1445, -0.0767212, 4.1445, 0.9160305, 4.1445, 0.870229, 4.1445, -3.2290077
0.4883824, -0.01561, 4.15125, 0.0110474, 4.15125, -1.0062866, 4.15125, -0.0757446, 4.15125, 0.908397, 4.15125, 0.7557252, 4.15125, -3.3206108
0.4891765, -0.012253, 4.158, 0.0100098, 4.158, -1.0050659, 4.158, -0.072876, 4.158, 1.1908396, 4.158, 0.7862595, 4.158, -3.4351146
0.4899706, -0.0104067, 4.16475, 0.0132446, 4.16475, -1.0097656, 4.16475, -0.0742798, 4.16475, 1.2061069, 4.16475, 0.7862595, 4.16475, -3.4198472
0.4907647, -0.008896, 4.1715, 0.0130615, 4.1715, -1.0058594, 4.1715, -0.0735474, 4.1715, 1.3206106, 4.1715, 0.6564885, 4.1715, -3.3358779
0.4915588, -0.0092317, 4.17825, 0.015625, 4.17825, -1.0072632, 4.17825, -0.0775146, 4.17825, 1.259542, 4.17825, 0.7099237, 4.17825, -3.5114503
0.4923529, -0.0117494, 4.185, 0.0147705, 4.185, -1.0065918, 4.185, -0.0769043, 4.185, 1.1374046, 4.185, 1.1145039, 4.185, -3.5648854
0.4931471, -0.0099031, 4.19175, 0.0134888, 4.19175, -1.006958, 4.19175, -0.0747681, 4.19175, 1.2442749, 4.19175, 1.0610687, 4.19175, -3.2900763
0.4939412, -0.0135958, 4.1985, 0.0130615, 4.1985, -1.0074463, 4.1985, -0.0762329, 4.1985, 1.3587786, 4.1985, 1.1068702, 4.1985, -3.3206108
0.4947353, -0.0142672, 4.20525, 0.0103149, 4.20525, -1.0085449, 4.20525, -0.0791016, 4.20525, 1.3740458, 4.20525, 1.1908396, 4.20525, -3.3740458
0.4955294, -0.01561, 4.212, 0.0079346, 4.212, -1.0040894, 4.212, -0.0756226, 4.212, 1.351145, 4.212, 0.9465649, 4.212, -3.6793892
0.4963235, -0.0135958, 4.21875, 0.0084229, 4.21875, -1.0093384, 4.21875, -0.0795898, 4.21875, 1.3282443, 4.21875, 1.1450381, 4.21875, -3.7022901
0.4971176, -0.01561, 4.2255, 0.0103149, 4.2255, -1.0101318, 4.2255, -0.0760498, 4.2255, 1.4732825, 4.2255, 0.8549618, 4.2255, -3.4656489
0.4979118, -0.0169528, 4.23225, 0.0075684, 4.23225, -1.0108032, 4.23225, -0.0759888, 4.23225, 1.5572519, 4.23225, 0.8320611, 4.23225, -3.5954199
0.4987059, -0.0115816, 4.239, 0.0057983, 4.239, -1.0080566, 4.239, -0.0731812, 4.239, 1.6793894, 4.239, 0.7251908, 4.239, -3.351145
0.4995, -0.0129244, 4.24575, 0.0119019, 4.24575, -1.0098877, 4.24575, -0.0709229, 4.24575, 1.8396946, 4.24575, 0.4122137, 4.24575, -3.6641221
0.5002941, -0.0139315, 4.2525, 0.0128174, 4.2525, -1.0075684, 4.2525, -0.0737915, 4.2525, 1.6183206, 4.2525, 0.2519084, 4.2525, -3.6564887
0.5010882, -0.0132601, 4.25925, 0.0169067, 4.25925, -1.0048828, 4.25925, -0.0736084, 4.25925, 1.5419847, 4.25925, 0.3358779, 4.25925, -3.6717558
0.5018824, -0.0129244, 4.266, 0.0177002, 4.266, -1.0058594, 4.266, -0.0738525, 4.266, 1.3282443, 4.266, 0.3587786, 4.266, -3.6259542
0.5026765, -0.0127565, 4.27275, 0.0178223, 4.27275, -1.0089111, 4.27275, -0.0751343, 4.27275, 1.1984733, 4.27275, 0.6717557, 4.27275, -3.4732823
0.5034706, -0.0135958, 4.2795, 0.0209351, 4.2795, -1.0076294, 4.2795, -0.0716553, 4.2795, 1.1679389, 4.2795, 0.8320611, 4.2795, -3.4580152
0.5042647, -0.0129244, 4.28625, 0.0180054, 4.28625, -1.0095215, 4.28625, -0.0742188, 4.28625, 1.1145039, 4.28625, 0.9389313, 4.28625, -3.5496182
0.5050588, -0.0072175, 4.293, 0.0118408, 4.293, -1.0076904, 4.293, -0.076355, 4.293, 1.221374, 4.293, 0.9236641, 4.293, -3.4503818
0.5058529, -0.0072175, 4.29975, 0.0109863, 4.29975, -1.0062256, 4.29975, -0.0755615, 4.29975, 1.3053435, 4.29975, 0.7480916, 4.29975, -3.5877862
0.5066471, -0.0135958, 4.3065, 0.0095215, 4.3065, -1.0056152, 4.3065, -0.0730591, 4.3065, 1.1374046, 4.3065, 0.7709923, 4.3065, -3.3816793
0.5074412, -0.0159457, 4.31325, 0.0114746, 4.31325, -1.0072632, 4.31325, -0.0739136, 4.31325, 1.1832061, 4.31325, 0.9465649, 4.31325, -3.5038168
0.5082353, -0.0137636, 4.32, 0.013855, 4.32, -1.0078125, 4.32, -0.0752563, 4.32, 1.0458015, 4.32, 0.9465649, 4.32, -3.4961832
0.5090294, -0.012253, 4.32675, 0.013855, 4.32675, -1.0075073, 4.32675, -0.0737915, 4.32675, 1.1755725, 4.32675, 0.7175573, 4.32675, -3.4885497
0.5098235, -0.012253, 4.3335, 0.0134277, 4.3335, -1.0064697, 4.3335, -0.0743408, 4.3335, 1.1450381, 4.3335, 0.8320611, 4.3335, -3.5877862
0.5106176, -0.0129244, 4.34025, 0.0126343, 4.34025, -1.0094604, 4.34025, -0.074646, 4.34025, 1.0763359, 4.34025, 1.1450381, 4.34025, -3.4580152
0.5114118, -0.0166171, 4.347, 0.0119019, 4.347, -1.0092773, 4.347, -0.0750732, 4.347, 1.0687023, 4.347, 1.0839695, 4.347, -3.5038168
0.5122059, -0.0157778, 4.35375, 0.012207, 4.35375, -1.0074463, 4.35375, -0.0755615, 4.35375, 1.0152671, 4.35375, 1.0305344, 4.35375, -3.3969467
0.513, -0.0142672, 4.3605, 0.0133057, 4.3605, -1.0076904, 4.3605, -0.0776367, 4.3605, 1.0992366, 4.3605, 1.1832061, 4.3605, -3.389313
0.5137941, -0.0169528, 4.36725, 0.0093994, 4.36725, -1.0066528, 4.36725, -0.0753784, 4.36725, 1.1526718, 4.36725, 1.0839695, 4.36725, -3.4656489
0.5145882, -0.0152743, 4.374, 0.0102539, 4.374, -1.0061035, 4.374, -0.0772095, 4.374, 1.0305344, 4.374, 1.2977099, 4.374, -3.3969467
0.5153824, -0.0162814, 4.38075, 0.0139771, 4.38075, -1.0065918, 4.38075, -0.0751343, 4.38075, 1.1526718, 4.38075, 1.351145, 4.38075, -3.3129771
0.5161765, -0.0162814, 4.3875, 0.0123901, 4.3875, -1.0080566, 4.3875, -0.0762329, 4.3875, 1.1755725, 4.3875, 1.0534351, 4.3875, -3.480916
0.5169706, -0.0149386, 4.39425, 0.0147095, 4.39425, -1.0065918, 4.39425, -0.0759888, 4.39425, 1.0839695, 4.39425, 1.0610687, 4.39425, -3.3129771
0.5177647, -0.0179599, 4.401, 0.0147705, 4.401, -1.0066528, 4.401, -0.0727539, 4.401, 1.2061069, 4.401, 1.1374046, 4.401, -3.4885497
0.5185588, -0.018967, 4.40775, 0.0137939, 4.40775, -1.006958, 4.40775, -0.0762939, 4.40775, 1.5343511, 4.40775, 1.1450381, 4.40775, -3.1832061
0.5193529, -0.0166171, 4.4145, 0.0158691, 4.4145, -1.0050659, 4.4145, -0.0739136, 4.4145, 1.2824427, 4.4145, 0.9312977, 4.4145, -3.221374
0.5201471, -0.0142672, 4.42125, 0.0167236, 4.42125, -1.0031128, 4.42125, -0.074707, 4.42125, 1.0610687, 4.42125, 0.7633588, 4.42125, -3.1603053
0.5209412, -0.0125887, 4.428, 0.0170898, 4.428, -1.0061646, 4.428, -0.0733032, 4.428, 1.2977099, 4.428, 0.7099237, 4.428, -3.2519083
0.5217353, -0.0146029, 4.43475, 0.0147095, 4.43475, -1.0064087, 4.43475, -0.0772705, 4.43475, 1.351145, 4.43475, 0.9160305, 4.43475, -3.2519083
0.5225294, -0.014435, 4.4415, 0.0142212, 4.4415, -1.0048828, 4.4415, -0.0754395, 4.4415, 1.3206106, 4.4415, 1.2671756, 4.4415, -3.3129771
0.5233235, -0.012253, 4.44825, 0.0126343, 4.44825, -1.0067749, 4.44825, -0.0758057, 4.44825, 1.3816794, 4.44825, 0.8473282, 4.44825, -3.0610688
0.5241176, -0.0102388, 4.455, 0.0119019, 4.455, -1.0071411, 4.455, -0.0731812, 4.455, 1.5114504, 4.455, 0.7251908, 4.455, -3.3969467
0.5249118, -0.0149386, 4.46175, 0.0084839, 4.46175, -1.0062866, 4.46175, -0.0709229, 4.46175, 1.3282443, 4.46175, 0.6793893, 4.46175, -3.389313
0.5257059, -0.0149386, 4.4685, 0.008728, 4.4685, -1.0067749, 4.4685, -0.0752563, 4.4685, 1.4427481, 4.4685, 0.6183206, 4.4685, -3.3740458
0.5265, -0.0164492, 4.47525, 0.0092163, 4.47525, -1.0085449, 4.47525, -0.0739136, 4.47525, 1.351145, 4.47525, 0.6335878, 4.47525, -3.0992367
0.5272941, -0.017792, 4.482, 0.0106812, 4.482, -1.0064087, 4.482, -0.0716553, 4.482, 1.0992366, 4.482, 0.5496183, 4.482, -3.2671757
0.5280882, -0.0169528, 4.48875, 0.0107422, 4.48875, -1.0081177, 4.48875, -0.0713501, 4.48875, 0.6641222, 4.48875, 0.3435115, 4.48875, -3.221374
0.5288824, -0.0162814, 4.4955, 0.013916, 4.4955, -1.0043945, 4.4955, -0.0739136, 4.4955, 0.9160305, 4.4955, 0.3129771, 4.4955, -3.2442749
0.5296765, -0.0149386, 4.50225, 0.0147095, 4.50225, -1.0061035, 4.50225, -0.0745239, 4.50225, 0.8549618, 4.50225, 0.5038168, 4.50225, -3.2137403
0.5304706, -0.0142672, 4.509, 0.0162964, 4.509, -1.006958, 4.509, -0.0749512, 4.509, 0.6183206, 4.509, 0.740458, 4.509, -3.1450381
0.5312647, -0.0162814, 4.51575, 0.0175171, 4.51575, -1.0075684, 4.51575, -0.0731201, 4.51575, 0.8396947, 4.51575, 0.740458, 4.51575, -3.0152671
0.5320588, -0.0179599, 4.5225, 0.0171509, 4.5225, -1.0081177, 4.5225, -0.0703125, 4.5225, 0.8625954, 4.5225, 0.4885496, 4.5225, -3.2061069
0.5328529, -0.0169528, 4.52925, 0.0159912, 4.52925, -1.0090332, 4.52925, -0.0706787, 4.52925, 0.870229, 4.52925, 0.5648855, 4.52925, -3.091603
0.5336471, -0.0119173, 4.536, 0.0137329, 4.536, -1.0071411, 4.536, -0.0735474, 4.536, 0.870229, 4.536, 0.5419847, 4.536, -3.2900763
0.5344412, -0.0146029, 4.54275, 0.0118408, 4.54275, -1.0065308, 4.54275, -0.0773926, 4.54275, 0.7862595, 4.54275, 0.6564885, 4.54275, -3.1526718
0.5352353, -0.0146029, 4.5495, 0.0105591, 4.5495, -1.0065918, 4.5495, -0.0762329, 4.5495, 0.7633588, 4.5495, 0.8244275, 4.5495, -3.1603053
0.5360294, -0.012253, 4.55625, 0.0079956, 4.55625, -1.0097656, 4.55625, -0.0772095, 4.55625, 0.610687, 4.55625, 0.8396947, 4.55625, -3.2824428
0.5368235, -0.011078, 4.563, 0.0075073, 4.563, -1.010437, 4.563, -0.0752563, 4.563, 0.6870229, 4.563, 0.4732825, 4.563, -3.3358779
0.5376176, -0.012253, 4.56975, 0.0089722, 4.56975, -1.0060425, 4.56975, -0.0755005, 4.56975, 0.6259542, 4.56975, 0.1755725, 4.56975, -3.1832061
0.5384118, -0.012253, 4.5765, 0.0092163, 4.5765, -1.0047607, 4.5765, -0.0731812, 4.5765, 0.6183206, 4.5765, 0.221374, 4.5765, -3.0534351
0.5392059, -0.0152743, 4.58325, 0.0133057, 4.58325, -1.0029297, 4.58325, -0.0743408, 4.58325, 0.8091603, 4.58325, 0.2442748, 4.58325, -3.221374
0.54, -0.0132601, 4.59, 0.0128174, 4.59, -1.0059204, 4.59, -0.0725708, 4.59, 0.6870229, 4.59, 0.2366412, 4.59, -3.3435113
0.5407941, -0.0095674, 4.59675, 0.0147095, 4.59675, -1.0088501, 4.59675, -0.0707397, 4.59675, 0.6641222, 4.59675, 0.1679389, 4.59675, -3.2519083
0.5415882, -0.0099031, 4.6035, 0.0197754, 4.6035, -1.0090332, 4.6035, -0.0709229, 4.6035, 0.6870229, 4.6035, 0.1221374, 4.6035, -3.2366412
0.5423824, -0.0105745, 4.61025, 0.0197754, 4.61025, -1.0120239, 4.61025, -0.0741577, 4.61025, 0.908397, 4.61025, 0.6335878, 4.61025, -3.2442749
0.5431765, -0.008896, 4.617, 0.0177002, 4.617, -1.0108032, 4.617, -0.0771484, 4.617, 0.8549618, 4.617, 1.1679389, 4.617, -3.1068702
0.5439706, -0.0095674, 4.62375, 0.0130615, 4.62375, -1.0062256, 4.62375, -0.078064, 4.62375, 0.6641222, 4.62375, 1.3969465, 4.62375, -3.0534351
0.5447647, -0.0109102, 4.6305, 0.0089111, 4.6305, -1.0054932, 4.6305, -0.0723877, 4.6305, 0.5038168, 4.6305, 1.129771, 4.6305, -3.091603
0.5455588, -0.0105745, 4.63725, 0.0074463, 4.63725, -1.005127, 4.63725, -0.0750122, 4.63725, 0.6030535, 4.63725, 0.6793893, 4.63725, -3.2290077
0.5463529, -0.008896, 4.644, 0.006958, 4.644, -1.0056152, 4.644, -0.0749512, 4.644, 0.648855, 4.644, 0.5038168, 4.644, -3.1984732
0.5471471, -0.0085603, 4.65075, 0.005188, 4.65075, -1.003418, 4.65075, -0.074646, 4.65075, 0.6946565, 4.65075, 0.4274809, 4.65075, -3.0992367
0.5479412, -0.0099031, 4.6575, 0.0122681, 4.6575, -1.0072632, 4.6575, -0.0759888, 4.6575, 0.7099237, 4.6575, 0.259542, 4.6575, -3.129771
0.5487353, -0.0072175, 4.66425, 0.013855, 4.66425, -1.0097656, 4.66425, -0.0749512, 4.66425, 0.740458, 4.66425, 0.0763359, 4.66425, -3.1755726
0.5495294, -0.012253, 4.671, 0.0186157, 4.671, -1.0111084, 4.671, -0.0769653, 4.671, 0.7480916, 4.671, 0.2061069, 4.671, -3.0839694
0.5503235, -0.01561, 4.67775, 0.022583, 4.67775, -1.008728, 4.67775, -0.0791016, 4.67775, 0.8625954, 4.67775, 0.4885496, 4.67775, -3.0534351
0.5511176, -0.0176242, 4.6845, 0.0178223, 4.6845, -1.008667, 4.6845, -0.0810547, 4.6845, 0.7175573, 4.6845, 0.7938932, 4.6845, -3.0152671
0.5519118, -0.0152743, 4.69125, 0.0171509, 4.69125, -1.0095215, 4.69125, -0.0823364, 4.69125, 0.8396947, 4.69125, 1.0610687, 4.69125, -2.8931298
0.5527059, -0.0135958, 4.698, 0.0164795, 4.698, -1.010437, 4.698, -0.0765991, 4.698, 1.0839695, 4.698, 1.1603054, 4.698, -2.908397
0.5535, -0.0152743, 4.70475, 0.0078125, 4.70475, -1.0077515, 4.70475, -0.0806274, 4.70475, 1.1221374, 4.70475, 1.0076336, 4.70475, -3.0534351
0.5542941, -0.0149386, 4.7115, 0.0045166, 4.7115, -1.007019, 4.7115, -0.081543, 4.7115, 1.2061069, 4.7115, 0.8396947, 4.7115, -3.1679389
0.5550882, -0.01561, 4.71825, 0.0050659, 4.71825, -1.0075684, 4.71825, -0.0812988, 4.71825, 1.1068702, 4.71825, 0.7938932, 4.71825, -2.9847329
0.5558824, -0.0182956, 4.725, 0.0081177, 4.725, -1.0075684, 4.725, -0.0809937, 4.725, 1.0610687, 4.725, 0.7480916, 4.725, -2.9312978
0.5566765, -0.0162814, 4.73175, 0.0114136, 4.73175, -1.006958, 4.73175, -0.0806885, 4.73175, 1.0839695, 4.73175, 0.778626, 4.73175, -2.9847329
0.5574706, -0.0169528, 4.7385, 0.0137329, 4.7385, -1.0092163, 4.7385, -0.0770264, 4.7385, 1.0076336, 4.7385, 0.7022901, 4.7385, -3.0763359
0.5582647, -0.0166171, 4.74525, 0.0141602, 4.74525, -1.0090332, 4.74525, -0.0760498, 4.74525, 0.8015267, 4.74525, 0.6030535, 4.74525, -3.0305343
0.5590588, -0.012253, 4.752, 0.0168457, 4.752, -1.0106201, 4.752, -0.0760498, 4.752, 0.8320611, 4.752, 0.5954198, 4.752, -2.9236641
0.5598529, -0.0058747, 4.75875, 0.0180054, 4.75875, -1.0111084, 4.75875, -0.0754395, 4.75875, 0.8931298, 4.75875, 0.8396947, 4.75875, -2.9770992
0.5606471, -0.0082246, 4.7655, 0.0169067, 4.7655, -1.0084229, 4.7655, -0.072937, 4.7655, 0.9770992, 4.7655, 0.9312977, 4.7655, -3.2137403
0.5614412, -0.0115816, 4.77225, 0.0151978, 4.77225, -1.0103149, 4.77225, -0.0748291, 4.77225, 0.908397, 4.77225, 1.1145039, 4.77225, -3.0763359
0.5622353, -0.0176242, 4.779, 0.0159302, 4.779, -1.0054321, 4.779, -0.0764771, 4.779, 0.9312977, 4.779, 1.1221374, 4.779, -3.1603053
0.5630294, -0.0206455, 4.78575, 0.0132446, 4.78575, -1.0085449, 4.78575, -0.0821533, 4.78575, 0.7938932, 4.78575, 1.3740458, 4.78575, -2.9694657
0.5638235, -0.0216526, 4.7925, 0.0089722, 4.7925, -1.0050659, 4.7925, -0.0789185, 4.7925, 0.8015267, 4.7925, 1.3358779, 4.7925, -2.8320611
0.5646176, -0.0229953, 4.79925, 0.0076294, 4.79925, -1.0046997, 4.79925, -0.0778198, 4.79925, 0.9694657, 4.79925, 1.0229008, 4.79925, -3.1068702
0.5654118, -0.0229953, 4.806, 0.0050659, 4.806, -1.006958, 4.806, -0.0786133, 4.806, 0.778626, 4.806, 0.778626, 4.806, -3.2442749
0.5662059, -0.0206455, 4.81275, 0.0084839, 4.81275, -1.0066528, 4.81275, -0.0785522, 4.81275, 0.6870229, 4.81275, 0.6870229, 4.81275, -3.1984732
0.567, -0.0281987, 4.8195, 0.0099487, 4.8195, -1.0072021, 4.8195, -0.0778809, 4.8195, 0.9389313, 4.8195, 0.6259542, 4.8195, -3.1603053
0.5677941, -0.0303807, 4.82625, 0.0129395, 4.82625, -1.0061035, 4.82625, -0.0747681, 4.82625, 0.9770992, 4.82625, 0.7099237, 4.82625, -3.2671757
0.5685882, -0.0236667, 4.833, 0.0134888, 4.833, -1.0057373, 4.833, -0.0753174, 4.833, 0.9694657, 4.833, 1.0458015, 4.833, -3.0458016
0.5693824, -0.0223239, 4.83975, 0.013855, 4.83975, -1.006958, 4.83975, -0.0737915, 4.83975, 0.8931298, 4.83975, 0.9694657, 4.83975, -3.0534351
0.5701765, -0.0250095, 4.8465, 0.0132446, 4.8465, -1.0108032, 4.8465, -0.0748901, 4.8465, 0.8473282, 4.8465, 0.7480916, 4.8465, -3.1068702
0.5709706, -0.0223239, 4.85325, 0.0133057, 4.85325, -1.0079346, 4.85325, -0.0748291, 4.85325, 0.9007633, 4.85325, 0.9923664, 4.85325, -3.129771
0.5717647, -0.0229953, 4.86, 0.0145874, 4.86, -1.0075073, 4.86, -0.071228, 4.86, 0.7022901, 4.86, 0.9465649, 4.86, -3.129771
0.5725588, -0.0250095, 4.86675, 0.0174561, 4.86675, -1.0078125, 4.86675, -0.0730591, 4.86675, 0.6259542, 4.86675, 1.0687023, 4.86675, -3.2290077
0.5733529, -0.0229953, 4.8735, 0.0144043, 4.8735, -1.0075073, 4.8735, -0.0739136, 4.8735, 0.6259542, 4.8735, 0.9236641, 4.8735, -3.2900763
0.5741471, -0.018967, 4.88025, 0.0099487, 4.88025, -1.0089111, 4.88025, -0.0775146, 4.88025, 0.6641222, 4.88025, 0.870229, 4.88025, -3.4045801
0.5749412, -0.0157778, 4.887, 0.0108643, 4.887, -1.007019, 4.887, -0.0769043, 4.887, 0.778626, 4.887, 0.961832, 4.887, -3.129771
0.5757353, -0.0152743, 4.89375, 0.0106201, 4.89375, -1.0065308, 4.89375, -0.083374, 4.89375, 0.610687, 4.89375, 1.1755725, 4.89375, -3.1526718
0.5765294, -0.0117494, 4.9005, 0.0109863, 4.9005, -1.0067749, 4.9005, -0.0838623, 4.9005, 0.2366412, 4.9005, 1.2290076, 4.9005, -3.0305343
0.5773235, -0.0102388, 4.90725, 0.0111084, 4.90725, -1.010498, 4.90725, -0.0805664, 4.90725, 0.0152672, 4.90725, 0.7175573, 4.90725, -3.1526718
0.5781176, -0.0078889, 4.914, 0.0118408, 4.914, -1.006897, 4.914, -0.0790405, 4.914, -0.1450382, 4.914, 0.7328244, 4.914, -2.8778627
0.5789118, -0.0058747, 4.92075, 0.0116577, 4.92075, -1.0044556, 4.92075, -0.0807495, 4.92075, -0.4580153, 4.92075, 1.3816794, 4.92075, -2.908397
0.5797059, -0.0023499, 4.9275, 0.0153809, 4.9275, -1.0081177, 4.9275, -0.081665, 4.9275, -0.389313, 4.9275, 0.9923664, 4.9275, -3.0152671
0.5805, -0.0031891, 4.93425, 0.0128174, 4.93425, -1.0082397, 4.93425, -0.0784912, 4.93425, -0.5496183, 4.93425, 1.0458015, 4.93425, -2.9847329
0.5812941, -0.005539, 4.941, 0.0135498, 4.941, -1.0079346, 4.941, -0.0753174, 4.941, -0.9160305, 4.941, 1.4503816, 4.941, -2.7480917
0.5820882, -0.0068818, 4.94775, 0.0126343, 4.94775, -1.0114746, 4.94775, -0.0779419, 4.94775, -0.610687, 4.94775, 1.5954199, 4.94775, -2.5725191
0.5828824, -0.0127565, 4.9545, 0.0171509, 4.9545, -1.0083618, 4.9545, -0.0842285, 4.9545, -0.2366412, 4.9545, 1.3969465, 4.9545, -2.5877862
0.5836765, -0.014435, 4.96125, 0.0172729, 4.96125, -1.0083618, 4.96125, -0.0784302, 4.96125, -0.2519084, 4.96125, 1.4656489, 4.96125, -2.6946564
0.5844706, -0.0115816, 4.968, 0.0164795, 4.968, -1.008606, 4.968, -0.0742188, 4.968, 0.0381679, 4.968, 1.6030535, 4.968, -2.8473282
0.5852647, -0.0115816, 4.97475, 0.0118408, 4.97475, -1.0097656, 4.97475, -0.0755615, 4.97475, 0, 4.97475, 1.6793894, 4.97475, -2.7709923
0.5860588, -0.0146029, 4.9815, 0.0105591, 4.9815, -1.0087891, 4.9815, -0.0818481, 4.9815, -0.0076336, 4.9815, 1.4427481, 4.9815, -2.7557251
0.5868529, -0.0135958, 4.98825, 0.0107422, 4.98825, -1.0098267, 4.98825, -0.0773926, 4.98825, 0.3664122, 4.98825, 1.4503816, 4.98825, -2.908397
0.5876471, -0.0127565, 4.995, 0.0108032, 4.995, -1.0096436, 4.995, -0.0779419, 4.995, 0.3206107, 4.995, 1.2671756, 4.995, -2.9770992
0.5884412, -0.0151064, 5.00175, 0.008667, 5.00175, -1.0045776, 5.00175, -0.0773315, 5.00175, 0.4885496, 5.00175, 1.3129771, 5.00175, -2.9007633
0.5892353, -0.0135958, 5.0085, 0.006897, 5.0085, -1.0061646, 5.0085, -0.0793457, 5.0085, 0.7022901, 5.0085, 1.259542, 5.0085, -2.9389312
0.5900294, -0.0112459, 5.01525, 0.0045776, 5.01525, -1.0083618, 5.01525, -0.0797119, 5.01525, 0.8091603, 5.01525, 1.0687023, 5.01525, -3.038168
0.5908235, -0.0095674, 5.022, 0.003418, 5.022, -1.005249, 5.022, -0.0788574, 5.022, 1.0610687, 5.022, 0.7938932, 5.022, -3.1526718
0.5916176, -0.0109102, 5.02875, 0.0042725, 5.02875, -1.0050659, 5.02875, -0.0844116, 5.02875, 0.7862595, 5.02875, 0.7709923, 5.02875, -3.2290077
0.5924118, -0.012253, 5.0355, 0.0061035, 5.0355, -1.0044556, 5.0355, -0.0782471, 5.0355, 0.9389313, 5.0355, 0.5648855, 5.0355, -3.1908398
0.5932059, -0.0130922, 5.04225, 0.0092773, 5.04225, -1.0095215, 5.04225, -0.0778809, 5.04225, 0.9770992, 5.04225, 0.3358779, 5.04225, -3.2442749
0.594, -0.0146029, 5.049, 0.0118408, 5.049, -1.0106812, 5.049, -0.0786133, 5.049, 0.9923664, 5.049, 0.2442748, 5.049, -3.2748091
0.5947941, -0.0125887, 5.05575, 0.0119629, 5.05575, -1.0088501, 5.05575, -0.0780029, 5.05575, 0.870229, 5.05575, 0.0610687, 5.05575, -3.2671757
0.5955882, -0.01561, 5.0625, 0.015686, 5.0625, -1.0087891, 5.0625, -0.0780029, 5.0625, 1.1221374, 5.0625, 0.2519084, 5.0625, -3.4503818
0.5963824, -0.0169528, 5.06925, 0.0161743, 5.06925, -1.0077515, 5.06925, -0.083252, 5.06925, 0.6793893, 5.06925, 0.7022901, 5.06925, -3.221374
0.5971765, -0.0115816, 5.076, 0.0178833, 5.076, -1.0128784, 5.076, -0.0810547, 5.076, 0.778626, 5.076, 0.9236641, 5.076, -3.1984732
0.5979706, -0.0125887, 5.08275, 0.0184326, 5.08275, -1.0089722, 5.08275, -0.0797119, 5.08275, 0.961832, 5.08275, 0.8854962, 5.08275, -3.1450381
0.5987647, -0.0112459, 5.0895, 0.0151978, 5.0895, -1.0082397, 5.0895, -0.0796509, 5.0895, 1.0687023, 5.0895, 0.9541985, 5.0895, -3.0458016
0.5995588, -0.0130922, 5.09625, 0.0079346, 5.09625, -1.0065308, 5.09625, -0.0848389, 5.09625, 0.9770992, 5.09625, 1.2442749, 5.09625, -3.0687022
0.6003529, -0.0162814, 5.103, 0.0095215, 5.103, -1.0074463, 5.103, -0.0848999, 5.103, 1.0992366, 5.103, 1.0992366, 5.103, -2.961832
0.6011471, -0.0135958, 5.10975, 0.010498, 5.10975, -1.010376, 5.10975, -0.0795288, 5.10975, 1.2061069, 5.10975, 0.8625954, 5.10975, -3.1145039
0.6019412, -0.0142672, 5.1165, 0.0071411, 5.1165, -1.0093384, 5.1165, -0.0802002, 5.1165, 1.2519084, 5.1165, 0.610687, 5.1165, -2.9770992
0.6027353, -0.0135958, 5.12325, 0.0078735, 5.12325, -1.0073242, 5.12325, -0.0755005, 5.12325, 1.2366412, 5.12325, 0.6717557, 5.12325, -3.2290077
0.6035294, -0.0129244, 5.13, 0.0073853, 5.13, -1.0062866, 5.13, -0.0747681, 5.13, 1.221374, 5.13, 0.6946565, 5.13, -3.1908398
0.6043235, -0.012253, 5.13675, 0.0056152, 5.13675, -1.0057373, 5.13675, -0.0799561, 5.13675, 1.2671756, 5.13675, 0.5877863, 5.13675, -3.2824428
0.6051176, -0.0068818, 5.1435, 0.0053711, 5.1435, -1.0058594, 5.1435, -0.0764771, 5.1435, 1.4580153, 5.1435, 0.4503817, 5.1435, -3.1832061
0.6059118, -0.0065461, 5.15025, 0.0098877, 5.15025, -1.0097046, 5.15025, -0.072937, 5.15025, 1.3816794, 5.15025, 0.5725191, 5.15025, -3.1068702
0.6067059, -0.0119173, 5.157, 0.010498, 5.157, -1.00354, 5.157, -0.0740356, 5.157, 1.4580153, 5.157, 0.6259542, 5.157, -3.2671757
0.6075, -0.0092317, 5.16375, 0.0073853, 5.16375, -1.0065308, 5.16375, -0.0785522, 5.16375, 1.3816794, 5.16375, 0.5572519, 5.16375, -3.3358779
0.6082941, -0.0104067, 5.1705, 0.0095825, 5.1705, -1.0082397, 5.1705, -0.0762939, 5.1705, 1.3740458, 5.1705, 0.5343512, 5.1705, -3.221374
0.6090882, -0.010071, 5.17725, 0.0154419, 5.17725, -1.0061035, 5.17725, -0.0761108, 5.17725, 1.4045801, 5.17725, 0.4961832, 5.17725, -3.351145
0.6098824, -0.005539, 5.184, 0.0112305, 5.184, -1.0093994, 5.184, -0.0770264, 5.184, 1.3358779, 5.184, 0.6183206, 5.184, -3.2900763
0.6106765, -0.0048676, 5.19075, 0.0088501, 5.19075, -1.0097046, 5.19075, -0.0783691, 5.19075, 1.3129771, 5.19075, 0.5419847, 5.19075, -3.2137403
0.6114706, -0.0095674, 5.1975, 0.012085, 5.1975, -1.0088501, 5.1975, -0.0800171, 5.1975, 1.3129771, 5.1975, 0.7557252, 5.1975, -3.1908398
0.6122647, -0.0129244, 5.20425, 0.0127563, 5.20425, -1.0080566, 5.20425, -0.0830688, 5.20425, 1.4656489, 5.20425, 0.9160305, 5.20425, -3.221374
0.6130588, -0.0125887, 5.211, 0.0144043, 5.211, -1.0067139, 5.211, -0.0795288, 5.211, 1.5343511, 5.211, 1.038168, 5.211, -3.1832061
0.6138529, -0.0152743, 5.21775, 0.0123291, 5.21775, -1.0067749, 5.21775, -0.0792847, 5.21775, 1.4656489, 5.21775, 0.9847328, 5.21775, -3.2137403
0.6146471, -0.0206455, 5.2245, 0.0119019, 5.2245, -1.0068359, 5.2245, -0.0855103, 5.2245, 1.4580153, 5.2245, 0.610687, 5.2245, -3.4503818
0.6154412, -0.0243381, 5.23125, 0.0079346, 5.23125, -1.0062256, 5.23125, -0.0819702, 5.23125, 1.1145039, 5.23125, 0.2824427, 5.23125, -3.3129771
0.6162353, -0.0196384, 5.238, 0.0071411, 5.238, -1.0049438, 5.238, -0.0784912, 5.238, 1.1450381, 5.238, 0.6030535, 5.238, -3.4122138
0.6170294, -0.0203098, 5.24475, 0.0090332, 5.24475, -1.0072021, 5.24475, -0.076355, 5.24475, 1.1984733, 5.24475, 0.5496183, 5.24475, -3.4045801
0.6178235, -0.0216526, 5.2515, 0.0096436, 5.2515, -1.0060425, 5.2515, -0.0761108, 5.2515, 1.1755725, 5.2515, 0.3435115, 5.2515, -3.4045801
0.6186176, -0.0218204, 5.25825, 0.0087891, 5.25825, -1.006958, 5.25825, -0.076416, 5.25825, 0.9389313, 5.25825, 0.4503817, 5.25825, -3.3664122
0.6194118, -0.0231632, 5.265, 0.0048218, 5.265, -1.0083618, 5.265, -0.0787354, 5.265, 0.7938932, 5.265, 0.3587786, 5.265, -3.2748091
0.6202059, -0.0223239, 5.27175, 0.003418, 5.27175, -1.0108032, 5.27175, -0.0770874, 5.27175, 0.7099237, 5.27175, 0.4274809, 5.27175, -3.1526718
0.621, -0.0196384, 5.2785, 0.0061646, 5.2785, -1.0093994, 5.2785, -0.0771484, 5.2785, 0.6641222, 5.2785, 0.4122137, 5.2785, -3.2442749
0.6217941, -0.0157778, 5.28525, 0.0059814, 5.28525, -1.0089111, 5.28525, -0.0812378, 5.28525, 0.740458, 5.28525, 0.4274809, 5.28525, -3.1984732
0.6225882, -0.0179599, 5.292, 0.0092163, 5.292, -1.0075684, 5.292, -0.083374, 5.292, 0.648855, 5.292, 0.4580153, 5.292, -3.3053436
0.6233824, -0.018967, 5.29875, 0.0111694, 5.29875, -1.0080566, 5.29875, -0.0831299, 5.29875, 0.4198473, 5.29875, 0.4045801, 5.29875, -3.1679389
0.6241765, -0.0159457, 5.3055, 0.010498, 5.3055, -1.0097656, 5.3055, -0.0855103, 5.3055, 0.6259542, 5.3055, 0.3053435, 5.3055, -3.2748091
0.6249706, -0.0169528, 5.31225, 0.0135498, 5.31225, -1.0042114, 5.31225, -0.0806274, 5.31225, 0.6946565, 5.31225, 0.3358779, 5.31225, -3.3206108
0.6257647, -0.018967, 5.319, 0.0140381, 5.319, -1.0094604, 5.319, -0.0784302, 5.319, 0.7251908, 5.319, 0.1755725, 5.319, -3.1221373
0.6265588, -0.0171206, 5.32575, 0.0149536, 5.32575, -1.0085449, 5.32575, -0.0800171, 5.32575, 0.7022901, 5.32575, 0.4122137, 5.32575, -3.0992367
0.6273529, -0.0139315, 5.3325, 0.0169678, 5.3325, -1.0084839, 5.3325, -0.0789795, 5.3325, 0.7557252, 5.3325, 0.6183206, 5.3325, -3.2061069
0.6281471, -0.012253, 5.33925, 0.0179443, 5.33925, -1.0085449, 5.33925, -0.0786133, 5.33925, 0.8778626, 5.33925, 0.8244275, 5.33925, -3.1450381
0.6289412, -0.012253, 5.346, 0.0135498, 5.346, -1.0085449, 5.346, -0.0797729, 5.346, 0.8320611, 5.346, 1.1374046, 5.346, -3.1221373
0.6297353, -0.0149386, 5.35275, 0.0113525, 5.35275, -1.0064697, 5.35275, -0.0848999, 5.35275, 0.8778626, 5.35275, 1.1603054, 5.35275, -3.1221373
0.6305294, -0.0171206, 5.3595, 0.0088501, 5.3595, -1.0073242, 5.3595, -0.0840454, 5.3595, 0.9465649, 5.3595, 1.2137405, 5.3595, -3.0534351
0.6313235, -0.0182956, 5.36625, 0.0066528, 5.36625, -1.0078735, 5.36625, -0.0834351, 5.36625, 0.8931298, 5.36625, 1.0076336, 5.36625, -3.1984732
0.6321176, -0.018967, 5.373, 0.0057983, 5.373, -1.0092163, 5.373, -0.0805054, 5.373, 0.8244275, 5.373, 0.8473282, 5.373, -3.2977099
0.6329118, -0.01561, 5.37975, 0.0060425, 5.37975, -1.0099487, 5.37975, -0.0818481, 5.37975, 1.1068702, 5.37975, 0.5572519, 5.37975, -3.351145
0.6337059, -0.0146029, 5.3865, 0.0078735, 5.3865, -1.0102539, 5.3865, -0.0814209, 5.3865, 1.1679389, 5.3865, 0.519084, 5.3865, -3.3664122
0.6345, -0.0176242, 5.39325, 0.0061646, 5.39325, -1.0076904, 5.39325, -0.0834351, 5.39325, 1.1450381, 5.39325, 0.5114504, 5.39325, -3.2671757
0.6352941, -0.0186313, 5.4, 0.0082397, 5.4, -1.0094604, 5.4, -0.0805054, 5.4, 1.091603, 5.4, 0.4580153, 5.4, -3.4198472
0.6360882, -0.0182956, 5.40675, 0.0093994, 5.40675, -1.0078125, 5.40675, -0.0787964, 5.40675, 1.0305344, 5.40675, 0.2366412, 5.40675, -3.4503818
0.6368824, -0.0191348, 5.4135, 0.0098877, 5.4135, -1.0058594, 5.4135, -0.0819092, 5.4135, 1.0076336, 5.4135, 0.3969466, 5.4135, -3.4045801
0.6376765, -0.0231632, 5.42025, 0.0106812, 5.42025, -1.008728, 5.42025, -0.078186, 5.42025, 0.9389313, 5.42025, 0.6641222, 5.42025, -3.351145
0.6384706, -0.0243381, 5.427, 0.010498, 5.427, -1.0083618, 5.427, -0.0773926, 5.427, 1.0534351, 5.427, 0.6946565, 5.427, -3.480916
0.6392647, -0.0203098, 5.43375, 0.0117798, 5.43375, -1.0105591, 5.43375, -0.0764771, 5.43375, 0.9541985, 5.43375, 0.5801527, 5.43375, -3.3206108
0.6400588, -0.0199741, 5.4405, 0.0136108, 5.4405, -1.0108032, 5.4405, -0.0801392, 5.4405, 0.961832, 5.4405, 0.5038168, 5.4405, -3.4351146
0.6408529, -0.0142672, 5.44725, 0.0148315, 5.44725, -1.0075073, 5.44725, -0.0800171, 5.44725, 0.9007633, 5.44725, 0.6412213, 5.44725, -3.2519083
0.6416471, -0.0142672, 5.454, 0.010498, 5.454, -1.0065308, 5.454, -0.0819092, 5.454, 0.9236641, 5.454, 0.7633588, 5.454, -3.2671757
0.6424412, -0.0137636, 5.46075, 0.010498, 5.46075, -1.0065918, 5.46075, -0.0795898, 5.46075, 0.9236641, 5.46075, 0.8778626, 5.46075, -3.2519083
0.6432353, -0.0130922, 5.4675, 0.0129395, 5.4675, -1.0076294, 5.4675, -0.0773315, 5.4675, 0.7480916, 5.4675, 0.8473282, 5.4675, -3.3206108
0.6440294, -0.012253, 5.47425, 0.0098267, 5.47425, -1.0068359, 5.47425, -0.0772095, 5.47425, 0.8091603, 5.47425, 0.8015267, 5.47425, -3.2824428
0.6448235, -0.0135958, 5.481, 0.010376, 5.481, -1.0098267, 5.481, -0.078186, 5.481, 0.8549618, 5.481, 0.5267175, 5.481, -3.2442749
0.6456176, -0.0135958, 5.48775, 0.0119629, 5.48775, -1.0096436, 5.48775, -0.0773926, 5.48775, 1.1526718, 5.48775, 0.7709923, 5.48775, -3.2061069
0.6464118, -0.0135958, 5.4945, 0.0115356, 5.4945, -1.0041504, 5.4945, -0.0822754, 5.4945, 1.1526718, 5.4945, 1.0305344, 5.4945, -3.2519083
0.6472059, -0.0117494, 5.50125, 0.0127563, 5.50125, -1.0029297, 5.50125, -0.0809326, 5.50125, 0.9923664, 5.50125, 1.091603, 5.50125, -3.351145
0.648, -0.0182956, 5.508, 0.0098267, 5.508, -1.0028687, 5.508, -0.0805664, 5.508, 1.1984733, 5.508, 0.8549618, 5.508, -3.2137403
0.6487941, -0.0169528, 5.51475, 0.0087891, 5.51475, -1.0045166, 5.51475, -0.0780029, 5.51475, 1.4045801, 5.51475, 0.8244275, 5.51475, -3.351145
0.6495882, -0.017792, 5.5215, 0.0078735, 5.5215, -1.0076904, 5.5215, -0.0792236, 5.5215, 1.4198474, 5.5215, 0.9694657, 5.5215, -3.4503818
0.6503824, -0.0176242, 5.52825, 0.0062866, 5.52825, -1.0063477, 5.52825, -0.0807495, 5.52825, 1.351145, 5.52825, 0.9007633, 5.52825, -3.2824428
0.6511765, -0.0146029, 5.535, 0.0102539, 5.535, -1.0065918, 5.535, -0.081604, 5.535, 1.4427481, 5.535, 0.8473282, 5.535, -3.2977099
0.6519706, -0.0134279, 5.54175, 0.0133667, 5.54175, -1.0070801, 5.54175, -0.0819092, 5.54175, 1.2977099, 5.54175, 0.6412213, 5.54175, -3.2900763
0.6527647, -0.0115816, 5.5485, 0.0128784, 5.5485, -1.0055542, 5.5485, -0.0836792, 5.5485, 1.2519084, 5.5485, 0.3129771, 5.5485, -3.3129771
0.6535588, -0.0109102, 5.55525, 0.0123901, 5.55525, -1.0077515, 5.55525, -0.0787964, 5.55525, 1.3816794, 5.55525, 0.5572519, 5.55525, -3.4885497
0.6543529, -0.0078889, 5.562, 0.0137939, 5.562, -1.0114746, 5.562, -0.0835571, 5.562, 1.6183206, 5.562, 0.6030535, 5.562, -3.1908398
0.6551471, -0.005539, 5.56875, 0.0122681, 5.56875, -1.0087891, 5.56875, -0.0852051, 5.56875, 1.4045801, 5.56875, 0.7022901, 5.56875, -3.3053436
0.6559412, -0.005539, 5.5755, 0.0148926, 5.5755, -1.0102539, 5.5755, -0.0824585, 5.5755, 1.5114504, 5.5755, 0.5725191, 5.5755, -3.1984732
0.6567353, -0.0050355, 5.58225, 0.0169678, 5.58225, -1.0084229, 5.58225, -0.0808105, 5.58225, 1.4885496, 5.58225, 0.5267175, 5.58225, -3.3053436
0.6575294, -0.0070497, 5.589, 0.0142212, 5.589, -1.0084839, 5.589, -0.0853271, 5.589, 1.3358779, 5.589, 0.5038168, 5.589, -3.221374
0.6583235, -0.0075532, 5.59575, 0.0117798, 5.59575, -1.0076904, 5.59575, -0.0834961, 5.59575, 1.1374046, 5.59575, 0.3816794, 5.59575, -3.3282442
0.6591176, -0.0058747, 5.6025, 0.0101318, 5.6025, -1.0108643, 5.6025, -0.0758057, 5.6025, 1.1679389, 5.6025, 0.4732825, 5.6025, -3.4351146
0.6599118, -0.0050355, 5.60925, 0.0113525, 5.60925, -1.0094604, 5.60925, -0.0765991, 5.60925, 1.2671756, 5.60925, 0.5419847, 5.60925, -3.3206108
0.6607059, -0.0075532, 5.616, 0.0128784, 5.616, -1.0112305, 5.616, -0.0812378, 5.616, 1.129771, 5.616, 0.6870229, 5.616, -3.3053436
0.6615, -0.008896, 5.62275, 0.0083008, 5.62275, -1.0048218, 5.62275, -0.0802002, 5.62275, 1.351145, 5.62275, 0.6335878, 5.62275, -3.3129771
0.6622941, -0.0068818, 5.6295, 0.0098267, 5.6295, -1.006897, 5.6295, -0.0806274, 5.6295, 1.7480916, 5.6295, 0.6564885, 5.6295, -3.1832061
0.6630882, -0.008896, 5.63625, 0.0093384, 5.63625, -1.0058594, 5.63625, -0.0774536, 5.63625, 1.778626, 5.63625, 0.3969466, 5.63625, -3.3664122
0.6638824, -0.008896, 5.643, 0.0090332, 5.643, -1.0013428, 5.643, -0.0780029, 5.643, 1.7709924, 5.643, 0.1908397, 5.643, -3.4885497
0.6646765, -0.0065461, 5.64975, 0.0112915, 5.64975, -1.0084229, 5.64975, -0.0807495, 5.64975, 1.6641221, 5.64975, 0.2671756, 5.64975, -3.4274809
0.6654706, -0.0062104, 5.6565, 0.013916, 5.6565, -1.0064087, 5.6565, -0.0761108, 5.6565, 1.5496184, 5.6565, 0.1679389, 5.6565, -3.2748091
0.6662647, -0.0109102, 5.66325, 0.0128174, 5.66325, -1.0072632, 5.66325, -0.0778198, 5.66325, 1.6030535, 5.66325, 0.4732825, 5.66325, -3.2442749
0.6670588, -0.0135958, 5.67, 0.0146484, 5.67, -1.0090332, 5.67, -0.0783081, 5.67, 1.6564885, 5.67, 0.4961832, 5.67, -3.2748091
0.6678529, -0.0149386, 5.67675, 0.0172119, 5.67675, -1.008728, 5.67675, -0.0776367, 5.67675, 1.7099236, 5.67675, 0.6946565, 5.67675, -3.5114503
0.6686471, -0.0149386, 5.6835, 0.0129395, 5.6835, -1.0078735, 5.6835, -0.0774536, 5.6835, 1.610687, 5.6835, 0.6183206, 5.6835, -3.4580152
0.6694412, -0.01561, 5.69025, 0.0112305, 5.69025, -1.0076294, 5.69025, -0.0756836, 5.69025, 1.4427481, 5.69025, 0.6183206, 5.69025, -3.5572519
0.6702353, -0.0172885, 5.697, 0.0117188, 5.697, -1.0084839, 5.697, -0.0759888, 5.697, 1.5877863, 5.697, 0.648855, 5.697, -3.3740458
0.6710294, -0.0186313, 5.70375, 0.010376, 5.70375, -1.0092163, 5.70375, -0.0773315, 5.70375, 1.5267175, 5.70375, 0.6412213, 5.70375, -3.3053436
0.6718235, -0.0216526, 5.7105, 0.0119019, 5.7105, -1.0049438, 5.7105, -0.0761719, 5.7105, 1.5877863, 5.7105, 0.6335878, 5.7105, -3.480916
0.6726176, -0.0216526, 5.71725, 0.0133667, 5.71725, -1.0081177, 5.71725, -0.0778198, 5.71725, 1.519084, 5.71725, 0.8091603, 5.71725, -3.5114503
0.6734118, -0.0179599, 5.724, 0.0114746, 5.724, -1.0065918, 5.724, -0.081543, 5.724, 1.1755725, 5.724, 0.7328244, 5.724, -3.4961832
0.6742059, -0.0164492, 5.73075, 0.008606, 5.73075, -1.0093994, 5.73075, -0.083313, 5.73075, 1.0610687, 5.73075, 0.8091603, 5.73075, -3.2977099
0.675, -0.0162814, 5.7375, 0.0049438, 5.7375, -1.0095825, 5.7375, -0.0795288, 5.7375, 1.1145039, 5.7375, 0.610687, 5.7375, -3.3206108
0.6757941, -0.0130922, 5.74425, 0.0065918, 5.74425, -1.0074463, 5.74425, -0.0789185, 5.74425, 1.1068702, 5.74425, 0.6259542, 5.74425, -3.2442749
0.6765882, -0.0135958, 5.751, 0.0078125, 5.751, -1.0090942, 5.751, -0.0809326, 5.751, 1.1374046, 5.751, 0.519084, 5.751, -3.1755726
0.6773824, -0.0149386, 5.75775, 0.0077515, 5.75775, -1.007019, 5.75775, -0.0794678, 5.75775, 0.9847328, 5.75775, 0.5343512, 5.75775, -3.2519083
0.6781765, -0.0146029, 5.7645, 0.0106812, 5.7645, -1.0059814, 5.7645, -0.076355, 5.7645, 1.0076336, 5.7645, 0.1145038, 5.7645, -3.3587787
