Application:, Trigno Discover (1.7.0)
Date/Time:, 2026/9/9 上午 10:37:53
Collection Length (seconds):, 37.125
Avanti Sensor 11 (69574)
sensor mode: 50
EMG 1 Time Series (s), EMG 1 (mV), ACC X Time Series (s), ACC X (G), ACC Y Time Series (s), ACC Y (G), ACC Z Time Series (s), ACC Z (G), GYRO X Time Series (s), GYRO X (deg/s), GYRO Y Time Series (s), GYRO Y (deg/s), GYRO Z Time Series (s), GYRO Z (deg/s)
, 1259.2593 Hz, , 148.1481 Hz, , 148.1481 Hz, , 148.1481 Hz, , 148.1481 Hz, , 148.1481 Hz, , 148.1481 Hz
0, -0.0162814, 0, 0.0095825, 0, -1.0073242, 0, -0.1202393, 0, 1.1450381, 0, 1.1068702, 0, -3.389313
0.0007941, -0.0149386, 0.00675, 0.0093384, 0.00675, -1.0062256, 0.00675, -0.1195068, 0.00675, 1.0305344, 0.00675, 1.2290076, 0.00675, -3.2900763
0.0015882, -0.0182956, 0.0135, 0.0130005, 0.0135, -1.0049438, 0.0135, -0.1223145, 0.0135, 1.1526718, 0.0135, 1.5954199, 0.0135, -3.1679389
0.0023824, -0.0162814, 0.02025, 0.0114746, 0.02025, -1.0062256, 0.02025, -0.1223145, 0.02025, 0.9389313, 0.02025, 1.389313, 0.02025, -3.259542
0.0031765, -0.0162814, 0.027, 0.0063477, 0.027, -1.0062256, 0.027, -0.1237183, 0.027, 1.1145039, 0.027, 1, 0.027, -3.259542
0.0039706, -0.0169528, 0.03375, 0.0075073, 0.03375, -1.0054321, 0.03375, -0.1261597, 0.03375, 1.0229008, 0.03375, 0.870229, 0.03375, -3.4274809
0.0047647, -0.018967, 0.0405, 0.00354, 0.0405, -1.0088501, 0.0405, -0.1238403, 0.0405, 1.038168, 0.0405, 0.6183206, 0.0405, -3.3282442
0.0055588, -0.017792, 0.04725, 0.0055542, 0.04725, -1.006958, 0.04725, -0.119751, 0.04725, 1.3053435, 0.04725, 0.8091603, 0.04725, -3.5267177
0.0063529, -0.0171206, 0.054, 0.0039673, 0.054, -1.005249, 0.054, -0.1184692, 0.054, 1.5954199, 0.054, 0.908397, 0.054, -3.3358779
0.0071471, -0.0149386, 0.06075, 0.0079956, 0.06075, -1.005188, 0.06075, -0.1224976, 0.06075, 1.2824427, 0.06075, 0.8320611, 0.06075, -3.2061069
0.0079412, -0.0186313, 0.0675, 0.0078125, 0.0675, -1.0054932, 0.0675, -0.123291, 0.0675, 1.3282443, 0.0675, 0.7175573, 0.0675, -3.4580152
0.0087353, -0.0176242, 0.07425, 0.0082397, 0.07425, -1.0056763, 0.07425, -0.1258545, 0.07425, 1.2900764, 0.07425, 0.7328244, 0.07425, -3.4580152
0.0095294, -0.0119173, 0.081, 0.0115967, 0.081, -1.0064087, 0.081, -0.1242676, 0.081, 1.1374046, 0.081, 0.8854962, 0.081, -3.259542
0.0103235, -0.0132601, 0.08775, 0.0117188, 0.08775, -1.0094604, 0.08775, -0.1200562, 0.08775, 1.389313, 0.08775, 0.9312977, 0.08775, -3.4732823
0.0111176, -0.0169528, 0.0945, 0.0109863, 0.0945, -1.0096436, 0.0945, -0.1174927, 0.0945, 1.3435115, 0.0945, 0.6335878, 0.0945, -3.5114503
0.0119118, -0.0137636, 0.10125, 0.0080566, 0.10125, -1.0071411, 0.10125, -0.1168213, 0.10125, 1.4351145, 0.10125, 0.5648855, 0.10125, -3.4351146
0.0127059, -0.0146029, 0.108, 0.0062866, 0.108, -1.0075073, 0.108, -0.117981, 0.108, 1.5801526, 0.108, 0.7022901, 0.108, -3.3587787
0.0135, -0.0149386, 0.11475, 0.0059814, 0.11475, -1.0095215, 0.11475, -0.1176758, 0.11475, 1.4045801, 0.11475, 0.8091603, 0.11475, -3.4580152
0.0142941, -0.0135958, 0.1215, 0.0040283, 0.1215, -1.0092163, 0.1215, -0.123291, 0.1215, 1.1984733, 0.1215, 0.7099237, 0.1215, -3.3358779
0.0150882, -0.0127565, 0.12825, 0.0059814, 0.12825, -1.0037231, 0.12825, -0.1224976, 0.12825, 0.6259542, 0.12825, 0.8167939, 0.12825, -3.3587787
0.0158824, -0.01561, 0.135, 0.001709, 0.135, -1.0046997, 0.135, -0.1217041, 0.135, 0.4961832, 0.135, 0.5725191, 0.135, -3.3129771
0.0166765, -0.01561, 0.14175, 0.0046997, 0.14175, -1.006897, 0.14175, -0.1206665, 0.14175, 0.5267175, 0.14175, 0.3282443, 0.14175, -3.4885497
0.0174706, -0.0139315, 0.1485, 0.0029907, 0.1485, -1.0075684, 0.1485, -0.1187744, 0.1485, 0.610687, 0.1485, 0.2366412, 0.1485, -3.389313
0.0182647, -0.0139315, 0.15525, 0.0053101, 0.15525, -1.0056763, 0.15525, -0.1171875, 0.15525, 0.6717557, 0.15525, 0.259542, 0.15525, -3.5648854
0.0190588, -0.0112459, 0.162, 0.006958, 0.162, -1.0029297, 0.162, -0.121521, 0.162, 0.7480916, 0.162, 0.2290076, 0.162, -3.648855
0.0198529, -0.0109102, 0.16875, 0.0167236, 0.16875, -1.0040894, 0.16875, -0.117981, 0.16875, 0.7328244, 0.16875, 0.2061069, 0.16875, -3.3664122
0.0206471, -0.0129244, 0.1755, 0.0176392, 0.1755, -1.0080566, 0.1755, -0.1171265, 0.1755, 0.7480916, 0.1755, 0.4198473, 0.1755, -3.4122138
0.0214412, -0.0149386, 0.18225, 0.0166016, 0.18225, -1.006897, 0.18225, -0.1160278, 0.18225, 1.091603, 0.18225, 0.7557252, 0.18225, -3.2671757
0.0222353, -0.0159457, 0.189, 0.0148315, 0.189, -1.006958, 0.189, -0.1199341, 0.189, 1.0534351, 0.189, 1.1374046, 0.189, -3.480916
0.0230294, -0.0157778, 0.19575, 0.0115356, 0.19575, -1.0064697, 0.19575, -0.1201172, 0.19575, 1.1221374, 0.19575, 1.2290076, 0.19575, -3.3282442
0.0238235, -0.01561, 0.2025, 0.0071411, 0.2025, -1.0079346, 0.2025, -0.1201782, 0.2025, 1.1068702, 0.2025, 1.2366412, 0.2025, -3.3740458
0.0246176, -0.0164492, 0.20925, 0.0037231, 0.20925, -1.0077515, 0.20925, -0.1188354, 0.20925, 1.2977099, 0.20925, 1.3206106, 0.20925, -3.3664122
0.0254118, -0.0117494, 0.216, 0.0021973, 0.216, -1.0072632, 0.216, -0.1188354, 0.216, 1.0839695, 0.216, 1.221374, 0.216, -3.4961832
0.0262059, -0.0102388, 0.22275, 0.0053711, 0.22275, -1.0039673, 0.22275, -0.1220703, 0.22275, 1.1374046, 0.22275, 0.7709923, 0.22275, -3.3969467
0.027, -0.011078, 0.2295, 0.0064087, 0.2295, -1.0061035, 0.2295, -0.1257324, 0.2295, 1.0763359, 0.2295, 0.610687, 0.2295, -3.389313
0.0277941, -0.0102388, 0.23625, 0.0101318, 0.23625, -1.006897, 0.23625, -0.1246948, 0.23625, 1.1526718, 0.23625, 0.6030535, 0.23625, -3.1450381
0.0285882, -0.0117494, 0.243, 0.0099487, 0.243, -1.0094604, 0.243, -0.1199341, 0.243, 1.0610687, 0.243, 0.6793893, 0.243, -3.1526718
0.0293824, -0.008896, 0.24975, 0.0094604, 0.24975, -1.008606, 0.24975, -0.117981, 0.24975, 1.0534351, 0.24975, 1.0534351, 0.24975, -3.129771
0.0301765, -0.0058747, 0.2565, 0.0108643, 0.2565, -1.0072632, 0.2565, -0.1182861, 0.2565, 0.9770992, 0.2565, 1.2137405, 0.2565, -3.1908398
0.0309706, -0.0078889, 0.26325, 0.0067749, 0.26325, -1.0062866, 0.26325, -0.1182861, 0.26325, 0.9160305, 0.26325, 1.2442749, 0.26325, -3.1832061
0.0317647, -0.008896, 0.27, 0.0064087, 0.27, -1.0048218, 0.27, -0.1188354, 0.27, 1.038168, 0.27, 1.0687023, 0.27, -3.1068702
0.0325588, -0.012253, 0.27675, 0.0076904, 0.27675, -1.0048218, 0.27675, -0.1173096, 0.27675, 1.1755725, 0.27675, 1.0610687, 0.27675, -3.1832061
0.0333529, -0.0149386, 0.2835, 0.0078735, 0.2835, -1.0072021, 0.2835, -0.1201782, 0.2835, 1.1374046, 0.2835, 1.0076336, 0.2835, -3.3435113
0.0341471, -0.0142672, 0.29025, 0.0060425, 0.29025, -1.0037231, 0.29025, -0.1192627, 0.29025, 1.2290076, 0.29025, 0.8625954, 0.29025, -3.4427481
0.0349412, -0.0112459, 0.297, 0.0091553, 0.297, -1.0078125, 0.297, -0.1188965, 0.297, 1.3053435, 0.297, 0.6335878, 0.297, -3.480916
0.0357353, -0.012253, 0.30375, 0.0065308, 0.30375, -1.007019, 0.30375, -0.1209106, 0.30375, 1.2900764, 0.30375, 0.6030535, 0.30375, -3.3435113
0.0365294, -0.0125887, 0.3105, 0.0076294, 0.3105, -1.0091553, 0.3105, -0.1194458, 0.3105, 1.1221374, 0.3105, 0.6259542, 0.3105, -3.3587787
0.0373235, -0.0112459, 0.31725, 0.0094604, 0.31725, -1.0053711, 0.31725, -0.123291, 0.31725, 1.0305344, 0.31725, 0.6870229, 0.31725, -3.259542
0.0381176, -0.0109102, 0.324, 0.0108032, 0.324, -1.0059204, 0.324, -0.1206665, 0.324, 0.9847328, 0.324, 0.8625954, 0.324, -3.0763359
0.0389118, -0.0132601, 0.33075, 0.010437, 0.33075, -1.003479, 0.33075, -0.1209717, 0.33075, 0.9312977, 0.33075, 0.7862595, 0.33075, -3.3740458
0.0397059, -0.0154421, 0.3375, 0.0112915, 0.3375, -1.0032959, 0.3375, -0.1209106, 0.3375, 0.6717557, 0.3375, 0.7251908, 0.3375, -3.3053436
0.0405, -0.0152743, 0.34425, 0.0077515, 0.34425, -1.008728, 0.34425, -0.1199341, 0.34425, 0.7175573, 0.34425, 0.5343512, 0.34425, -3.3740458
0.0412941, -0.0149386, 0.351, 0.0084229, 0.351, -1.0077515, 0.351, -0.117981, 0.351, 0.6641222, 0.351, 0.6030535, 0.351, -3.2977099
0.0420882, -0.0169528, 0.35775, 0.008667, 0.35775, -1.0081787, 0.35775, -0.1158447, 0.35775, 0.8778626, 0.35775, 0.3282443, 0.35775, -3.389313
0.0428824, -0.0184634, 0.3645, 0.0095825, 0.3645, -1.008606, 0.3645, -0.1147461, 0.3645, 0.8015267, 0.3645, 0.5038168, 0.3645, -3.3206108
0.0436765, -0.0179599, 0.37125, 0.0075073, 0.37125, -1.0050049, 0.37125, -0.1226196, 0.37125, 0.9847328, 0.37125, 0.8015267, 0.37125, -3.2290077
0.0444706, -0.01561, 0.378, 0.006897, 0.378, -1.0063477, 0.378, -0.1237183, 0.378, 0.8015267, 0.378, 1.038168, 0.378, -3.1984732
0.0452647, -0.0152743, 0.38475, 0.0062866, 0.38475, -1.0073242, 0.38475, -0.1213989, 0.38475, 0.8625954, 0.38475, 0.7938932, 0.38475, -3.129771
0.0460588, -0.0152743, 0.3915, 0.0072021, 0.3915, -1.0059204, 0.3915, -0.1199951, 0.3915, 1.1068702, 0.3915, 0.7480916, 0.3915, -3
0.0468529, -0.0132601, 0.39825, 0.0028076, 0.39825, -1.0080566, 0.39825, -0.1194458, 0.39825, 1.0763359, 0.39825, 0.870229, 0.39825, -3.091603
0.0476471, -0.0129244, 0.405, 0.0054321, 0.405, -1.0043335, 0.405, -0.1227417, 0.405, 1.1526718, 0.405, 1.0152671, 0.405, -3.2290077
0.0484412, -0.0129244, 0.41175, 0.0073242, 0.41175, -1.0028687, 0.41175, -0.1254272, 0.41175, 1.2442749, 0.41175, 0.9694657, 0.41175, -2.9923663
0.0492353, -0.0130922, 0.4185, 0.0053101, 0.4185, -1.0030518, 0.4185, -0.1236572, 0.4185, 1.0839695, 0.4185, 0.8854962, 0.4185, -3.0534351
0.0500294, -0.0117494, 0.42525, 0.0079346, 0.42525, -1.0053711, 0.42525, -0.1226196, 0.42525, 1.091603, 0.42525, 0.7328244, 0.42525, -3.259542
0.0508235, -0.011078, 0.432, 0.0113525, 0.432, -1.006958, 0.432, -0.1228027, 0.432, 1.3129771, 0.432, 0.6717557, 0.432, -3.2519083
0.0516176, -0.0099031, 0.43875, 0.0112305, 0.43875, -1.006958, 0.43875, -0.1245117, 0.43875, 1.2900764, 0.43875, 0.7251908, 0.43875, -3.1450381
0.0524118, -0.0115816, 0.4455, 0.0095215, 0.4455, -1.0079346, 0.4455, -0.1218872, 0.4455, 1.2824427, 0.4455, 0.6564885, 0.4455, -3.1374047
0.0532059, -0.0115816, 0.45225, 0.0103149, 0.45225, -1.0100098, 0.45225, -0.1174927, 0.45225, 1.3969465, 0.45225, 0.8244275, 0.45225, -3.2748091
0.054, -0.0130922, 0.459, 0.0094604, 0.459, -1.0101318, 0.459, -0.1194458, 0.459, 1.3664122, 0.459, 0.6870229, 0.459, -3.221374
0.0547941, -0.0115816, 0.46575, 0.0108032, 0.46575, -1.0095215, 0.46575, -0.1231079, 0.46575, 1.5572519, 0.46575, 0.6183206, 0.46575, -3.2671757
0.0555882, -0.0129244, 0.4725, 0.0078125, 0.4725, -1.0057373, 0.4725, -0.1227417, 0.4725, 1.2977099, 0.4725, 0.6412213, 0.4725, -3.3053436
0.0563824, -0.0203098, 0.47925, 0.0092163, 0.47925, -1.0092163, 0.47925, -0.1221313, 0.47925, 1.4961832, 0.47925, 0.610687, 0.47925, -3.4274809
0.0571765, -0.0206455, 0.486, 0.0090942, 0.486, -1.008606, 0.486, -0.1187744, 0.486, 1.4580153, 0.486, 0.4274809, 0.486, -3.3816793
0.0579706, -0.0166171, 0.49275, 0.0094604, 0.49275, -1.0045166, 0.49275, -0.1208496, 0.49275, 1.5038168, 0.49275, 0.0687023, 0.49275, -3.4274809
0.0587647, -0.01561, 0.4995, 0.0092773, 0.4995, -1.0032349, 0.4995, -0.1217651, 0.4995, 1.4961832, 0.4995, 0.0076336, 0.4995, -3.4961832
0.0595588, -0.0112459, 0.50625, 0.008728, 0.50625, -1.0048218, 0.50625, -0.1210938, 0.50625, 1.3969465, 0.50625, 0.0229008, 0.50625, -3.4885497
0.0603529, -0.0117494, 0.513, 0.0079346, 0.513, -1.0042114, 0.513, -0.1229248, 0.513, 1.0763359, 0.513, 0.0763359, 0.513, -3.4351146
0.0611471, -0.0135958, 0.51975, 0.0095215, 0.51975, -1.0047607, 0.51975, -0.1228027, 0.51975, 0.8396947, 0.51975, 0.3129771, 0.51975, -3.2900763
0.0619412, -0.0146029, 0.5265, 0.0059204, 0.5265, -1.0059814, 0.5265, -0.1179199, 0.5265, 0.6946565, 0.5265, 0.3969466, 0.5265, -3.2061069
0.0627353, -0.0162814, 0.53325, 0.0071411, 0.53325, -1.0076294, 0.53325, -0.1174927, 0.53325, 0.4580153, 0.53325, 0.2519084, 0.53325, -3.1755726
0.0635294, -0.0169528, 0.54, 0.0062866, 0.54, -1.008728, 0.54, -0.1173706, 0.54, 0.5267175, 0.54, 0.221374, 0.54, -3.1908398
0.0643235, -0.0152743, 0.54675, 0.0061035, 0.54675, -1.0087891, 0.54675, -0.1152954, 0.54675, 0.908397, 0.54675, 0.4885496, 0.54675, -3.0687022
0.0651176, -0.0149386, 0.5535, 0.0115356, 0.5535, -1.0042725, 0.5535, -0.1235352, 0.5535, 0.8854962, 0.5535, 0.8015267, 0.5535, -3.0687022
0.0659118, -0.0162814, 0.56025, 0.0136719, 0.56025, -1.0043335, 0.56025, -0.1186523, 0.56025, 0.6946565, 0.56025, 0.519084, 0.56025, -3.091603
0.0667059, -0.0162814, 0.567, 0.0115967, 0.567, -1.0085449, 0.567, -0.1166382, 0.567, 0.5954198, 0.567, 0.4122137, 0.567, -3.2977099
0.0675, -0.0137636, 0.57375, 0.0119629, 0.57375, -1.0059204, 0.57375, -0.1190796, 0.57375, 0.5801527, 0.57375, 0.4732825, 0.57375, -3.0076337
0.0682941, -0.0139315, 0.5805, 0.0136108, 0.5805, -1.010498, 0.5805, -0.1182861, 0.5805, 0.7175573, 0.5805, 0.870229, 0.5805, -3.0076337
0.0690882, -0.0102388, 0.58725, 0.0102539, 0.58725, -1.0103149, 0.58725, -0.114563, 0.58725, 0.6870229, 0.58725, 0.9465649, 0.58725, -3.0992367
0.0698824, -0.008896, 0.594, 0.0087891, 0.594, -1.0094604, 0.594, -0.1154175, 0.594, 0.7175573, 0.594, 1.0687023, 0.594, -3.1679389
0.0706765, -0.0105745, 0.60075, 0.0044556, 0.60075, -1.0076294, 0.60075, -0.1191406, 0.60075, 0.9160305, 0.60075, 1.0992366, 0.60075, -3.2366412
0.0714706, -0.0139315, 0.6075, 0.0057983, 0.6075, -1.0039673, 0.6075, -0.1268921, 0.6075, 0.9236641, 0.6075, 0.8396947, 0.6075, -3.2748091
0.0722647, -0.0169528, 0.61425, 0.0048218, 0.61425, -1.0058594, 0.61425, -0.1276245, 0.61425, 0.908397, 0.61425, 0.6564885, 0.61425, -3.0839694
0.0730588, -0.0169528, 0.621, 0.0042114, 0.621, -1.0028687, 0.621, -0.1282959, 0.621, 0.961832, 0.621, 0.5572519, 0.621, -3.0992367
0.0738529, -0.01561, 0.62775, 0.0067749, 0.62775, -1.0038452, 0.62775, -0.121582, 0.62775, 1.0305344, 0.62775, 0.3740458, 0.62775, -2.8931298
0.0746471, -0.0142672, 0.6345, 0.0070801, 0.6345, -1.0064697, 0.6345, -0.1185913, 0.6345, 0.9770992, 0.6345, 0.1755725, 0.6345, -3.4732823
0.0754412, -0.0176242, 0.64125, 0.0114746, 0.64125, -1.0083618, 0.64125, -0.1209106, 0.64125, 1.1984733, 0.64125, 0.2366412, 0.64125, -3.2519083
0.0762353, -0.0157778, 0.648, 0.0120239, 0.648, -1.0134277, 0.648, -0.1240845, 0.648, 1.1374046, 0.648, 0.4961832, 0.648, -3.0458016
0.0770294, -0.0172885, 0.65475, 0.0164795, 0.65475, -1.0081177, 0.65475, -0.1176147, 0.65475, 1.1145039, 0.65475, 0.6793893, 0.65475, -3.2137403
0.0778235, -0.0167849, 0.6615, 0.0155029, 0.6615, -1.0096436, 0.6615, -0.1186523, 0.6615, 1.1832061, 0.6615, 0.5572519, 0.6615, -3.1450381
0.0786176, -0.0142672, 0.66825, 0.0112915, 0.66825, -1.0082397, 0.66825, -0.1176758, 0.66825, 1.0534351, 0.66825, 0.7328244, 0.66825, -3.3206108
0.0794118, -0.0149386, 0.675, 0.0092773, 0.675, -1.0066528, 0.675, -0.1182251, 0.675, 1.129771, 0.675, 0.7938932, 0.675, -3.1145039
0.0802059, -0.0166171, 0.68175, 0.010376, 0.68175, -1.0062256, 0.68175, -0.1228027, 0.68175, 1.1450381, 0.68175, 0.8549618, 0.68175, -3.259542
0.081, -0.0146029, 0.6885, 0.0072021, 0.6885, -1.0060425, 0.6885, -0.121582, 0.6885, 1.0610687, 0.6885, 0.648855, 0.6885, -3.2671757
0.0817941, -0.0125887, 0.69525, 0.0090942, 0.69525, -1.0046387, 0.69525, -0.12323, 0.69525, 0.8854962, 0.69525, 0.5877863, 0.69525, -3.2824428
0.0825882, -0.0099031, 0.702, 0.0044556, 0.702, -1.007019, 0.702, -0.1259766, 0.702, 0.6412213, 0.702, 0.7633588, 0.702, -3.389313
0.0833824, -0.0095674, 0.70875, 0.0003662, 0.70875, -1.0071411, 0.70875, -0.1216431, 0.70875, 0.4427481, 0.70875, 0.5496183, 0.70875, -3.1984732
0.0841765, -0.0120851, 0.7155, 0.0010376, 0.7155, -1.0078125, 0.7155, -0.1237183, 0.7155, 0.5419847, 0.7155, 0.648855, 0.7155, -3.1832061
0.0849706, -0.0109102, 0.72225, 0.00354, 0.72225, -1.0093994, 0.72225, -0.1201782, 0.72225, 0.4351145, 0.72225, 0.7328244, 0.72225, -3.0305343
0.0857647, -0.0095674, 0.729, 0.0078125, 0.729, -1.0075684, 0.729, -0.1210327, 0.729, 0.4427481, 0.729, 0.6030535, 0.729, -3.1450381
0.0865588, -0.0102388, 0.73575, 0.0094604, 0.73575, -1.0064087, 0.73575, -0.1209717, 0.73575, 0.519084, 0.73575, 0.5725191, 0.73575, -2.9389312
0.0873529, -0.0139315, 0.7425, 0.0092163, 0.7425, -1.0077515, 0.7425, -0.1195679, 0.7425, 0.5343512, 0.7425, 0.740458, 0.7425, -3.0992367
0.0881471, -0.0129244, 0.74925, 0.0114746, 0.74925, -1.0082397, 0.74925, -0.1237183, 0.74925, 0.8244275, 0.74925, 0.7175573, 0.74925, -3.3435113
0.0889412, -0.0129244, 0.756, 0.0110474, 0.756, -1.0072632, 0.756, -0.1225586, 0.756, 1, 0.756, 0.6793893, 0.756, -3.2290077
0.0897353, -0.0142672, 0.76275, 0.0097656, 0.76275, -1.007019, 0.76275, -0.1218262, 0.76275, 0.9160305, 0.76275, 0.8015267, 0.76275, -3.091603
0.0905294, -0.0166171, 0.7695, 0.0131836, 0.7695, -1.006897, 0.7695, -0.1207886, 0.7695, 0.7938932, 0.7695, 0.5801527, 0.7695, -2.8396947
0.0913235, -0.0135958, 0.77625, 0.0082397, 0.77625, -1.0053101, 0.77625, -0.1262817, 0.77625, 0.4656489, 0.77625, 0.7480916, 0.77625, -2.9465649
0.0921176, -0.0102388, 0.783, 0.0089722, 0.783, -1.0040894, 0.783, -0.1219482, 0.783, 0.6717557, 0.783, 0.8091603, 0.783, -3.0458016
0.0929118, -0.0137636, 0.78975, 0.0095825, 0.78975, -1.0063477, 0.78975, -0.1210938, 0.78975, 0.7480916, 0.78975, 0.7099237, 0.78975, -3.0839694
0.0937059, -0.0171206, 0.7965, 0.0117798, 0.7965, -1.0062866, 0.7965, -0.1231689, 0.7965, 1.0305344, 0.7965, 0.7862595, 0.7965, -2.9847329
0.0945, -0.0149386, 0.80325, 0.0095825, 0.80325, -1.0062256, 0.80325, -0.1248779, 0.80325, 0.8854962, 0.80325, 0.9389313, 0.80325, -2.9312978
0.0952941, -0.0179599, 0.81, 0.0079956, 0.81, -1.0087891, 0.81, -0.1212158, 0.81, 1.0152671, 0.81, 0.8854962, 0.81, -2.9770992
0.0960882, -0.0172885, 0.81675, 0.0089722, 0.81675, -1.0068359, 0.81675, -0.1203613, 0.81675, 1.0229008, 0.81675, 0.7251908, 0.81675, -2.9389312
0.0968824, -0.0139315, 0.8235, 0.0077515, 0.8235, -1.0078125, 0.8235, -0.1185913, 0.8235, 0.9465649, 0.8235, 0.778626, 0.8235, -3.1068702
0.0976765, -0.0151064, 0.83025, 0.008606, 0.83025, -1.0040283, 0.83025, -0.1177979, 0.83025, 0.9465649, 0.83025, 1.0305344, 0.83025, -3.0305343
0.0984706, -0.0146029, 0.837, 0.0065918, 0.837, -1.0063477, 0.837, -0.1205444, 0.837, 1.0229008, 0.837, 1.0458015, 0.837, -3.1068702
0.0992647, -0.0157778, 0.84375, 0.0056763, 0.84375, -1.006958, 0.84375, -0.1173096, 0.84375, 1.091603, 0.84375, 0.9236641, 0.84375, -3.2061069
0.1000588, -0.0109102, 0.8505, 0.0055542, 0.8505, -1.0071411, 0.8505, -0.1190186, 0.8505, 1.1755725, 0.8505, 0.870229, 0.8505, -3.1679389
0.1008529, -0.0095674, 0.85725, 0.0015869, 0.85725, -1.0071411, 0.85725, -0.1209106, 0.85725, 1.3435115, 0.85725, 0.5954198, 0.85725, -3.3435113
0.1016471, -0.0125887, 0.864, 0.0041504, 0.864, -1.0061646, 0.864, -0.1229858, 0.864, 1.1221374, 0.864, 0.8549618, 0.864, -3.3129771
0.1024412, -0.0102388, 0.87075, 0.0037842, 0.87075, -1.0064087, 0.87075, -0.1188354, 0.87075, 1.0458015, 0.87075, 0.8778626, 0.87075, -3.2290077
0.1032353, -0.0095674, 0.8775, 0.0057373, 0.8775, -1.0066528, 0.8775, -0.1201172, 0.8775, 1.0305344, 0.8775, 0.6946565, 0.8775, -2.9847329
0.1040294, -0.0115816, 0.88425, 0.0068359, 0.88425, -1.0048218, 0.88425, -0.1240845, 0.88425, 1.0152671, 0.88425, 0.4427481, 0.88425, -3.0992367
0.1048235, -0.0130922, 0.891, 0.0090332, 0.891, -1.0043945, 0.891, -0.1237793, 0.891, 0.8167939, 0.891, 0.1679389, 0.891, -3.259542
0.1056176, -0.012253, 0.89775, 0.008728, 0.89775, -1.0064697, 0.89775, -0.1203613, 0.89775, 0.8931298, 0.89775, 0.221374, 0.89775, -3.389313
0.1064118, -0.0142672, 0.9045, 0.0090942, 0.9045, -1.005188, 0.9045, -0.1218872, 0.9045, 1.1603054, 0.9045, 0.259542, 0.9045, -3.3740458
0.1072059, -0.0162814, 0.91125, 0.0081787, 0.91125, -1.006897, 0.91125, -0.1231689, 0.91125, 1.2748091, 0.91125, 0.2290076, 0.91125, -3.2290077
0.108, -0.0154421, 0.918, 0.0059814, 0.918, -1.0081787, 0.918, -0.1219482, 0.918, 1.1145039, 0.918, 0.1908397, 0.918, -3.1374047
0.1087941, -0.0151064, 0.92475, 0.0079346, 0.92475, -1.0084839, 0.92475, -0.12146, 0.92475, 1.1221374, 0.92475, 0.5725191, 0.92475, -3.0763359
0.1095882, -0.0204776, 0.9315, 0.0101318, 0.9315, -1.0092773, 0.9315, -0.116333, 0.9315, 1.1755725, 0.9315, 0.4656489, 0.9315, -3.2900763
0.1103824, -0.0198062, 0.93825, 0.0102539, 0.93825, -1.0089111, 0.93825, -0.1159668, 0.93825, 1.2442749, 0.93825, 0.5725191, 0.93825, -3.1679389
0.1111765, -0.018967, 0.945, 0.0059204, 0.945, -1.0064087, 0.945, -0.1221313, 0.945, 0.9923664, 0.945, 0.7557252, 0.945, -3.0152671
0.1119706, -0.0196384, 0.95175, 0.003479, 0.95175, -1.007019, 0.95175, -0.1223145, 0.95175, 1.1679389, 0.95175, 0.7709923, 0.95175, -3.038168
0.1127647, -0.018967, 0.9585, 0.0045776, 0.9585, -1.0033569, 0.9585, -0.1225586, 0.9585, 1.1374046, 0.9585, 0.7938932, 0.9585, -3.2671757
0.1135588, -0.0162814, 0.96525, 0.0032959, 0.96525, -1.0059814, 0.96525, -0.12146, 0.96525, 1.2137405, 0.96525, 0.6183206, 0.96525, -3.1908398
0.1143529, -0.021149, 0.972, 0.0045776, 0.972, -1.0057373, 0.972, -0.1207886, 0.972, 1.1526718, 0.972, 0.4503817, 0.972, -3.2900763
0.1151471, -0.0243381, 0.97875, 0.0021362, 0.97875, -1.0042114, 0.97875, -0.12677, 0.97875, 0.9694657, 0.97875, 0.5343512, 0.97875, -3.2290077
0.1159412, -0.021149, 0.9855, 0.0032349, 0.9855, -1.008667, 0.9855, -0.1240845, 0.9855, 1.0534351, 0.9855, 0.480916, 0.9855, -3.0610688
0.1167353, -0.0186313, 0.99225, 0.0041504, 0.99225, -1.0062256, 0.99225, -0.1218872, 0.99225, 1.1450381, 0.99225, 0.2290076, 0.99225, -3.091603
0.1175294, -0.0193027, 0.999, 0.0088501, 0.999, -1.0068359, 0.999, -0.1218872, 0.999, 1.0763359, 0.999, 0.4351145, 0.999, -3.1832061
0.1183235, -0.0236667, 1.00575, 0.008606, 1.00575, -1.006958, 1.00575, -0.1205444, 1.00575, 0.8854962, 1.00575, 0.4503817, 1.00575, -3.2061069
0.1191176, -0.0216526, 1.0125, 0.0097046, 1.0125, -1.0054932, 1.0125, -0.1199951, 1.0125, 0.961832, 1.0125, 0.6335878, 1.0125, -3.2137403
0.1199118, -0.0206455, 1.01925, 0.0101929, 1.01925, -1.0072632, 1.01925, -0.1226807, 1.01925, 1.1984733, 1.01925, 0.7480916, 1.01925, -3.351145
0.1207059, -0.0209812, 1.026, 0.0111084, 1.026, -1.0075073, 1.026, -0.1207886, 1.026, 1.2442749, 1.026, 0.648855, 1.026, -3.0305343
0.1215, -0.0193027, 1.03275, 0.0064697, 1.03275, -1.0080566, 1.03275, -0.1233521, 1.03275, 1.3587786, 1.03275, 0.8931298, 1.03275, -2.9465649
0.1222941, -0.018967, 1.0395, 0.0075684, 1.0395, -1.0057983, 1.0395, -0.1230469, 1.0395, 1.2137405, 1.0395, 0.8473282, 1.0395, -3.0992367
0.1230882, -0.0172885, 1.04625, 0.0033569, 1.04625, -1.0031738, 1.04625, -0.1225586, 1.04625, 1, 1.04625, 0.7099237, 1.04625, -3.259542
0.1238824, -0.0130922, 1.053, 0.0021362, 1.053, -1.005188, 1.053, -0.1193237, 1.053, 0.9312977, 1.053, 0.7328244, 1.053, -3.0992367
0.1246765, -0.0115816, 1.05975, 0.0028687, 1.05975, -1.0078735, 1.05975, -0.1182861, 1.05975, 0.9236641, 1.05975, 0.7251908, 1.05975, -3.2824428
0.1254706, -0.0105745, 1.0665, 0.0057373, 1.0665, -1.0073242, 1.0665, -0.1193848, 1.0665, 0.9541985, 1.0665, 0.4198473, 1.0665, -3.2061069
0.1262647, -0.0102388, 1.07325, 0.0057983, 1.07325, -1.0063477, 1.07325, -0.1171875, 1.07325, 0.8473282, 1.07325, 0.2366412, 1.07325, -3.4351146
0.1270588, -0.0090639, 1.08, 0.0106812, 1.08, -1.006958, 1.08, -0.1202393, 1.08, 0.7862595, 1.08, 0.2519084, 1.08, -3.5114503
0.1278529, -0.0090639, 1.08675, 0.0102539, 1.08675, -1.0075073, 1.08675, -0.1217041, 1.08675, 0.9389313, 1.08675, 0.4427481, 1.08675, -3.3129771
0.1286471, -0.008896, 1.0935, 0.0140991, 1.0935, -1.0081177, 1.0935, -0.1254272, 1.0935, 1.0152671, 1.0935, 0.9389313, 1.0935, -3.4656489
0.1294412, -0.0097353, 1.10025, 0.0101318, 1.10025, -1.0078735, 1.10025, -0.1265259, 1.10025, 1.0458015, 1.10025, 1.1145039, 1.10025, -3.2366412
0.1302353, -0.0099031, 1.107, 0.0064697, 1.107, -1.0082397, 1.107, -0.1229248, 1.107, 1.1374046, 1.107, 1.1603054, 1.107, -3.2061069
0.1310294, -0.0057069, 1.11375, 0.00354, 1.11375, -1.0033569, 1.11375, -0.1239014, 1.11375, 1.1145039, 1.11375, 1.0229008, 1.11375, -3.2442749
0.1318235, -0.0048676, 1.1205, 0.003418, 1.1205, -1.0046997, 1.1205, -0.1220703, 1.1205, 1.259542, 1.1205, 0.8854962, 1.1205, -3.2442749
0.1326176, -0.002182, 1.12725, 0.0039673, 1.12725, -1.0065308, 1.12725, -0.1206665, 1.12725, 1.1984733, 1.12725, 0.7709923, 1.12725, -3.1908398
0.1334118, -0.0001678, 1.134, 0.0065308, 1.134, -1.0058594, 1.134, -0.1210327, 1.134, 1.2519084, 1.134, 0.6793893, 1.134, -3.2748091
0.1342059, 0.0005035, 1.14075, 0.0054932, 1.14075, -1.0047607, 1.14075, -0.1168823, 1.14075, 1.2671756, 1.14075, 0.6259542, 1.14075, -3.1603053
0.135, 0.0008392, 1.1475, 0.0103149, 1.1475, -1.0045166, 1.1475, -0.1120605, 1.1475, 1.1908396, 1.1475, 0.4122137, 1.1475, -3.2748091
0.1357941, 0.0008392, 1.15425, 0.0071411, 1.15425, -1.0047607, 1.15425, -0.1135254, 1.15425, 1.1832061, 1.15425, 0.6641222, 1.15425, -3.1755726
0.1365882, -0.002182, 1.161, 0.0074463, 1.161, -1.0060425, 1.161, -0.1176758, 1.161, 1.3053435, 1.161, 0.9847328, 1.161, -3.0458016
0.1373824, -0.0058747, 1.16775, 0.0090942, 1.16775, -1.0063477, 1.16775, -0.1222534, 1.16775, 1.4045801, 1.16775, 1.221374, 1.16775, -3.2137403
0.1381765, -0.0050355, 1.1745, 0.0073242, 1.1745, -1.0115356, 1.1745, -0.1224976, 1.1745, 1.3587786, 1.1745, 1.3129771, 1.1745, -3.129771
0.1389706, -0.0075532, 1.18125, 0.0040283, 1.18125, -1.0098877, 1.18125, -0.1237183, 1.18125, 1.4580153, 1.18125, 1.1603054, 1.18125, -3
0.1397647, -0.0112459, 1.188, 0.0036011, 1.188, -1.0093994, 1.188, -0.1223145, 1.188, 1.519084, 1.188, 1.1679389, 1.188, -3.1068702
0.1405588, -0.0149386, 1.19475, 0.0050049, 1.19475, -1.0090942, 1.19475, -0.1233521, 1.19475, 1.4656489, 1.19475, 0.8244275, 1.19475, -3.1984732
0.1413529, -0.0166171, 1.2015, 0.0043335, 1.2015, -1.0045166, 1.2015, -0.1273804, 1.2015, 1.5648855, 1.2015, 0.480916, 1.2015, -3.2824428
0.1421471, -0.0166171, 1.20825, 0.0067139, 1.20825, -1.0037231, 1.20825, -0.1274414, 1.20825, 1.6030535, 1.20825, 0.5267175, 1.20825, -3.3129771
0.1429412, -0.0162814, 1.215, 0.0098877, 1.215, -1.0044556, 1.215, -0.123291, 1.215, 1.6259542, 1.215, 0.7633588, 1.215, -3.259542
0.1437353, -0.0176242, 1.22175, 0.0081787, 1.22175, -1.0081177, 1.22175, -0.1221313, 1.22175, 1.6717557, 1.22175, 0.5877863, 1.22175, -3.2824428
0.1445294, -0.018967, 1.2285, 0.0082397, 1.2285, -1.008606, 1.2285, -0.1218872, 1.2285, 1.480916, 1.2285, 0.908397, 1.2285, -3.3206108
0.1453235, -0.0199741, 1.23525, 0.0087891, 1.23525, -1.0095825, 1.23525, -0.1224365, 1.23525, 1.0992366, 1.23525, 0.8625954, 1.23525, -3.259542
0.1461176, -0.0219883, 1.242, 0.00177, 1.242, -1.0095215, 1.242, -0.1231689, 1.242, 1.3740458, 1.242, 0.9847328, 1.242, -3.1679389
0.1469118, -0.0216526, 1.24875, 0.0019531, 1.24875, -1.0064087, 1.24875, -0.12677, 1.24875, 1.4427481, 1.24875, 1.1679389, 1.24875, -3.221374
0.1477059, -0.0219883, 1.2555, 0.0067749, 1.2555, -1.0055542, 1.2555, -0.1231689, 1.2555, 1.3282443, 1.2555, 0.8625954, 1.2555, -3.259542
0.1485, -0.0229953, 1.26225, 0.00354, 1.26225, -1.0095825, 1.26225, -0.1243896, 1.26225, 1.2442749, 1.26225, 0.5725191, 1.26225, -3.0992367
0.1492941, -0.0236667, 1.269, 0.0076294, 1.269, -1.0065308, 1.269, -0.1223145, 1.269, 1.1450381, 1.269, 0.7709923, 1.269, -2.9465649
0.1500882, -0.0243381, 1.27575, 0.0106812, 1.27575, -1.0068359, 1.27575, -0.1185913, 1.27575, 1.1832061, 1.27575, 0.6870229, 1.27575, -3.0229008
0.1508824, -0.0234989, 1.2825, 0.0113525, 1.2825, -1.008606, 1.2825, -0.1174316, 1.2825, 1.3206106, 1.2825, 0.8931298, 1.2825, -3.1221373
0.1516765, -0.0224918, 1.28925, 0.0098267, 1.28925, -1.006958, 1.28925, -0.1166992, 1.28925, 1.4045801, 1.28925, 1.038168, 1.28925, -3.1679389
0.1524706, -0.0229953, 1.296, 0.0093384, 1.296, -1.0055542, 1.296, -0.1165771, 1.296, 1.4885496, 1.296, 1.0992366, 1.296, -3.1984732
0.1532647, -0.0218204, 1.30275, 0.0081787, 1.30275, -1.0050049, 1.30275, -0.1191406, 1.30275, 1.3435115, 1.30275, 1.1679389, 1.30275, -3.0687022
0.1540588, -0.0203098, 1.3095, 0.005249, 1.3095, -1.0065308, 1.3095, -0.1219482, 1.3095, 1.3587786, 1.3095, 1.2137405, 1.3095, -3.1526718
0.1548529, -0.018967, 1.31625, 0.005188, 1.31625, -1.0050659, 1.31625, -0.1217041, 1.31625, 1.5267175, 1.31625, 1.0076336, 1.31625, -3.091603
0.1556471, -0.01561, 1.323, 0.0059204, 1.323, -1.0056152, 1.323, -0.1212769, 1.323, 1.5496184, 1.323, 0.8549618, 1.323, -3.0839694
0.1564412, -0.0142672, 1.32975, 0.005249, 1.32975, -1.0061646, 1.32975, -0.1193237, 1.32975, 1.5496184, 1.32975, 0.6259542, 1.32975, -3.2748091
0.1572353, -0.0115816, 1.3365, 0.006897, 1.3365, -1.0065918, 1.3365, -0.1212769, 1.3365, 1.519084, 1.3365, 0.3816794, 1.3365, -3.2748091
0.1580294, -0.0130922, 1.34325, 0.0076294, 1.34325, -1.0046387, 1.34325, -0.1196899, 1.34325, 1.5801526, 1.34325, 0.2900763, 1.34325, -3.3435113
0.1588235, -0.0129244, 1.35, 0.0081787, 1.35, -1.0074463, 1.35, -0.1193848, 1.35, 1.5419847, 1.35, 0.3969466, 1.35, -3.3435113
0.1596176, -0.0119173, 1.35675, 0.0114746, 1.35675, -1.0089722, 1.35675, -0.1177368, 1.35675, 1.4656489, 1.35675, 0.5496183, 1.35675, -3.259542
0.1604118, -0.0132601, 1.3635, 0.0106201, 1.3635, -1.0059814, 1.3635, -0.1199341, 1.3635, 1.4045801, 1.3635, 0.648855, 1.3635, -3.3587787
0.1612059, -0.0135958, 1.37025, 0.0073853, 1.37025, -1.0079346, 1.37025, -0.1234741, 1.37025, 1.3969465, 1.37025, 0.7557252, 1.37025, -3.3435113
0.162, -0.0129244, 1.377, 0.0045166, 1.377, -1.0072021, 1.377, -0.1239014, 1.377, 1.351145, 1.377, 0.8396947, 1.377, -3.0534351
0.1627941, -0.0115816, 1.38375, 0.0053711, 1.38375, -1.0060425, 1.38375, -0.1199341, 1.38375, 1.4961832, 1.38375, 0.961832, 1.38375, -3.2748091
0.1635882, -0.0115816, 1.3905, 0.0054932, 1.3905, -1.0083008, 1.3905, -0.1210938, 1.3905, 1.3816794, 1.3905, 0.6870229, 1.3905, -3.3206108
0.1643824, -0.0135958, 1.39725, 0.0078735, 1.39725, -1.0067749, 1.39725, -0.1210938, 1.39725, 1.6183206, 1.39725, 0.4427481, 1.39725, -3.351145
0.1651765, -0.0151064, 1.404, 0.007019, 1.404, -1.0056763, 1.404, -0.1213379, 1.404, 1.6412214, 1.404, 0.7480916, 1.404, -3.2671757
0.1659706, -0.0152743, 1.41075, 0.0061035, 1.41075, -1.0073853, 1.41075, -0.12323, 1.41075, 1.4503816, 1.41075, 0.7633588, 1.41075, -3.4427481
0.1667647, -0.0135958, 1.4175, 0.0075684, 1.4175, -1.0078125, 1.4175, -0.1206055, 1.4175, 1.648855, 1.4175, 0.8473282, 1.4175, -3.4503818
0.1675588, -0.0135958, 1.42425, 0.0072632, 1.42425, -1.0043945, 1.42425, -0.1199341, 1.42425, 1.6259542, 1.42425, 0.7862595, 1.42425, -3.1374047
0.1683529, -0.0109102, 1.431, 0.0065308, 1.431, -1.0045166, 1.431, -0.1196289, 1.431, 1.1526718, 1.431, 0.6946565, 1.431, -3.2061069
0.1691471, -0.0125887, 1.43775, 0.0077515, 1.43775, -1.0059814, 1.43775, -0.1182251, 1.43775, 0.9236641, 1.43775, 0.8931298, 1.43775, -3.1984732
0.1699412, -0.0109102, 1.4445, 0.0072021, 1.4445, -1.0063477, 1.4445, -0.118042, 1.4445, 0.870229, 1.4445, 0.9389313, 1.4445, -3.1984732
0.1707353, -0.0092317, 1.45125, 0.0079956, 1.45125, -1.0065308, 1.45125, -0.1142578, 1.45125, 0.5725191, 1.45125, 1.1450381, 1.45125, -3.2519083
0.1715294, -0.0129244, 1.458, 0.007019, 1.458, -1.0043945, 1.458, -0.1149292, 1.458, 0.7328244, 1.458, 1.2061069, 1.458, -3.0839694
0.1723235, -0.0129244, 1.46475, 0.0077515, 1.46475, -1.0056763, 1.46475, -0.114502, 1.46475, 0.778626, 1.46475, 1.2824427, 1.46475, -3.1068702
0.1731176, -0.012253, 1.4715, 0.0056763, 1.4715, -1.0088501, 1.4715, -0.1179199, 1.4715, 0.9541985, 1.4715, 0.8549618, 1.4715, -3.2366412
0.1739118, -0.0115816, 1.47825, 0.005249, 1.47825, -1.0063477, 1.47825, -0.1154175, 1.47825, 0.9770992, 1.47825, 0.9770992, 1.47825, -3.129771
0.1747059, -0.008896, 1.485, 0.006958, 1.485, -1.0078125, 1.485, -0.1183472, 1.485, 0.6564885, 1.485, 0.8473282, 1.485, -3.1832061
0.1755, -0.0095674, 1.49175, 0.0039673, 1.49175, -1.0076294, 1.49175, -0.1177368, 1.49175, 0.9389313, 1.49175, 0.7633588, 1.49175, -3.1679389
0.1762941, -0.0124208, 1.4985, 0.0060425, 1.4985, -1.0088501, 1.4985, -0.1207886, 1.4985, 0.9770992, 1.4985, 0.8320611, 1.4985, -3.0992367
0.1770882, -0.0119173, 1.50525, 0.008606, 1.50525, -1.0068359, 1.50525, -0.119751, 1.50525, 0.8625954, 1.50525, 0.9312977, 1.50525, -3.1832061
0.1778824, -0.0115816, 1.512, 0.0064087, 1.512, -1.0067139, 1.512, -0.1205444, 1.512, 1.1908396, 1.512, 0.9694657, 1.512, -3.1374047
0.1786765, -0.0104067, 1.51875, 0.0081787, 1.51875, -1.0049438, 1.51875, -0.1206055, 1.51875, 1.3053435, 1.51875, 1.0458015, 1.51875, -3.2977099
0.1794706, -0.0085603, 1.5255, 0.0057373, 1.5255, -1.0066528, 1.5255, -0.1248779, 1.5255, 1.091603, 1.5255, 1.0458015, 1.5255, -3.2748091
0.1802647, -0.0125887, 1.53225, 0.0081787, 1.53225, -1.0076904, 1.53225, -0.1227417, 1.53225, 0.9465649, 1.53225, 1, 1.53225, -3.2900763
0.1810588, -0.0151064, 1.539, 0.0083618, 1.539, -1.0045776, 1.539, -0.1217041, 1.539, 1.038168, 1.539, 0.9541985, 1.539, -3.221374
0.1818529, -0.0176242, 1.54575, 0.0102539, 1.54575, -1.003418, 1.54575, -0.1160278, 1.54575, 1.0610687, 1.54575, 1.0763359, 1.54575, -3.1374047
0.1826471, -0.0149386, 1.5525, 0.0108643, 1.5525, -1.0015869, 1.5525, -0.1154175, 1.5525, 1.2442749, 1.5525, 1.038168, 1.5525, -3.2824428
0.1834412, -0.0135958, 1.55925, 0.0130615, 1.55925, -1.0014648, 1.55925, -0.1183472, 1.55925, 1.3816794, 1.55925, 1.1679389, 1.55925, -3.1908398
0.1842353, -0.0162814, 1.566, 0.0136108, 1.566, -1.0021973, 1.566, -0.1212158, 1.566, 1.3129771, 1.566, 1.5648855, 1.566, -3.4122138
0.1850294, -0.0166171, 1.57275, 0.0137329, 1.57275, -1.0070801, 1.57275, -0.119812, 1.57275, 1.2900764, 1.57275, 1.7862595, 1.57275, -3.091603
0.1858235, -0.0194705, 1.5795, 0.0146484, 1.5795, -1.0117188, 1.5795, -0.1157227, 1.5795, 1.2824427, 1.5795, 2.1755726, 1.5795, -3.1068702
0.1866176, -0.0199741, 1.58625, 0.0079346, 1.58625, -1.0125732, 1.58625, -0.1123657, 1.58625, 1.480916, 1.58625, 2.4122138, 1.58625, -2.8931298
0.1874118, -0.0186313, 1.593, 0.0070801, 1.593, -1.0125732, 1.593, -0.1143188, 1.593, 1.3740458, 1.593, 2.5572519, 1.593, -3.0687022
0.1882059, -0.0198062, 1.59975, 0.0072632, 1.59975, -1.0119629, 1.59975, -0.1159058, 1.59975, 1.3206106, 1.59975, 2.6564887, 1.59975, -2.8931298
0.189, -0.0149386, 1.6065, 0.0067749, 1.6065, -1.012146, 1.6065, -0.112793, 1.6065, 1.4656489, 1.6065, 2.6946564, 1.6065, -3.0305343
0.1897941, -0.01561, 1.61325, 0.0054321, 1.61325, -1.0092773, 1.61325, -0.1142578, 1.61325, 1.4351145, 1.61325, 2.5572519, 1.61325, -2.7862597
0.1905882, -0.0166171, 1.62, -0.0076904, 1.62, -1.010498, 1.62, -0.1184692, 1.62, 0.9389313, 1.62, 1.8931298, 1.62, -2.740458
0.1913824, -0.0142672, 1.62675, -0.012146, 1.62675, -1.0106812, 1.62675, -0.1324463, 1.62675, 0.9312977, 1.62675, 1.2824427, 1.62675, -2.8167939
0.1921765, -0.0125887, 1.6335, 0.0054321, 1.6335, -1.0056152, 1.6335, -0.1374512, 1.6335, 1.5038168, 1.6335, 0.9847328, 1.6335, -3.3816793
0.1929706, -0.0117494, 1.64025, 0.022583, 1.64025, -1.0050049, 1.64025, -0.1276245, 1.64025, 1.1526718, 1.64025, 0.9923664, 1.64025, -3.4122138
0.1937647, -0.0099031, 1.647, 0.0253906, 1.647, -1.0128784, 1.647, -0.1135254, 1.647, 0.8244275, 1.647, 1.4732825, 1.647, -2.7251909
0.1945588, -0.0102388, 1.65375, 0.0227661, 1.65375, -1.0110474, 1.65375, -0.109314, 1.65375, 1.3664122, 1.65375, 2.5267177, 1.65375, -2.6641221
0.1953529, -0.0119173, 1.6605, 0.0195923, 1.6605, -1.0064087, 1.6605, -0.1182251, 1.6605, 1.6946565, 1.6605, 3.4656489, 1.6605, -3.0305343
0.1961471, -0.012253, 1.66725, 0.020874, 1.66725, -1.0028687, 1.66725, -0.1251831, 1.66725, 1.961832, 1.66725, 3.259542, 1.66725, -3.129771
0.1969412, -0.0124208, 1.674, 0.0205078, 1.674, -1.0071411, 1.674, -0.1293945, 1.674, 1.7862595, 1.674, 2.9770992, 1.674, -3.0534351
0.1977353, -0.0162814, 1.68075, 0.0134888, 1.68075, -1.0061035, 1.68075, -0.1355591, 1.68075, 1.6412214, 1.68075, 3.7709923, 1.68075, -2.6793892
0.1985294, -0.0193027, 1.6875, 0.0066528, 1.6875, -1.0058594, 1.6875, -0.1322021, 1.6875, 2.1145039, 1.6875, 3.9312978, 1.6875, -2.6793892
0.1993235, -0.0206455, 1.69425, -0.0043335, 1.69425, -1.0055542, 1.69425, -0.133606, 1.69425, 2.3740458, 1.69425, 2.8854961, 1.69425, -2.9312978
0.2001176, -0.0169528, 1.701, -0.0147095, 1.701, -1.0030518, 1.701, -0.1318359, 1.701, 2.389313, 1.701, 2.4656489, 1.701, -3.038168
0.2009118, -0.0169528, 1.70775, -0.0140381, 1.70775, -1.0046387, 1.70775, -0.1327515, 1.70775, 2.5648854, 1.70775, 2.4427481, 1.70775, -2.9847329
0.2017059, -0.0171206, 1.7145, -0.0125732, 1.7145, -1.0042114, 1.7145, -0.1344604, 1.7145, 2.6564887, 1.7145, 2.0305343, 1.7145, -3.0534351
0.2025, -0.0176242, 1.72125, -0.0097046, 1.72125, -1.0025024, 1.72125, -0.130188, 1.72125, 2.5419848, 1.72125, 1.1068702, 1.72125, -3.1221373
0.2032941, -0.0157778, 1.728, -0.0077515, 1.728, -1.0059814, 1.728, -0.1254883, 1.728, 2.2061069, 1.728, 0.5267175, 1.728, -3.1603053
0.2040882, -0.018967, 1.73475, -0.0040283, 1.73475, -1.008606, 1.73475, -0.1175537, 1.73475, 2.4961832, 1.73475, 0.0381679, 1.73475, -3.3969467
0.2048824, -0.018967, 1.7415, -0.0063477, 1.7415, -1.005249, 1.7415, -0.12146, 1.7415, 2.5114503, 1.7415, 0.0458015, 1.7415, -3.3358779
0.2056765, -0.0172885, 1.74825, -0.0040283, 1.74825, -1.0078735, 1.74825, -0.114563, 1.74825, 2.4274809, 1.74825, 0.0534351, 1.74825, -3.4580152
0.2064706, -0.0164492, 1.755, 0.0027466, 1.755, -1.0039673, 1.755, -0.111145, 1.755, 2.5877862, 1.755, -0.0305344, 1.755, -3.5496182
0.2072647, -0.0164492, 1.76175, 0.0012817, 1.76175, -1.0057373, 1.76175, -0.1137695, 1.76175, 2.3740458, 1.76175, -0.2519084, 1.76175, -3.7862597
0.2080588, -0.0142672, 1.7685, -0.0002441, 1.7685, -1.0041504, 1.7685, -0.1109619, 1.7685, 2.351145, 1.7685, -0.7557252, 1.7685, -3.8473282
0.2088529, -0.014435, 1.77525, -0.0023804, 1.77525, -1.0065308, 1.77525, -0.1021729, 1.77525, 2.221374, 1.77525, -0.7862595, 1.77525, -3.7099237
0.2096471, -0.0135958, 1.782, -0.0022583, 1.782, -1.0048828, 1.782, -0.1026001, 1.782, 1.961832, 1.782, -0.7633588, 1.782, -3.908397
0.2104412, -0.0112459, 1.78875, -0.0045776, 1.78875, -1.0056763, 1.78875, -0.100647, 1.78875, 2.038168, 1.78875, -1.2290076, 1.78875, -3.9236641
0.2112353, -0.0095674, 1.7955, -0.0043335, 1.7955, -1.001709, 1.7955, -0.1010132, 1.7955, 1.8015267, 1.7955, -1.5114504, 1.7955, -3.9160306
0.2120294, -0.0083925, 1.80225, -0.0040894, 1.80225, -1.0004883, 1.80225, -0.0987549, 1.80225, 1.3053435, 1.80225, -1.8320611, 1.80225, -4.1679387
0.2128235, -0.0097353, 1.809, -0.0048218, 1.809, -1.0004883, 1.809, -0.0969238, 1.809, 1.1145039, 1.809, -2.0687022, 1.809, -3.9541984
0.2136176, -0.0090639, 1.81575, -0.0044556, 1.81575, -1.0023193, 1.81575, -0.097168, 1.81575, 1, 1.81575, -2.2748091, 1.81575, -3.9694657
0.2144118, -0.0115816, 1.8225, -0.0010376, 1.8225, -1.0004272, 1.8225, -0.0992432, 1.8225, 0.8625954, 1.8225, -2.1832061, 1.8225, -4.0687022
0.2152059, -0.0152743, 1.82925, 0.0003052, 1.82925, -1.0003052, 1.82925, -0.1033325, 1.82925, 0.8244275, 1.82925, -2.2824428, 1.82925, -4.2061067
0.216, -0.0151064, 1.836, 0.0062256, 1.836, -1.0010376, 1.836, -0.1082764, 1.836, 0.6183206, 1.836, -2.5572519, 1.836, -4.2519083
0.2167941, -0.0137636, 1.84275, 0.0056152, 1.84275, -0.9997559, 1.84275, -0.1117554, 1.84275, 0.351145, 1.84275, -2.7251909, 1.84275, -4.1908398
0.2175882, -0.0125887, 1.8495, 0.0070801, 1.8495, -1.0031738, 1.8495, -0.1123047, 1.8495, 0.0916031, 1.8495, -2.6030533, 1.8495, -4.1755724
0.2183824, -0.0104067, 1.85625, 0.008606, 1.85625, -1.0054932, 1.85625, -0.1120605, 1.85625, -0.0534351, 1.85625, -2.7862597, 1.85625, -4.1603055
0.2191765, -0.0104067, 1.863, 0.0062866, 1.863, -1.008728, 1.863, -0.1175537, 1.863, 0.0305344, 1.863, -2.8931298, 1.863, -4.0992365
0.2199706, -0.0154421, 1.86975, 0.012085, 1.86975, -1.0103149, 1.86975, -0.1139526, 1.86975, -0.2290076, 1.86975, -2.6870229, 1.86975, -4.1145039
0.2207647, -0.0135958, 1.8765, 0.0131836, 1.8765, -1.0089111, 1.8765, -0.1136475, 1.8765, -0.1679389, 1.8765, -2.8396947, 1.8765, -4.1832061
0.2215588, -0.0149386, 1.88325, 0.0170898, 1.88325, -1.0064087, 1.88325, -0.1126709, 1.88325, -0.2748092, 1.88325, -2.7022901, 1.88325, -4.1145039
0.2223529, -0.0172885, 1.89, 0.0212402, 1.89, -1.008728, 1.89, -0.1137085, 1.89, -0.2442748, 1.89, -2.4580152, 1.89, -4.0458016
0.2231471, -0.0191348, 1.89675, 0.0227661, 1.89675, -1.008728, 1.89675, -0.1170044, 1.89675, -0.2748092, 1.89675, -2.0458016, 1.89675, -3.9923663
0.2239412, -0.0203098, 1.9035, 0.0241699, 1.9035, -1.0073853, 1.9035, -0.1165161, 1.9035, -0.389313, 1.9035, -1.6870229, 1.9035, -3.8931298
0.2247353, -0.0203098, 1.91025, 0.0219116, 1.91025, -1.0073853, 1.91025, -0.1168213, 1.91025, -0.5954198, 1.91025, -1.4732825, 1.91025, -3.7633588
0.2255294, -0.0216526, 1.917, 0.022644, 1.917, -1.0055542, 1.917, -0.114624, 1.917, -0.3969466, 1.917, -1.3358779, 1.917, -3.8091602
0.2263235, -0.0223239, 1.92375, 0.0214844, 1.92375, -1.0065308, 1.92375, -0.1177979, 1.92375, -0.2671756, 1.92375, -1.0839695, 1.92375, -3.7251909
0.2271176, -0.0224918, 1.9305, 0.0196533, 1.9305, -1.0044556, 1.9305, -0.1193848, 1.9305, -0.3587786, 1.9305, -0.9770992, 1.9305, -3.6870229
0.2279118, -0.0223239, 1.93725, 0.0159912, 1.93725, -1.0097656, 1.93725, -0.1236572, 1.93725, -0.4198473, 1.93725, -0.7328244, 1.93725, -3.5267177
0.2287059, -0.0229953, 1.944, 0.017334, 1.944, -1.0076904, 1.944, -0.1199341, 1.944, -0.1526718, 1.944, -0.7251908, 1.944, -3.610687
0.2295, -0.0216526, 1.95075, 0.0096436, 1.95075, -1.0066528, 1.95075, -0.1190186, 1.95075, -0.0763359, 1.95075, -0.8244275, 1.95075, -3.7862597
0.2302941, -0.0216526, 1.9575, -0.0026855, 1.9575, -1.0125732, 1.9575, -0.12146, 1.9575, -0.1221374, 1.9575, -1.5496184, 1.9575, -3.6259542
0.2310882, -0.0219883, 1.96425, 0.0007324, 1.96425, -1.0091553, 1.96425, -0.1166992, 1.96425, 0.1221374, 1.96425, -2.4732823, 1.96425, -4.0076337
0.2318824, -0.0191348, 1.971, 0.0113525, 1.971, -0.9996338, 1.971, -0.1203613, 1.971, 0.6412213, 1.971, -2.961832, 1.971, -4.2977099
0.2326765, -0.0149386, 1.97775, 0.0088501, 1.97775, -1.003479, 1.97775, -0.1307373, 1.97775, 0.1068702, 1.97775, -2.2290077, 1.97775, -3.5038168
0.2334706, -0.0142672, 1.9845, 0.0210571, 1.9845, -1.008667, 1.9845, -0.1294556, 1.9845, -0.1908397, 1.9845, -1.5572519, 1.9845, -3.1832061
0.2342647, -0.0129244, 1.99125, 0.0251465, 1.99125, -1.0118408, 1.99125, -0.1326294, 1.99125, 0.0839695, 1.99125, -0.870229, 1.99125, -3.1221373
0.2350588, -0.0115816, 1.998, 0.0164795, 1.998, -1.0054321, 1.998, -0.128479, 1.998, 0.6870229, 1.998, 0.2366412, 1.998, -3.2977099
0.2358529, -0.008896, 2.00475, 0.0076294, 2.00475, -1.0029297, 2.00475, -0.1188965, 2.00475, 1.1450381, 2.00475, -0.351145, 2.00475, -3.6946564
0.2366471, -0.0092317, 2.0115, -0.0054932, 2.0115, -1.006897, 2.0115, -0.1304932, 2.0115, 0.4961832, 2.0115, -0.3587786, 2.0115, -3.221374
0.2374412, -0.010071, 2.01825, 0.0025635, 2.01825, -1.0112305, 2.01825, -0.1376953, 2.01825, 0.1603053, 2.01825, -0.389313, 2.01825, -3.0458016
0.2382353, -0.0095674, 2.025, 0.0158691, 2.025, -1.0145264, 2.025, -0.1274414, 2.025, 0.5267175, 2.025, -0.9770992, 2.025, -3.0687022
0.2390294, -0.0092317, 2.03175, 0.0250854, 2.03175, -1.0111084, 2.03175, -0.1175537, 2.03175, 0.7328244, 2.03175, -1.6030535, 2.03175, -3.2977099
0.2398235, -0.0093996, 2.0385, 0.0217285, 2.0385, -1.0089111, 2.0385, -0.1184692, 2.0385, 0.5954198, 2.0385, -1.4427481, 2.0385, -3.3816793
0.2406176, -0.011078, 2.04525, 0.0155029, 2.04525, -1.0050049, 2.04525, -0.1270752, 2.04525, 0.5648855, 2.04525, -0.7099237, 2.04525, -3.1984732
0.2414118, -0.0107424, 2.052, 0.0155029, 2.052, -1.0038452, 2.052, -0.1295166, 2.052, 0.8091603, 2.052, -0.4503817, 2.052, -3.0229008
0.2422059, -0.0102388, 2.05875, 0.0146484, 2.05875, -1.0028076, 2.05875, -0.1257935, 2.05875, 0.8091603, 2.05875, -0.2748092, 2.05875, -3.0229008
0.243, -0.0095674, 2.0655, 0.0124512, 2.0655, -1.0083618, 2.0655, -0.1256104, 2.0655, 1, 2.0655, -0.3969466, 2.0655, -2.9847329
0.2437941, -0.0072175, 2.07225, 0.0083618, 2.07225, -1.0048218, 2.07225, -0.1241455, 2.07225, 1.038168, 2.07225, -0.3816794, 2.07225, -3.0687022
0.2445882, -0.008896, 2.079, 0.0093994, 2.079, -1.0062256, 2.079, -0.1243896, 2.079, 1.1450381, 2.079, -0.6030535, 2.079, -3.1679389
0.2453824, -0.0129244, 2.08575, 0.0079346, 2.08575, -1.0054932, 2.08575, -0.125, 2.08575, 1.0763359, 2.08575, -0.5343512, 2.08575, -3.0992367
0.2461765, -0.008896, 2.0925, 0.006958, 2.0925, -1.0097046, 2.0925, -0.1227417, 2.0925, 1.0305344, 2.0925, -0.3206107, 2.0925, -3
0.2469706, -0.008896, 2.09925, 0.010376, 2.09925, -1.0062866, 2.09925, -0.1240234, 2.09925, 1.0839695, 2.09925, -0.3587786, 2.09925, -2.8854961
0.2477647, -0.0151064, 2.106, 0.0119629, 2.106, -1.0056152, 2.106, -0.1140747, 2.106, 0.9236641, 2.106, -0.4961832, 2.106, -3
0.2485588, -0.0172885, 2.11275, 0.0145264, 2.11275, -1.0056152, 2.11275, -0.1165161, 2.11275, 1.038168, 2.11275, -0.8167939, 2.11275, -2.9465649
0.2493529, -0.0166171, 2.1195, 0.0165405, 2.1195, -1.0053101, 2.1195, -0.1188965, 2.1195, 0.8091603, 2.1195, -0.4885496, 2.1195, -2.9160306
0.2501471, -0.0162814, 2.12625, 0.017334, 2.12625, -1.0077515, 2.12625, -0.1168213, 2.12625, 0.7862595, 2.12625, -0.2137405, 2.12625, -3.0229008
0.2509412, -0.0146029, 2.133, 0.0186768, 2.133, -1.0067139, 2.133, -0.1159668, 2.133, 0.9465649, 2.133, 0.1984733, 2.133, -2.9007633
0.2517353, -0.0125887, 2.13975, 0.0211182, 2.13975, -1.0081177, 2.13975, -0.1132202, 2.13975, 1.0229008, 2.13975, 0.2366412, 2.13975, -2.9160306
0.2525294, -0.0130922, 2.1465, 0.0198975, 2.1465, -1.0100708, 2.1465, -0.1124268, 2.1465, 0.9770992, 2.1465, 0.610687, 2.1465, -2.7862597
0.2533235, -0.0149386, 2.15325, 0.0202637, 2.15325, -1.0053101, 2.15325, -0.1182861, 2.15325, 0.7633588, 2.15325, 1.0076336, 2.15325, -2.6259542
0.2541176, -0.0169528, 2.16, 0.0213013, 2.16, -1.0084839, 2.16, -0.1169434, 2.16, 1, 2.16, 1.2519084, 2.16, -2.6564887
0.2549118, -0.0191348, 2.16675, 0.0163574, 2.16675, -1.006897, 2.16675, -0.1135864, 2.16675, 0.961832, 2.16675, 1.5725191, 2.16675, -2.5648854
0.2557059, -0.017792, 2.1735, 0.0133667, 2.1735, -1.0062866, 2.1735, -0.1126099, 2.1735, 0.8244275, 2.1735, 1.8473282, 2.1735, -2.3358779
0.2565, -0.0164492, 2.18025, 0.0108643, 2.18025, -1.0043945, 2.18025, -0.1132812, 2.18025, 0.8473282, 2.18025, 2, 2.18025, -2.3664122
0.2572941, -0.0181277, 2.187, 0.0107422, 2.187, -1.0037231, 2.187, -0.1154175, 2.187, 0.8854962, 2.187, 2.091603, 2.187, -2.2671757
0.2580882, -0.0182956, 2.19375, 0.0137329, 2.19375, -1.0056152, 2.19375, -0.117981, 2.19375, 1.0229008, 2.19375, 2.2290077, 2.19375, -2.2748091
0.2588824, -0.0146029, 2.2005, 0.0136108, 2.2005, -1.0067139, 2.2005, -0.1179199, 2.2005, 0.8244275, 2.2005, 2.1984732, 2.2005, -2.2366412
0.2596765, -0.0112459, 2.20725, 0.0126953, 2.20725, -1.0070801, 2.20725, -0.1206665, 2.20725, 0.7022901, 2.20725, 2.6030533, 2.20725, -2.2671757
0.2604706, -0.012253, 2.214, 0.0130615, 2.214, -1.0067749, 2.214, -0.1228027, 2.214, 0.8473282, 2.214, 2.5954199, 2.214, -2.2900763
0.2612647, -0.0132601, 2.22075, 0.0118408, 2.22075, -1.0084839, 2.22075, -0.1224976, 2.22075, 0.5877863, 2.22075, 2.8396947, 2.22075, -2.0534351
0.2620588, -0.0115816, 2.2275, 0.0081177, 2.2275, -1.0084839, 2.2275, -0.1200562, 2.2275, 0.4732825, 2.2275, 2.8931298, 2.2275, -2.1374047
0.2628529, -0.0115816, 2.23425, 0.0100098, 2.23425, -1.0099487, 2.23425, -0.1204834, 2.23425, 0.5419847, 2.23425, 2.9236641, 2.23425, -2.1374047
0.2636471, -0.0109102, 2.241, 0.0108032, 2.241, -1.0092773, 2.241, -0.1242676, 2.241, 0.4656489, 2.241, 2.8167939, 2.241, -2.0687022
0.2644412, -0.0099031, 2.24775, 0.0098267, 2.24775, -1.0098267, 2.24775, -0.1245728, 2.24775, 0.5343512, 2.24775, 2.9160306, 2.24775, -2.3358779
0.2652353, -0.0129244, 2.2545, 0.0131226, 2.2545, -1.0103149, 2.2545, -0.1293335, 2.2545, 0.3587786, 2.2545, 3.1908398, 2.2545, -2.1755726
0.2660294, -0.01561, 2.26125, 0.0114136, 2.26125, -1.0085449, 2.26125, -0.1331787, 2.26125, 0.3587786, 2.26125, 3.3969467, 2.26125, -2.1450381
0.2668235, -0.014435, 2.268, 0.010437, 2.268, -1.0109253, 2.268, -0.1332397, 2.268, 0.5496183, 2.268, 3.5648854, 2.268, -2.038168
0.2676176, -0.0124208, 2.27475, 0.0076294, 2.27475, -1.008606, 2.27475, -0.1356812, 2.27475, 0.6412213, 2.27475, 3.4351146, 2.27475, -2.0305343
0.2684118, -0.010071, 2.2815, 0.0009766, 2.2815, -1.0080566, 2.2815, -0.1356201, 2.2815, 0.8549618, 2.2815, 3.2900763, 2.2815, -1.8931298
0.2692059, -0.0129244, 2.28825, -0.0002441, 2.28825, -1.0088501, 2.28825, -0.1364136, 2.28825, 1.0687023, 2.28825, 3.3206108, 2.28825, -2.038168
0.27, -0.0137636, 2.295, 0.0015259, 2.295, -1.0075684, 2.295, -0.1352539, 2.295, 1.0076336, 2.295, 3.2366412, 2.295, -1.9312977
0.2707941, -0.0137636, 2.30175, 0.001709, 2.30175, -1.007019, 2.30175, -0.131897, 2.30175, 1.0763359, 2.30175, 3.1068702, 2.30175, -2.0534351
0.2715882, -0.0132601, 2.3085, 0.0039673, 2.3085, -1.0108032, 2.3085, -0.1297607, 2.3085, 1.3358779, 2.3085, 2.8473282, 2.3085, -2.0305343
0.2723824, -0.0159457, 2.31525, 0.0040894, 2.31525, -1.0071411, 2.31525, -0.1296387, 2.31525, 1.4732825, 2.31525, 2.908397, 2.31525, -2.221374
0.2731765, -0.0182956, 2.322, 0.0001831, 2.322, -1.0061646, 2.322, -0.1245117, 2.322, 1.610687, 2.322, 2.8167939, 2.322, -2.1374047
0.2739706, -0.01561, 2.32875, 0.0003662, 2.32875, -1.005188, 2.32875, -0.1271362, 2.32875, 1.8320611, 2.32875, 2.7557251, 2.32875, -2.0763359
0.2747647, -0.017792, 2.3355, -0.0021362, 2.3355, -1.0059814, 2.3355, -0.12677, 2.3355, 1.7480916, 2.3355, 2.7633588, 2.3355, -2.1374047
0.2755588, -0.0226596, 2.34225, -0.0005493, 2.34225, -1.0081177, 2.34225, -0.1264038, 2.34225, 1.9007634, 2.34225, 2.6030533, 2.34225, -2.221374
0.2763529, -0.023331, 2.349, 0.0023193, 2.349, -1.0056152, 2.349, -0.1287842, 2.349, 1.9923664, 2.349, 2.2290077, 2.349, -2.4045801
0.2771471, -0.0219883, 2.35575, 0.0009155, 2.35575, -1.0090942, 2.35575, -0.1230469, 2.35575, 2.0152671, 2.35575, 2.1221373, 2.35575, -2.4656489
0.2779412, -0.0206455, 2.3625, -0.0003662, 2.3625, -1.0067749, 2.3625, -0.1203003, 2.3625, 1.9923664, 2.3625, 2.4732823, 2.3625, -2.5038168
0.2787353, -0.0179599, 2.36925, -0.0030518, 2.36925, -1.005249, 2.36925, -0.1188965, 2.36925, 2.0076337, 2.36925, 2.3358779, 2.36925, -2.5801528
0.2795294, -0.0154421, 2.376, -0.0015869, 2.376, -1.0085449, 2.376, -0.1178589, 2.376, 1.9770992, 2.376, 1.9694656, 2.376, -2.5572519
0.2803235, -0.0125887, 2.38275, -0.0004272, 2.38275, -1.008667, 2.38275, -0.1184082, 2.38275, 2.0534351, 2.38275, 1.7175573, 2.38275, -2.740458
0.2811176, -0.0117494, 2.3895, -6.1E-05, 2.3895, -1.0057373, 2.3895, -0.1171265, 2.3895, 2.038168, 2.3895, 1.4427481, 2.3895, -2.610687
0.2819118, -0.0139315, 2.39625, -0.0001221, 2.39625, -1.0045166, 2.39625, -0.1167603, 2.39625, 1.7480916, 2.39625, 1.519084, 2.39625, -2.8244274
0.2827059, -0.0129244, 2.403, -0.0025024, 2.403, -1.0059814, 2.403, -0.1172485, 2.403, 1.5267175, 2.403, 1.3129771, 2.403, -2.610687
0.2835, -0.0082246, 2.40975, 0.0007935, 2.40975, -1.005127, 2.40975, -0.1179199, 2.40975, 1.5343511, 2.40975, 1.2137405, 2.40975, -2.8320611
0.2842941, -0.008896, 2.4165, 0.0038452, 2.4165, -1.0093994, 2.4165, -0.1142578, 2.4165, 1.8625954, 2.4165, 1.4961832, 2.4165, -2.9923663
0.2850882, -0.0115816, 2.42325, 0.0036621, 2.42325, -1.0068359, 2.42325, -0.1174316, 2.42325, 1.5801526, 2.42325, 1.5877863, 2.42325, -2.9541984
0.2858824, -0.011078, 2.43, 0.0012817, 2.43, -1.0038452, 2.43, -0.1152954, 2.43, 1.3664122, 2.43, 1.2442749, 2.43, -2.870229
0.2866765, -0.011078, 2.43675, 6.1E-05, 2.43675, -1.0041504, 2.43675, -0.1149292, 2.43675, 1.2671756, 2.43675, 1.389313, 2.43675, -3.1068702
0.2874706, -0.0117494, 2.4435, -0.0008545, 2.4435, -1.0033569, 2.4435, -0.1189575, 2.4435, 1.2671756, 2.4435, 1.3816794, 2.4435, -3.2061069
0.2882647, -0.0135958, 2.45025, -0.003418, 2.45025, -1.0028687, 2.45025, -0.1195068, 2.45025, 1.2290076, 2.45025, 1.480916, 2.45025, -3.1450381
0.2890588, -0.0149386, 2.457, -0.0032349, 2.457, -1.0058594, 2.457, -0.1127319, 2.457, 1.1374046, 2.457, 1.1832061, 2.457, -3.2061069
0.2898529, -0.0149386, 2.46375, -0.0028687, 2.46375, -1.0056763, 2.46375, -0.114624, 2.46375, 1.1679389, 2.46375, 1.0687023, 2.46375, -3.4427481
0.2906471, -0.008896, 2.4705, -0.0027466, 2.4705, -1.0085449, 2.4705, -0.1174927, 2.4705, 1.1450381, 2.4705, 0.9312977, 2.4705, -3.3816793
0.2914412, -0.0095674, 2.47725, -0.0019531, 2.47725, -1.0053101, 2.47725, -0.114502, 2.47725, 0.9770992, 2.47725, 0.8549618, 2.47725, -3.4198472
0.2922353, -0.0129244, 2.484, -0.003479, 2.484, -1.003418, 2.484, -0.114563, 2.484, 0.9465649, 2.484, 0.5114504, 2.484, -3.6030533
0.2930294, -0.0135958, 2.49075, -0.0047607, 2.49075, -1.0027466, 2.49075, -0.1184692, 2.49075, 1.0076336, 2.49075, 0.4351145, 2.49075, -3.6183207
0.2938235, -0.0149386, 2.4975, -6.1E-05, 2.4975, -1.005188, 2.4975, -0.1186523, 2.4975, 0.9312977, 2.4975, 0.5725191, 2.4975, -3.5648854
0.2946176, -0.0191348, 2.50425, 0.0003052, 2.50425, -1.0055542, 2.50425, -0.1175537, 2.50425, 0.9160305, 2.50425, 0.3282443, 2.50425, -3.7862597
0.2954118, -0.0216526, 2.511, -0.0013428, 2.511, -1.0079346, 2.511, -0.1217651, 2.511, 0.9160305, 2.511, 0.5572519, 2.511, -3.6793892
0.2962059, -0.0203098, 2.51775, 6.1E-05, 2.51775, -1.0090332, 2.51775, -0.1202393, 2.51775, 0.8931298, 2.51775, 0.519084, 2.51775, -3.7709923
0.297, -0.0209812, 2.5245, 0.0020752, 2.5245, -1.0092163, 2.5245, -0.1239014, 2.5245, 0.9847328, 2.5245, 0.4656489, 2.5245, -3.8167939
0.2977941, -0.0213169, 2.53125, 0.0009766, 2.53125, -1.006897, 2.53125, -0.1199341, 2.53125, 1.1374046, 2.53125, 0.3358779, 2.53125, -3.8549619
0.2985882, -0.0209812, 2.538, 0.0010986, 2.538, -1.0073242, 2.538, -0.1229858, 2.538, 1.2061069, 2.538, 0.4656489, 2.538, -3.9236641
0.2993824, -0.0209812, 2.54475, 0.0006714, 2.54475, -1.0083618, 2.54475, -0.1248779, 2.54475, 1.2519084, 2.54475, 0.3587786, 2.54475, -3.7480917
0.3001765, -0.0159457, 2.5515, 0.0012817, 2.5515, -1.0094604, 2.5515, -0.1243896, 2.5515, 1.2748091, 2.5515, -0.0381679, 2.5515, -4.0839696
0.3009706, -0.0135958, 2.55825, 0.0023804, 2.55825, -1.0111694, 2.55825, -0.1262207, 2.55825, 1.4045801, 2.55825, 0.0534351, 2.55825, -3.908397
0.3017647, -0.0132601, 2.565, 0.0053711, 2.565, -1.0081787, 2.565, -0.1256714, 2.565, 1.4351145, 2.565, 0.1526718, 2.565, -3.778626
0.3025588, -0.0115816, 2.57175, 0.0075073, 2.57175, -1.0078125, 2.57175, -0.1237183, 2.57175, 1.4885496, 2.57175, 0.129771, 2.57175, -3.961832
0.3033529, -0.0102388, 2.5785, 0.0106201, 2.5785, -1.0081787, 2.5785, -0.1227417, 2.5785, 1.4656489, 2.5785, 0.2061069, 2.5785, -4.0076337
0.3041471, -0.0045319, 2.58525, 0.0092163, 2.58525, -1.008606, 2.58525, -0.1254272, 2.58525, 1.480916, 2.58525, 0.3740458, 2.58525, -4.1526718
0.3049412, -0.0001678, 2.592, 0.006958, 2.592, -1.0064697, 2.592, -0.1213379, 2.592, 1.648855, 2.592, 0.4198473, 2.592, -4.1908398
0.3057353, 0.0011749, 2.59875, 0.0075684, 2.59875, -1.0063477, 2.59875, -0.125061, 2.59875, 1.6946565, 2.59875, 0.5419847, 2.59875, -3.9847329
0.3065294, -0.0041962, 2.6055, 0.0021362, 2.6055, -1.0053101, 2.6055, -0.1223755, 2.6055, 1.7480916, 2.6055, 0.4961832, 2.6055, -4.0229006
0.3073235, -0.0065461, 2.61225, 0.001709, 2.61225, -1.006958, 2.61225, -0.1193848, 2.61225, 1.7175573, 2.61225, 0.1221374, 2.61225, -4.2137403
0.3081176, -0.0052033, 2.619, 0.0009766, 2.619, -1.0076294, 2.619, -0.1177979, 2.619, 1.7709924, 2.619, 0.1526718, 2.619, -4.2900763
0.3089118, -0.0057069, 2.62575, 0.001709, 2.62575, -1.0053101, 2.62575, -0.1208496, 2.62575, 1.7633588, 2.62575, -0.0839695, 2.62575, -4.2137403
0.3097059, -0.0072175, 2.6325, 0.0036011, 2.6325, -1.006897, 2.6325, -0.1203003, 2.6325, 1.5419847, 2.6325, -0.0763359, 2.6325, -4.1221375
0.3105, -0.0102388, 2.63925, 0.0045776, 2.63925, -1.0123291, 2.63925, -0.1187134, 2.63925, 1.6030535, 2.63925, -0.259542, 2.63925, -4.1832061
0.3112941, -0.0109102, 2.646, 0.008728, 2.646, -1.0101318, 2.646, -0.116333, 2.646, 1.6335878, 2.646, -0.3816794, 2.646, -4.3129773
0.3120882, -0.0125887, 2.65275, 0.0062866, 2.65275, -1.005127, 2.65275, -0.1168213, 2.65275, 1.9007634, 2.65275, -0.3664122, 2.65275, -4.2748094
0.3128824, -0.0157778, 2.6595, 0.0081177, 2.6595, -1.005249, 2.6595, -0.1218262, 2.6595, 1.740458, 2.6595, -0.1068702, 2.6595, -4.0687022
0.3136765, -0.0124208, 2.66625, 0.008728, 2.66625, -1.0085449, 2.66625, -0.1231689, 2.66625, 1.5801526, 2.66625, 0.3740458, 2.66625, -4.0229006
0.3144706, -0.0092317, 2.673, 0.0075684, 2.673, -1.0071411, 2.673, -0.124939, 2.673, 1.870229, 2.673, 0.3664122, 2.673, -4.0687022
0.3152647, -0.0125887, 2.67975, 0.0064087, 2.67975, -1.0068359, 2.67975, -0.1242065, 2.67975, 1.8854961, 2.67975, 0.0763359, 2.67975, -3.9007633
0.3160588, -0.0130922, 2.6865, 0.0063477, 2.6865, -1.008667, 2.6865, -0.1226807, 2.6865, 1.9007634, 2.6865, 0.0763359, 2.6865, -3.9541984
0.3168529, -0.0149386, 2.69325, 0.0130615, 2.69325, -1.0018921, 2.69325, -0.1239624, 2.69325, 1.9465649, 2.69325, -0.1984733, 2.69325, -3.8091602
0.3176471, -0.0132601, 2.7, 0.0147095, 2.7, -1.0084839, 2.7, -0.1176147, 2.7, 2.3435113, 2.7, -0.6183206, 2.7, -3.8778627
0.3184412, -0.0109102, 2.70675, 0.0170898, 2.70675, -1.008728, 2.70675, -0.1178589, 2.70675, 2.1145039, 2.70675, -0.6793893, 2.70675, -4.0458016
0.3192353, -0.0083925, 2.7135, 0.0201416, 2.7135, -1.0129395, 2.7135, -0.1187134, 2.7135, 1.9007634, 2.7135, -0.519084, 2.7135, -3.9694657
0.3200294, -0.0109102, 2.72025, 0.0195312, 2.72025, -1.0144043, 2.72025, -0.121582, 2.72025, 2.0458016, 2.72025, -0.1832061, 2.72025, -3.9465649
0.3208235, -0.0117494, 2.727, 0.0216064, 2.727, -1.0147705, 2.727, -0.1200562, 2.727, 2.129771, 2.727, 0.5267175, 2.727, -3.7938931
0.3216176, -0.0109102, 2.73375, 0.0134888, 2.73375, -1.0125122, 2.73375, -0.1279907, 2.73375, 2.0229008, 2.73375, 1.2900764, 2.73375, -3.610687
0.3224118, -0.0135958, 2.7405, 0.0116577, 2.7405, -1.0076904, 2.7405, -0.1299438, 2.7405, 1.3664122, 2.7405, 1.3587786, 2.7405, -3.4274809
0.3232059, -0.0130922, 2.74725, 0.0059814, 2.74725, -1.0092773, 2.74725, -0.1330566, 2.74725, 1.2366412, 2.74725, 1.740458, 2.74725, -3.038168
0.324, -0.0142672, 2.754, 0.0065308, 2.754, -1.0090942, 2.754, -0.1339111, 2.754, 1.3358779, 2.754, 1.5038168, 2.754, -2.9541984
0.3247941, -0.0181277, 2.76075, 0.0075073, 2.76075, -1.0078735, 2.76075, -0.1325684, 2.76075, 1.4732825, 2.76075, 1.091603, 2.76075, -3.0839694
0.3255882, -0.0248417, 2.7675, 0.0094604, 2.7675, -1.0065308, 2.7675, -0.1309814, 2.7675, 1.4351145, 2.7675, 0.389313, 2.7675, -3.3969467
0.3263824, -0.024506, 2.77425, 0.013916, 2.77425, -1.0093384, 2.77425, -0.1229248, 2.77425, 1.3053435, 2.77425, 0.5343512, 2.77425, -3.2900763
0.3271765, -0.0223239, 2.781, 0.0123291, 2.781, -1.0155029, 2.781, -0.1172485, 2.781, 1.4274809, 2.781, 0.6259542, 2.781, -3.1832061
0.3279706, -0.0206455, 2.78775, 0.0154419, 2.78775, -1.0149536, 2.78775, -0.1130981, 2.78775, 1.6412214, 2.78775, 0.3435115, 2.78775, -3.2442749
0.3287647, -0.0209812, 2.7945, 0.0197144, 2.7945, -1.0116577, 2.7945, -0.1175537, 2.7945, 1.7251909, 2.7945, 0.6793893, 2.7945, -3.259542
0.3295588, -0.018967, 2.80125, 0.019165, 2.80125, -1.0078735, 2.80125, -0.1203003, 2.80125, 2.0458016, 2.80125, 1.259542, 2.80125, -3.0534351
0.3303529, -0.0196384, 2.808, 0.0169067, 2.808, -1.0057373, 2.808, -0.1273804, 2.808, 1.7862595, 2.808, 1.6946565, 2.808, -3
0.3311471, -0.0219883, 2.81475, 0.0172729, 2.81475, -1.0066528, 2.81475, -0.1283569, 2.81475, 1.3129771, 2.81475, 1.8396946, 2.81475, -3.0534351
0.3319412, -0.0216526, 2.8215, 0.0142822, 2.8215, -1.0074463, 2.8215, -0.1277466, 2.8215, 1.5572519, 2.8215, 1.648855, 2.8215, -2.9923663
0.3327353, -0.0199741, 2.82825, 0.0114136, 2.82825, -1.0097046, 2.82825, -0.1245117, 2.82825, 1.9007634, 2.82825, 1.5725191, 2.82825, -2.8625953
0.3335294, -0.0162814, 2.835, 0.0071411, 2.835, -1.0126953, 2.835, -0.1257324, 2.835, 1.7251909, 2.835, 1.4503816, 2.835, -2.8473282
0.3343235, -0.0182956, 2.84175, 0.0056763, 2.84175, -1.0109253, 2.84175, -0.1209717, 2.84175, 1.648855, 2.84175, 1.3664122, 2.84175, -2.8396947
0.3351176, -0.018967, 2.8485, 0.0075684, 2.8485, -1.0134888, 2.8485, -0.1137085, 2.8485, 1.389313, 2.8485, 1.9389313, 2.8485, -2.6183207
0.3359118, -0.0223239, 2.85525, 0.0139771, 2.85525, -1.0144653, 2.85525, -0.1144409, 2.85525, 0.9389313, 2.85525, 2.6259542, 2.85525, -2.1984732
0.3367059, -0.0216526, 2.862, 0.0126343, 2.862, -1.0085449, 2.862, -0.1245728, 2.862, 0.351145, 2.862, 3.1374047, 2.862, -1.8473282
0.3375, -0.0199741, 2.86875, 0.0169067, 2.86875, -1.0130615, 2.86875, -0.1353149, 2.86875, 0.4656489, 2.86875, 3.1679389, 2.86875, -1.6259542
0.3382941, -0.0209812, 2.8755, 0.0235596, 2.8755, -1.0128784, 2.8755, -0.1289062, 2.8755, 0.4961832, 2.8755, 3.1450381, 2.8755, -1.7480916
0.3390882, -0.0191348, 2.88225, 0.0249634, 2.88225, -1.0108643, 2.88225, -0.1253662, 2.88225, 0.8549618, 2.88225, 3.5114503, 2.88225, -1.8931298
0.3398824, -0.0169528, 2.889, 0.0192871, 2.889, -1.0130615, 2.889, -0.1178589, 2.889, 1.129771, 2.889, 3.5572519, 2.889, -1.778626
0.3406765, -0.0129244, 2.89575, 0.0098267, 2.89575, -1.0132446, 2.89575, -0.1159668, 2.89575, 1.4045801, 2.89575, 3.0992367, 2.89575, -1.8625954
0.3414706, -0.0109102, 2.9025, 0.0060425, 2.9025, -1.0076294, 2.9025, -0.1136475, 2.9025, 1.4427481, 2.9025, 2.9694657, 2.9025, -1.9465649
0.3422647, -0.0078889, 2.90925, -0.0018311, 2.90925, -1.0067139, 2.90925, -0.1137695, 2.90925, 1.480916, 2.90925, 3.2824428, 2.90925, -2.0305343
0.3430588, -0.0083925, 2.916, 0.0009766, 2.916, -1.0079346, 2.916, -0.1099854, 2.916, 1.351145, 2.916, 3.2061069, 2.916, -1.8396946
0.3438529, -0.0078889, 2.92275, 0.0056152, 2.92275, -1.0033569, 2.92275, -0.1131592, 2.92275, 1.6412214, 2.92275, 3.4274809, 2.92275, -1.6717557
0.3446471, -0.0065461, 2.9295, 0.008728, 2.9295, -1.0050659, 2.9295, -0.1183472, 2.9295, 1.740458, 2.9295, 2.8778627, 2.9295, -1.7328244
0.3454412, -0.0077211, 2.93625, 0.0119629, 2.93625, -1.0033569, 2.93625, -0.1208496, 2.93625, 1.9465649, 2.93625, 2.0687022, 2.93625, -2.0839694
0.3462353, -0.0082246, 2.943, 0.0114746, 2.943, -1.0046997, 2.943, -0.1088867, 2.943, 2.1526718, 2.943, 2.351145, 2.943, -2.0839694
0.3470294, -0.0072175, 2.94975, 0.0062866, 2.94975, -1.0040283, 2.94975, -0.109375, 2.94975, 2.5343511, 2.94975, 2.7480917, 2.94975, -2.0992367
0.3478235, -0.0082246, 2.9565, 0.0015869, 2.9565, -1.0046387, 2.9565, -0.1141968, 2.9565, 2.5343511, 2.9565, 2.6259542, 2.9565, -2.1450381
0.3486176, -0.0095674, 2.96325, 0.0063477, 2.96325, -1.0053101, 2.96325, -0.114502, 2.96325, 2.4961832, 2.96325, 2.6335878, 2.96325, -1.7633588
0.3494118, -0.0078889, 2.97, 0.0067139, 2.97, -1.0033569, 2.97, -0.111145, 2.97, 2.6717558, 2.97, 2.0534351, 2.97, -2.0534351
0.3502059, -0.005539, 2.97675, 0.0053711, 2.97675, -1.00177, 2.97675, -0.114502, 2.97675, 2.8396947, 2.97675, 1.8931298, 2.97675, -2.389313
0.351, -0.0048676, 2.9835, 0.0062866, 2.9835, -1.0037842, 2.9835, -0.111084, 2.9835, 2.5877862, 2.9835, 2.6564887, 2.9835, -1.8931298
0.3517941, -0.0075532, 2.99025, 0.0062866, 2.99025, -1.0043335, 2.99025, -0.1136475, 2.99025, 2.4427481, 2.99025, 2.7480917, 2.99025, -1.8931298
0.3525882, -0.0058747, 2.997, 0.008728, 2.997, -1.0041504, 2.997, -0.1174316, 2.997, 2.519084, 2.997, 2.6335878, 2.997, -1.7862595
0.3533824, -0.0075532, 3.00375, 0.0107422, 3.00375, -1.0089111, 3.00375, -0.1248779, 3.00375, 2.5801528, 3.00375, 2.6030533, 3.00375, -1.7175573
0.3541765, -0.0099031, 3.0105, 0.0209351, 3.0105, -1.0107422, 3.0105, -0.1218872, 3.0105, 1.7328244, 3.0105, 2.4351146, 3.0105, -1.3664122
0.3549706, -0.0139315, 3.01725, 0.0189209, 3.01725, -1.0142822, 3.01725, -0.121582, 3.01725, 1.2061069, 3.01725, 2.8015268, 3.01725, -1.3129771
0.3557647, -0.0176242, 3.024, 0.0109863, 3.024, -1.0209961, 3.024, -0.1226807, 3.024, 1.1984733, 3.024, 3.7022901, 3.024, -1.129771
0.3565588, -0.0172885, 3.03075, 0.0076294, 3.03075, -1.0201416, 3.03075, -0.1193848, 3.03075, 1.6335878, 3.03075, 3.4580152, 3.03075, -1.129771
0.3573529, -0.0203098, 3.0375, 0.0026855, 3.0375, -1.0117798, 3.0375, -0.1146851, 3.0375, 2.2137403, 3.0375, 3.0687022, 3.0375, -1.5343511
0.3581471, -0.0198062, 3.04425, -0.0065918, 3.04425, -1.008728, 3.04425, -0.1167603, 3.04425, 2.3053436, 3.04425, 3.0839694, 3.04425, -1.389313
0.3589412, -0.0196384, 3.051, -0.0095825, 3.051, -1.0062256, 3.051, -0.1187744, 3.051, 2.4732823, 3.051, 2.5648854, 3.051, -1.3358779
0.3597353, -0.018967, 3.05775, -0.0065308, 3.05775, -1.003479, 3.05775, -0.1195679, 3.05775, 2.5572519, 3.05775, 2.0076337, 3.05775, -1.2977099
0.3605294, -0.0176242, 3.0645, 0.0019531, 3.0645, -1.0047607, 3.0645, -0.1157227, 3.0645, 2.648855, 3.0645, 1.961832, 3.0645, -1.3816794
0.3613235, -0.0186313, 3.07125, 0.0062256, 3.07125, -1.0027466, 3.07125, -0.1147461, 3.07125, 2.7251909, 3.07125, 1.8167939, 3.07125, -1.4045801
0.3621176, -0.0176242, 3.078, 0.0079346, 3.078, -1.0070801, 3.078, -0.1187134, 3.078, 2.4885497, 3.078, 1.5725191, 3.078, -1.519084
0.3629118, -0.0186313, 3.08475, 0.0009766, 3.08475, -1.0065918, 3.08475, -0.12323, 3.08475, 2.2977099, 3.08475, 0.9541985, 3.08475, -1.1832061
0.3637059, -0.0169528, 3.0915, -0.0033569, 3.0915, -1.0046997, 3.0915, -0.1234131, 3.0915, 2.7862597, 3.0915, 0.8091603, 3.0915, -1.1526718
0.3645, -0.0206455, 3.09825, -0.0028076, 3.09825, -1.0040283, 3.09825, -0.1226196, 3.09825, 2.8396947, 3.09825, 1.2061069, 3.09825, -1
0.3652941, -0.0216526, 3.105, 0.0032349, 3.105, -1.0075073, 3.105, -0.1182251, 3.105, 2.8015268, 3.105, 0.4198473, 3.105, -0.9847328
0.3660882, -0.0182956, 3.11175, 0.0078125, 3.11175, -1.0111084, 3.11175, -0.118042, 3.11175, 2.8625953, 3.11175, -0.0152672, 3.11175, -0.9160305
0.3668824, -0.0186313, 3.1185, 0.0045776, 3.1185, -1.0088501, 3.1185, -0.1194458, 3.1185, 3.0763359, 3.1185, -0.2977099, 3.1185, -0.6793893
0.3676765, -0.0182956, 3.12525, 0.0065308, 3.12525, -1.0021362, 3.12525, -0.1263428, 3.12525, 3.7175572, 3.12525, -0.8167939, 3.12525, -0.7175573
0.3684706, -0.018967, 3.132, 0.0046997, 3.132, -1.0090942, 3.132, -0.1227417, 3.132, 4.0458016, 3.132, -1.0610687, 3.132, -1.1068702
0.3692647, -0.0193027, 3.13875, 0.0047607, 3.13875, -1.0140381, 3.13875, -0.1130371, 3.13875, 3.870229, 3.13875, -0.778626, 3.13875, -1.1908396
0.3700588, -0.018967, 3.1455, 0.0077515, 3.1455, -1.0087891, 3.1455, -0.1124268, 3.1455, 4.1297708, 3.1455, 0.0458015, 3.1455, -1.0458015
0.3708529, -0.0164492, 3.15225, 0.0054932, 3.15225, -1.0085449, 3.15225, -0.1188354, 3.15225, 3.961832, 3.15225, -0.0152672, 3.15225, -0.9694657
0.3716471, -0.0167849, 3.159, -0.0041504, 3.159, -1.0079956, 3.159, -0.1260376, 3.159, 3.870229, 3.159, -0.4732825, 3.159, -1.221374
0.3724412, -0.0142672, 3.16575, -0.0037231, 3.16575, -1.0093994, 3.16575, -0.1193848, 3.16575, 4.3053436, 3.16575, -0.1679389, 3.16575, -1.3206106
0.3732353, -0.0152743, 3.1725, -0.0025635, 3.1725, -1.0167847, 3.1725, -0.1083374, 3.1725, 4.3129773, 3.1725, 0.8549618, 3.1725, -1.1526718
0.3740294, -0.0186313, 3.17925, 0.0015259, 3.17925, -1.015686, 3.17925, -0.1052246, 3.17925, 4.3129773, 3.17925, 1.5343511, 3.17925, -0.6641222
0.3748235, -0.0206455, 3.186, -0.0025635, 3.186, -1.020874, 3.186, -0.1117554, 3.186, 3.9312978, 3.186, 1.4656489, 3.186, -0.5343512
0.3756176, -0.0203098, 3.19275, -0.0027466, 3.19275, -1.0219727, 3.19275, -0.1102905, 3.19275, 4.5343513, 3.19275, 1.5801526, 3.19275, -0.2061069
0.3764118, -0.0184634, 3.1995, 0.0050659, 3.1995, -1.020752, 3.1995, -0.1171265, 3.1995, 4.3664122, 3.1995, 2.1145039, 3.1995, -0.3435115
0.3772059, -0.0152743, 3.20625, 0.0063477, 3.20625, -1.0213013, 3.20625, -0.1184082, 3.20625, 3.648855, 3.20625, 1.5419847, 3.20625, 0.0763359
0.378, -0.0176242, 3.213, 0.0179443, 3.213, -1.0249023, 3.213, -0.1098633, 3.213, 3.6030533, 3.213, 2.4351146, 3.213, 0.3740458
0.3787941, -0.0193027, 3.21975, 0.0192871, 3.21975, -1.0163574, 3.21975, -0.109436, 3.21975, 3.961832, 3.21975, 2.6717558, 3.21975, -0.1755725
0.3795882, -0.018967, 3.2265, 0.0108643, 3.2265, -1.0172729, 3.2265, -0.1121216, 3.2265, 3.5877862, 3.2265, 2.7022901, 3.2265, -0.351145
0.3803824, -0.0164492, 3.23325, 0.0064697, 3.23325, -1.0232544, 3.23325, -0.1092529, 3.23325, 3.7709923, 3.23325, 1.610687, 3.23325, -0.8091603
0.3811765, -0.0151064, 3.24, -0.0025024, 3.24, -1.0147705, 3.24, -0.1137695, 3.24, 4.4198475, 3.24, 0.8167939, 3.24, -1.2290076
0.3819706, -0.0142672, 3.24675, -0.0170898, 3.24675, -1.0211792, 3.24675, -0.1212158, 3.24675, 4.0076337, 3.24675, 1.2290076, 3.24675, -1.0076336
0.3827647, -0.0129244, 3.2535, -0.008667, 3.2535, -1.020874, 3.2535, -0.1164551, 3.2535, 4, 3.2535, 0.6870229, 3.2535, -0.7480916
0.3835588, -0.0109102, 3.26025, -0.0083618, 3.26025, -1.0123291, 3.26025, -0.1243286, 3.26025, 4.9160304, 3.26025, -0.3129771, 3.26025, -1.3053435
0.3843529, -0.0135958, 3.267, -0.0098877, 3.267, -1.0227051, 3.267, -0.1253052, 3.267, 4.7480917, 3.267, -0.1526718, 3.267, -1.2366412
0.3851471, -0.0140993, 3.27375, -0.0056152, 3.27375, -1.0269775, 3.27375, -0.1303101, 3.27375, 4.8320613, 3.27375, 0.129771, 3.27375, -1.2290076
0.3859412, -0.0129244, 3.2805, 0.0140991, 3.2805, -1.0234985, 3.2805, -0.1348267, 3.2805, 6.3587785, 3.2805, 0.2900763, 3.2805, -1.2061069
0.3867353, -0.011078, 3.28725, 0.0183105, 3.28725, -1.0151978, 3.28725, -0.1340332, 3.28725, 6.8015265, 3.28725, -0.129771, 3.28725, -1.6412214
0.3875294, -0.0095674, 3.294, 0.0003662, 3.294, -1.0203857, 3.294, -0.1432495, 3.294, 7.2061067, 3.294, 1.2977099, 3.294, -1.8854961
0.3883235, -0.0102388, 3.30075, 0.0014648, 3.30075, -1.0241699, 3.30075, -0.1422119, 3.30075, 8.3511448, 3.30075, 1.2290076, 3.30075, -2.2671757
0.3891176, -0.0139315, 3.3075, 0.0140991, 3.3075, -1.0161133, 3.3075, -0.1478882, 3.3075, 8.6564884, 3.3075, 1.2671756, 3.3075, -2.2366412
0.3899118, -0.0135958, 3.31425, 0.0072632, 3.31425, -1.0185547, 3.31425, -0.1491699, 3.31425, 7.9541984, 3.31425, 2.5496182, 3.31425, -2.1755726
0.3907059, -0.014435, 3.321, -0.0049438, 3.321, -1.022522, 3.321, -0.1419067, 3.321, 7.7099237, 3.321, 2.6030533, 3.321, -2.4503818
0.3915, -0.0142672, 3.32775, -0.0144653, 3.32775, -1.0209351, 3.32775, -0.1437378, 3.32775, 7.3664122, 3.32775, 2.0687022, 3.32775, -2.5877862
0.3922941, -0.0162814, 3.3345, -0.0068359, 3.3345, -1.0235596, 3.3345, -0.1430054, 3.3345, 7.5725193, 3.3345, 2.9847329, 3.3345, -2.3969467
0.3930882, -0.0166171, 3.34125, 0.0012207, 3.34125, -1.0112915, 3.34125, -0.1574097, 3.34125, 8.3511448, 3.34125, 1.7480916, 3.34125, -3.351145
0.3938824, -0.0182956, 3.348, 0.0006104, 3.348, -1.0255127, 3.348, -0.1494141, 3.348, 6.8549619, 3.348, 4.4503818, 3.348, -2.7633588
0.3946765, -0.018967, 3.35475, 0.0223999, 3.35475, -1.0396729, 3.35475, -0.1454468, 3.35475, 7.0610685, 3.35475, 7.6488547, 3.35475, -1.8625954
0.3954706, -0.0196384, 3.3615, 0.0222778, 3.3615, -1.039856, 3.3615, -0.1525269, 3.3615, 9.0152674, 3.3615, 6.3893127, 3.3615, -2.4656489
0.3962647, -0.0169528, 3.36825, 0.0073242, 3.36825, -1.0383911, 3.36825, -0.1390991, 3.36825, 9.5877867, 3.36825, 6.3435116, 3.36825, -2.8091602
0.3970588, -0.0142672, 3.375, -0.0004883, 3.375, -1.0594482, 3.375, -0.1081543, 3.375, 8.839695, 3.375, 7.5801525, 3.375, -2.2290077
0.3978529, -0.0124208, 3.38175, -0.0021362, 3.38175, -1.0565796, 3.38175, -0.1052856, 3.38175, 9.2519083, 3.38175, 6.7557254, 3.38175, -2.1984732
0.3986471, -0.0115816, 3.3885, -0.0100708, 3.3885, -1.0394287, 3.3885, -0.1192017, 3.3885, 11.0229006, 3.3885, 3.8244274, 3.3885, -2.5496182
0.3994412, -0.012253, 3.39525, -0.0157471, 3.39525, -1.0281372, 3.39525, -0.1453247, 3.39525, 10.9770994, 3.39525, 7.0458016, 3.39525, -2.3816793
0.4002353, -0.0095674, 3.402, 0.0059814, 3.402, -1.0484009, 3.402, -0.1437378, 3.402, 8.1221371, 3.402, 10.2977095, 3.402, -2.2290077
0.4010294, -0.0075532, 3.40875, -0.0027466, 3.40875, -1.0650024, 3.40875, -0.1405029, 3.40875, 4.519084, 3.40875, 11.6106873, 3.40875, -2.4656489
0.4018235, -0.0075532, 3.4155, -0.019165, 3.4155, -1.0930786, 3.4155, -0.1191406, 3.4155, 0.2137405, 3.4155, 15.160305, 3.4155, -0.9923664
0.4026176, -0.0050355, 3.42225, -0.0656128, 3.42225, -1.0938721, 3.42225, -0.1365967, 3.42225, -2.6030533, 3.42225, 18.0916023, 3.42225, 1.0839695
0.4034118, -0.0041962, 3.429, -0.1074219, 3.429, -1.1208496, 3.429, -0.1256104, 3.429, -4.8473282, 3.429, 18.4656487, 3.429, 2.5725191
0.4042059, -0.0065461, 3.43575, -0.0725708, 3.43575, -1.1343384, 3.43575, -0.0681763, 3.43575, -6.5725193, 3.43575, 15.7328243, 3.43575, 2.7328243
0.405, -0.006714, 3.4425, -0.0459595, 3.4425, -1.1226196, 3.4425, -0.0629883, 3.4425, -6.2824426, 3.4425, 9.8702288, 3.4425, 0.5038168
0.4057941, -0.0073854, 3.44925, -0.0131226, 3.44925, -1.0947876, 3.44925, -0.1030884, 3.44925, -7.4961834, 3.44925, 7.6717558, 3.44925, -0.3969466
0.4065882, -0.0075532, 3.456, 0.0042725, 3.456, -1.0979004, 3.456, -0.1204834, 3.456, -10.5267172, 3.456, 9.7938929, 3.456, 0.6030535
0.4073824, -0.0142672, 3.46275, 0.0645752, 3.46275, -1.1112061, 3.46275, -0.140564, 3.46275, -11.038168, 3.46275, 11.519084, 3.46275, 0.4045801
0.4081765, -0.0169528, 3.4695, 0.098938, 3.4695, -1.1351929, 3.4695, -0.107605, 3.4695, -11.4045801, 3.4695, 14.9007635, 3.4695, -0.2442748
0.4089706, -0.0181277, 3.47625, 0.0904541, 3.47625, -1.1211548, 3.47625, -0.1431274, 3.47625, -11.4198475, 3.47625, 17.9770985, 3.47625, -0.6412213
0.4097647, -0.0182956, 3.483, 0.0616455, 3.483, -1.0983276, 3.483, -0.1364136, 3.483, -13.3740454, 3.483, 18.7404575, 3.483, -0.908397
0.4105588, -0.0224918, 3.48975, 0.0333862, 3.48975, -1.0975952, 3.48975, -0.1165161, 3.48975, -14.0839691, 3.48975, 19.4045811, 3.48975, -1.6870229
0.4113529, -0.0203098, 3.4965, 0.013855, 3.4965, -1.0905762, 3.4965, -0.1155396, 3.4965, -16.2824421, 3.4965, 20.8320618, 3.4965, -1.6030535
0.4121471, -0.0142672, 3.50325, -0.0110474, 3.50325, -1.0576782, 3.50325, -0.1710205, 3.50325, -18.3664131, 3.50325, 23.358778, 3.50325, -1.7557251
0.4129412, -0.01561, 3.51, -0.0443115, 3.51, -1.0541382, 3.51, -0.1450806, 3.51, -20.7480907, 3.51, 24.5725193, 3.51, -1.5114504
0.4137353, -0.0157778, 3.51675, -0.0413818, 3.51675, -1.0584106, 3.51675, -0.1149902, 3.51675, -22.6335869, 3.51675, 29.6259537, 3.51675, 0.3969466
0.4145294, -0.0130922, 3.5235, -0.0545044, 3.5235, -1.0545654, 3.5235, -0.1616211, 3.5235, -19.7099228, 3.5235, 31.4961834, 3.5235, 0.7709923
0.4153235, -0.0142672, 3.53025, -0.0404663, 3.53025, -1.0566406, 3.53025, -0.133667, 3.53025, -21.4198475, 3.53025, 29.0992374, 3.53025, 0.5954198
0.4161176, -0.0182956, 3.537, -0.0332031, 3.537, -1.032959, 3.537, -0.1312866, 3.537, -21.3511448, 3.537, 26.1221371, 3.537, -0.1832061
0.4169118, -0.0209812, 3.54375, -0.0490112, 3.54375, -1.010498, 3.54375, -0.1424561, 3.54375, -20.4732819, 3.54375, 21.6946564, 3.54375, -2
0.4177059, -0.0219883, 3.5505, -0.0331421, 3.5505, -0.9824829, 3.5505, -0.1986694, 3.5505, -22.4503822, 3.5505, 19.3664131, 3.5505, -2.5496182
0.4185, -0.0199741, 3.55725, -0.0507202, 3.55725, -0.9636841, 3.55725, -0.1628418, 3.55725, -25.3511448, 3.55725, 17.1526718, 3.55725, -3.5038168
0.4192941, -0.0146029, 3.564, -0.0424805, 3.564, -0.9655151, 3.564, -0.1408691, 3.564, -25.7862587, 3.564, 18.4045811, 3.564, -3.610687
0.4200882, -0.0135958, 3.57075, -0.0296631, 3.57075, -0.96521, 3.57075, -0.1308594, 3.57075, -25.1832066, 3.57075, 19.0458012, 3.57075, -4.2366414
0.4208824, -0.0166171, 3.5775, 0.008728, 3.5775, -0.9482422, 3.5775, -0.1422729, 3.5775, -24.0687027, 3.5775, 17.7786255, 3.5775, -4.1145039
0.4216765, -0.01561, 3.58425, 0.0338135, 3.58425, -0.9536133, 3.58425, -0.1081543, 3.58425, -20.4198475, 3.58425, 14.320611, 3.58425, -5.3129773
0.4224706, -0.0095674, 3.591, -0.0068359, 3.591, -0.9553833, 3.591, -0.1404419, 3.591, -17.9694653, 3.591, 17.4122143, 3.591, -4.9083967
0.4232647, -0.0058747, 3.59775, 0.0098267, 3.59775, -0.932251, 3.59775, -0.1433716, 3.59775, -14.6106873, 3.59775, 17.480917, 3.59775, -3.6870229
0.4240588, -0.002182, 3.6045, 0.0091553, 3.6045, -0.9239502, 3.6045, -0.1411133, 3.6045, -14.3053436, 3.6045, 15.0076332, 3.6045, -3.0458016
0.4248529, -0.0038605, 3.61125, -0.0006104, 3.61125, -0.902832, 3.61125, -0.1390381, 3.61125, -14.6488552, 3.61125, 14.8625956, 3.61125, -2.4961832
0.4256471, -0.0058747, 3.618, 0.0072632, 3.618, -0.8930054, 3.618, -0.1182861, 3.618, -14.1526718, 3.618, 15.6870232, 3.618, -1.4427481
0.4264412, -0.0041962, 3.62475, -0.0148315, 3.62475, -0.9031372, 3.62475, -0.1178589, 3.62475, -11.160305, 3.62475, 16.5648861, 3.62475, -1.2748091
0.4272353, -0.0035248, 3.6315, 0.00354, 3.6315, -0.902771, 3.6315, -0.0999146, 3.6315, -11.4274807, 3.6315, 17.2748089, 3.6315, -0.4045801
0.4280294, -0.0068818, 3.63825, 0.0114746, 3.63825, -0.913147, 3.63825, -0.0983887, 3.63825, -9.1908398, 3.63825, 18.0687027, 3.63825, -1.0229008
0.4288235, -0.0048676, 3.645, 0.0203857, 3.645, -0.9053955, 3.645, -0.1185913, 3.645, -7.5343513, 3.645, 23.2366409, 3.645, -0.7328244
0.4296176, -0.0057069, 3.65175, 0.0435791, 3.65175, -0.925354, 3.65175, -0.0841675, 3.65175, -7.9465647, 3.65175, 26.3511448, 3.65175, -0.2290076
0.4304118, -0.0063783, 3.6585, 0.0314941, 3.6585, -0.9123535, 3.6585, -0.1242065, 3.6585, -5.5343513, 3.6585, 24.3740463, 3.6585, -1
0.4312059, -0.0105745, 3.66525, -0.0180054, 3.66525, -0.930542, 3.66525, -0.1020508, 3.66525, -3.5572519, 3.66525, 21.8549614, 3.66525, -1.5648855
0.432, -0.0109102, 3.672, -0.0877075, 3.672, -0.930542, 3.672, -0.1320801, 3.672, -0.4885496, 3.672, 19.8778629, 3.672, -1.8625954
0.4327941, -0.0109102, 3.67875, -0.1003418, 3.67875, -0.911377, 3.67875, -0.1479492, 3.67875, 2.2824428, 3.67875, 17.5267181, 3.67875, -2.0305343
0.4335882, -0.0135958, 3.6855, -0.0906372, 3.6855, -0.9187012, 3.6855, -0.1702881, 3.6855, 3.2519083, 3.6855, 15.2519083, 3.6855, -1.908397
0.4343824, -0.0166171, 3.69225, -0.0710449, 3.69225, -0.9303589, 3.69225, -0.1638794, 3.69225, 2.5725191, 3.69225, 13.2671757, 3.69225, -1.7175573
0.4351765, -0.0169528, 3.699, -0.0304565, 3.699, -0.9544678, 3.699, -0.1353149, 3.699, 2.389313, 3.699, 12.4274807, 3.699, -0.8549618
0.4359706, -0.0129244, 3.70575, -0.0215454, 3.70575, -0.9762573, 3.70575, -0.1642456, 3.70575, 3.1908398, 3.70575, 12.7709923, 3.70575, -0.221374
0.4367647, -0.0129244, 3.7125, -0.053894, 3.7125, -0.9824829, 3.7125, -0.1743164, 3.7125, 3.3282442, 3.7125, 13.3740454, 3.7125, 0.1526718
0.4375588, -0.0135958, 3.71925, -0.0782471, 3.71925, -0.9806519, 3.71925, -0.1445923, 3.71925, 3.0610688, 3.71925, 12.2595415, 3.71925, 0.0763359
0.4383529, -0.0109102, 3.726, -0.1052856, 3.726, -0.9914551, 3.726, -0.1220093, 3.726, 2.5572519, 3.726, 12.5343513, 3.726, 0.6564885
0.4391471, -0.0129244, 3.73275, -0.0654297, 3.73275, -0.9943237, 3.73275, -0.0910034, 3.73275, 2.0534351, 3.73275, 10.6030531, 3.73275, 1.0076336
0.4399412, -0.0166171, 3.7395, -0.0386963, 3.7395, -1.0050049, 3.7395, -0.0796509, 3.7395, 1.6717557, 3.7395, 7.5267177, 3.7395, 0.3816794
0.4407353, -0.0182956, 3.74625, -0.0016479, 3.74625, -0.99823, 3.74625, -0.0837402, 3.74625, 1.8473282, 3.74625, 8.1297712, 3.74625, 0.2671756
0.4415294, -0.0209812, 3.753, 0.0234375, 3.753, -1.0114136, 3.753, -0.0812988, 3.753, 1.1145039, 3.753, 9.5343513, 3.753, 0.221374
0.4423235, -0.0216526, 3.75975, 0.026062, 3.75975, -1.0200806, 3.75975, -0.0999756, 3.75975, 0.8625954, 3.75975, 11.9160309, 3.75975, 0.4961832
0.4431176, -0.0231632, 3.7665, 0.0376587, 3.7665, -1.0159912, 3.7665, -0.0906982, 3.7665, 0.8778626, 3.7665, 10.4274807, 3.7665, 0.2748092
0.4439118, -0.0216526, 3.77325, 0.0501709, 3.77325, -1.0159302, 3.77325, -0.1243896, 3.77325, 1.0839695, 3.77325, 9.1832066, 3.77325, -0.5038168
0.4447059, -0.0206455, 3.78, 0.0153809, 3.78, -1.003479, 3.78, -0.1445312, 3.78, 1.2824427, 3.78, 10.1679392, 3.78, -1.4198474
0.4455, -0.0203098, 3.78675, 0.0134888, 3.78675, -1.0171509, 3.78675, -0.1532593, 3.78675, 0.4732825, 3.78675, 9.9236641, 3.78675, -1.038168
0.4462941, -0.0256809, 3.7935, 0.0028687, 3.7935, -1.0186157, 3.7935, -0.1490479, 3.7935, -0.2290076, 3.7935, 8.8854961, 3.7935, -1.3358779
0.4470882, -0.0260166, 3.80025, -0.0262451, 3.80025, -1.0188599, 3.80025, -0.1381226, 3.80025, -1.0305344, 3.80025, 9.0839691, 3.80025, -1.480916
0.4478824, -0.0216526, 3.807, -0.0322266, 3.807, -1.0097046, 3.807, -0.1556396, 3.807, -0.6641222, 3.807, 7.9923663, 3.807, -1.1068702
0.4486765, -0.018967, 3.81375, -0.0559692, 3.81375, -1.0018921, 3.81375, -0.1539307, 3.81375, -0.6259542, 3.81375, 6.6870227, 3.81375, -1.1908396
0.4494706, -0.018967, 3.8205, -0.0574341, 3.8205, -1.0075684, 3.8205, -0.1297607, 3.8205, -1.5648855, 3.8205, 5.4122138, 3.8205, -1.2137405
0.4502647, -0.0209812, 3.82725, -0.0401611, 3.82725, -0.9923706, 3.82725, -0.171936, 3.82725, -0.351145, 3.82725, 7.8320613, 3.82725, -0.4427481
0.4510588, -0.0203098, 3.834, -0.0187378, 3.834, -0.9837646, 3.834, -0.1613159, 3.834, -1.8244275, 3.834, 5.9312978, 3.834, -0.9007633
0.4518529, -0.0193027, 3.84075, -0.0230713, 3.84075, -1.0001221, 3.84075, -0.1558228, 3.84075, -0.9541985, 3.84075, 5.0687022, 3.84075, -1
0.4526471, -0.0193027, 3.8475, -0.020874, 3.8475, -1.0028076, 3.8475, -0.1549683, 3.8475, -0.6412213, 3.8475, 4.2900763, 3.8475, -1.1603054
0.4534412, -0.0166171, 3.85425, -0.0231934, 3.85425, -0.9984131, 3.85425, -0.1498413, 3.85425, -1.0305344, 3.85425, 4.0076337, 3.85425, -1.221374
0.4542353, -0.0152743, 3.861, -0.039917, 3.861, -0.9906006, 3.861, -0.1413574, 3.861, -1.6717557, 3.861, 4.1297708, 3.861, -1.6641221
0.4550294, -0.0149386, 3.86775, -0.0432739, 3.86775, -0.9882202, 3.86775, -0.131897, 3.86775, -1.8778626, 3.86775, 3.8320611, 3.86775, -1.5038168
0.4558235, -0.0125887, 3.8745, -0.050293, 3.8745, -0.9859009, 3.8745, -0.1341553, 3.8745, -1.5038168, 3.8745, 2.5801528, 3.8745, -1.9160305
0.4566176, -0.0146029, 3.88125, -0.0403442, 3.88125, -0.9827881, 3.88125, -0.1378784, 3.88125, -1.4656489, 3.88125, 2.1374047, 3.88125, -1.6259542
0.4574118, -0.0129244, 3.888, -0.0299683, 3.888, -0.9777222, 3.888, -0.1263428, 3.888, -1.351145, 3.888, 1.5725191, 3.888, -1.4580153
0.4582059, -0.012253, 3.89475, -0.0189209, 3.89475, -0.9775391, 3.89475, -0.1466675, 3.89475, -1.0610687, 3.89475, 1.1679389, 3.89475, -1.4961832
0.459, -0.0135958, 3.9015, -0.0233154, 3.9015, -0.9777832, 3.9015, -0.1566162, 3.9015, -1.4732825, 3.9015, 1.6030535, 3.9015, -1.7633588
0.4597941, -0.0117494, 3.90825, -0.0200195, 3.90825, -0.9872437, 3.90825, -0.1465454, 3.90825, -1.2366412, 3.90825, 2.0763359, 3.90825, -2.129771
0.4605882, -0.0132601, 3.915, -0.0233765, 3.915, -0.9882812, 3.915, -0.1560059, 3.915, -0.4580153, 3.915, 2.6641221, 3.915, -2.0152671
0.4613824, -0.0135958, 3.92175, -0.0249634, 3.92175, -0.9825439, 3.92175, -0.1513062, 3.92175, -0.2061069, 3.92175, 2.6946564, 3.92175, -2.0076337
0.4621765, -0.0132601, 3.9285, -0.0203247, 3.9285, -0.9847412, 3.9285, -0.1501465, 3.9285, 0.3129771, 3.9285, 2.6717558, 3.9285, -1.9465649
0.4629706, -0.012253, 3.93525, -0.0073242, 3.93525, -1.0001221, 3.93525, -0.1300659, 3.93525, 0.9236641, 3.93525, 2.610687, 3.93525, -1.5877863
0.4637647, -0.0092317, 3.942, -0.0159302, 3.942, -0.9898682, 3.942, -0.1442261, 3.942, 1.9847329, 3.942, 2.8015268, 3.942, -1.8091604
0.4645588, -0.0078889, 3.94875, -0.0308838, 3.94875, -0.9820557, 3.94875, -0.1398926, 3.94875, 2.3740458, 3.94875, 3.3282442, 3.94875, -1.6793894
0.4653529, -0.0062104, 3.9555, -0.0237427, 3.9555, -0.9828491, 3.9555, -0.1484375, 3.9555, 2.5954199, 3.9555, 3.038168, 3.9555, -1.3206106
0.4661471, -0.0058747, 3.96225, -0.0167847, 3.96225, -0.9892578, 3.96225, -0.1408691, 3.96225, 2.0763359, 3.96225, 2.8320611, 3.96225, -1.3206106
0.4669412, -0.0065461, 3.969, -0.0201416, 3.969, -0.9912109, 3.969, -0.1559448, 3.969, 3.1984732, 3.969, 4.1679387, 3.969, -1.3053435
0.4677353, -0.0085603, 3.97575, -0.0333862, 3.97575, -0.991394, 3.97575, -0.1528931, 3.97575, 3, 3.97575, 4.778626, 3.97575, -1.4351145
0.4685294, -0.0129244, 3.9825, -0.0308228, 3.9825, -0.9941406, 3.9825, -0.1526489, 3.9825, 3.1068702, 3.9825, 4.7175574, 3.9825, -1.4427481
0.4693235, -0.012253, 3.98925, -0.0445557, 3.98925, -0.996582, 3.98925, -0.1586914, 3.98925, 3.3587787, 3.98925, 4.740458, 3.98925, -1.5496184
0.4701176, -0.0135958, 3.996, -0.0563354, 3.996, -0.9954224, 3.996, -0.1500854, 3.996, 4.0534353, 3.996, 4.7557254, 3.996, -1.5648855
0.4709118, -0.0154421, 4.00275, -0.0558472, 4.00275, -0.994873, 4.00275, -0.1481934, 4.00275, 4.5496182, 4.00275, 4.0229006, 4.00275, -2.0152671
0.4717059, -0.01561, 4.0095, -0.0545654, 4.0095, -0.9984741, 4.0095, -0.1426392, 4.0095, 4.2748094, 4.0095, 4.2824426, 4.0095, -2.0076337
0.4725, -0.017792, 4.01625, -0.0556641, 4.01625, -0.9943848, 4.01625, -0.1378174, 4.01625, 3.7099237, 4.01625, 4.2137403, 4.01625, -1.9312977
0.4732941, -0.0216526, 4.023, -0.0615234, 4.023, -0.9938965, 4.023, -0.1450195, 4.023, 3.2519083, 4.023, 4.4961834, 4.023, -1.7862595
0.4740882, -0.0223239, 4.02975, -0.0543823, 4.02975, -0.99823, 4.02975, -0.1345215, 4.02975, 2.4961832, 4.02975, 3.3816793, 4.02975, -1.8854961
0.4748824, -0.0159457, 4.0365, -0.039856, 4.0365, -1.0039062, 4.0365, -0.1374512, 4.0365, 2.1145039, 4.0365, 3.259542, 4.0365, -1.7557251
0.4756765, -0.0112459, 4.04325, -0.0308228, 4.04325, -1.0064697, 4.04325, -0.1148682, 4.04325, 2.0534351, 4.04325, 2.4580152, 4.04325, -1.648855
0.4764706, -0.0095674, 4.05, -0.0268555, 4.05, -1.0029907, 4.05, -0.1374512, 4.05, 2.1221373, 4.05, 3.038168, 4.05, -1.7328244
0.4772647, -0.0105745, 4.05675, -0.0212402, 4.05675, -1.00354, 4.05675, -0.1358643, 4.05675, 1.8396946, 4.05675, 2.9541984, 4.05675, -1.8091604
0.4780588, -0.0129244, 4.0635, -0.0292969, 4.0635, -1.0004272, 4.0635, -0.1439819, 4.0635, 1.5801526, 4.0635, 3.5267177, 4.0635, -1.8320611
0.4788529, -0.0117494, 4.07025, -0.0215454, 4.07025, -1.0021362, 4.07025, -0.1356201, 4.07025, 1.1374046, 4.07025, 4.0916033, 4.07025, -1.4732825
0.4796471, -0.0125887, 4.077, -0.0189209, 4.077, -1.0031128, 4.077, -0.133606, 4.077, 2.038168, 4.077, 4.2671757, 4.077, -1.7709924
0.4804412, -0.014435, 4.08375, -0.0193481, 4.08375, -0.9956665, 4.08375, -0.1540527, 4.08375, 1.9847329, 4.08375, 4.7557254, 4.08375, -1.6717557
0.4812353, -0.0184634, 4.0905, -0.0144043, 4.0905, -0.9966431, 4.0905, -0.1363525, 4.0905, 1.5343511, 4.0905, 4.961832, 4.0905, -1.778626
0.4820294, -0.0159457, 4.09725, -0.0107422, 4.09725, -0.9958496, 4.09725, -0.1436768, 4.09725, 3.1374047, 4.09725, 3.648855, 4.09725, -1.8854961
0.4828235, -0.0115816, 4.104, -0.0198975, 4.104, -0.9949951, 4.104, -0.1496582, 4.104, 3.4732823, 4.104, 2.6183207, 4.104, -2.1374047
0.4836176, -0.0142672, 4.11075, -0.0293579, 4.11075, -1.0012207, 4.11075, -0.145813, 4.11075, 3.3664122, 4.11075, 1.1068702, 4.11075, -2.1603053
0.4844118, -0.0112459, 4.1175, -0.0380249, 4.1175, -1.0071411, 4.1175, -0.1437378, 4.1175, 3.8015268, 4.1175, -0.0076336, 4.1175, -2.3435113
0.4852059, -0.0109102, 4.12425, -0.0473022, 4.12425, -1.0043335, 4.12425, -0.1533813, 4.12425, 3.259542, 4.12425, 0.0381679, 4.12425, -1.9389313
0.486, -0.0119173, 4.131, -0.043396, 4.131, -1.008667, 4.131, -0.1356201, 4.131, 2.908397, 4.131, -1.221374, 4.131, -1.8473282
0.4867941, -0.0105745, 4.13775, -0.0492554, 4.13775, -1.0098877, 4.13775, -0.1395874, 4.13775, 2.6030533, 4.13775, -1.5496184, 4.13775, -1.778626
0.4875882, -0.0085603, 4.1445, -0.0522461, 4.1445, -1.0031128, 4.1445, -0.1459351, 4.1445, 1.8625954, 4.1445, -0.778626, 4.1445, -1.6641221
0.4883824, -0.0048676, 4.15125, -0.0296631, 4.15125, -0.9902954, 4.15125, -0.1409302, 4.15125, 0.1832061, 4.15125, -1.4503816, 4.15125, -1.480916
0.4891765, -0.0052033, 4.158, -0.0302734, 4.158, -0.9921875, 4.158, -0.1383057, 4.158, -0.0534351, 4.158, -1.7022901, 4.158, -1.6183206
0.4899706, -0.0085603, 4.16475, -0.0184326, 4.16475, -1.0032349, 4.16475, -0.1400146, 4.16475, -0.2900763, 4.16475, -2.1603053, 4.16475, -1.8625954
0.4907647, -0.0112459, 4.1715, -0.00177, 4.1715, -1.0094604, 4.1715, -0.1477051, 4.1715, -0.2061069, 4.1715, -2.2519083, 4.1715, -1.9923664
0.4915588, -0.0135958, 4.17825, -0.00177, 4.17825, -1.0041504, 4.17825, -0.1585083, 4.17825, -0.0839695, 4.17825, -1.2137405, 4.17825, -2.1450381
0.4923529, -0.0162814, 4.185, -0.0060425, 4.185, -1.0040283, 4.185, -0.1539917, 4.185, -0.1984733, 4.185, -0.4045801, 4.185, -2.5419848
0.4931471, -0.0191348, 4.19175, -0.022644, 4.19175, -1.0064087, 4.19175, -0.1507568, 4.19175, -0.2290076, 4.19175, -0.4885496, 4.19175, -2.3129771
0.4939412, -0.017792, 4.1985, -0.0303345, 4.1985, -1.0077515, 4.1985, -0.1401367, 4.1985, -0.1679389, 4.1985, -1.0152671, 4.1985, -2.1526718
0.4947353, -0.0169528, 4.20525, -0.0366821, 4.20525, -1.0024414, 4.20525, -0.1466064, 4.20525, 0.0839695, 4.20525, -0.9847328, 4.20525, -2.5877862
0.4955294, -0.0191348, 4.212, -0.0440063, 4.212, -1.0003662, 4.212, -0.1461182, 4.212, 0.0381679, 4.212, -0.5725191, 4.212, -2.6259542
0.4963235, -0.0229953, 4.21875, -0.0366821, 4.21875, -0.9907227, 4.21875, -0.1572876, 4.21875, -0.259542, 4.21875, -0.9847328, 4.21875, -2.3206108
0.4971176, -0.023331, 4.2255, -0.0290527, 4.2255, -1.0018311, 4.2255, -0.1652222, 4.2255, -0.8778626, 4.2255, 0.5725191, 4.2255, -2.1984732
0.4979118, -0.0240024, 4.23225, -0.0322266, 4.23225, -1.0112915, 4.23225, -0.1621094, 4.23225, 0.1374046, 4.23225, 2.610687, 4.23225, -2.1908398
0.4987059, -0.0218204, 4.239, -0.0424805, 4.239, -1.0129395, 4.239, -0.1574707, 4.239, 0.7557252, 4.239, 3.4656489, 4.239, -2.259542
0.4995, -0.0223239, 4.24575, -0.0360718, 4.24575, -0.9993286, 4.24575, -0.1760254, 4.24575, 1.0839695, 4.24575, 3.2290077, 4.24575, -2.1603053
0.5002941, -0.0213169, 4.2525, -0.0353394, 4.2525, -1.0062256, 4.2525, -0.1586304, 4.2525, 0.7480916, 4.2525, 2.1374047, 4.2525, -2.519084
0.5010882, -0.0216526, 4.25925, -0.0220337, 4.25925, -1.0083008, 4.25925, -0.1561279, 4.25925, 0.6412213, 4.25925, 2.259542, 4.25925, -2.1679389
0.5018824, -0.0221561, 4.266, -0.005188, 4.266, -1.0079346, 4.266, -0.1555786, 4.266, 0.7862595, 4.266, 2.0152671, 4.266, -2.221374
0.5026765, -0.0223239, 4.27275, -0.0142822, 4.27275, -1.0092773, 4.27275, -0.1486816, 4.27275, 0.8931298, 4.27275, 1.6412214, 4.27275, -2.9847329
0.5034706, -0.0162814, 4.2795, -0.0180664, 4.2795, -1.0077515, 4.2795, -0.1497803, 4.2795, 1.0305344, 4.2795, 1.8396946, 4.2795, -2.8778627
0.5042647, -0.0132601, 4.28625, -0.0181274, 4.28625, -0.9970703, 4.28625, -0.1443481, 4.28625, 0.8396947, 4.28625, 1.5801526, 4.28625, -3.2748091
0.5050588, -0.01561, 4.293, -0.0358276, 4.293, -0.99823, 4.293, -0.1535034, 4.293, 0.961832, 4.293, 3.7175572, 4.293, -3.0763359
0.5058529, -0.0166171, 4.29975, -0.0177612, 4.29975, -0.9990845, 4.29975, -0.1674194, 4.29975, 0.9770992, 4.29975, 4.6030536, 4.29975, -2.9160306
0.5066471, -0.0162814, 4.3065, -0.024231, 4.3065, -0.9952393, 4.3065, -0.1629028, 4.3065, 0.6259542, 4.3065, 4.9541984, 4.3065, -3.1068702
0.5074412, -0.0152743, 4.31325, -0.0159302, 4.31325, -1.0012817, 4.31325, -0.1647339, 4.31325, 0.6412213, 4.31325, 4.740458, 4.31325, -2.8473282
0.5082353, -0.01561, 4.32, -0.0042114, 4.32, -1.0136719, 4.32, -0.1638794, 4.32, 0.908397, 4.32, 4.1297708, 4.32, -3.129771
0.5090294, -0.0159457, 4.32675, -0.0092773, 4.32675, -1.0124512, 4.32675, -0.166748, 4.32675, 1.2442749, 4.32675, 4.4732823, 4.32675, -3.4580152
0.5098235, -0.0169528, 4.3335, -0.0296021, 4.3335, -1.012146, 4.3335, -0.15802, 4.3335, 1.4732825, 4.3335, 4.2977099, 4.3335, -3.4732823
0.5106176, -0.01561, 4.34025, -0.0383301, 4.34025, -1.0087891, 4.34025, -0.1570435, 4.34025, 1.8931298, 4.34025, 4.519084, 4.34025, -3.221374
0.5114118, -0.0166171, 4.347, -0.0480347, 4.347, -1.0080566, 4.347, -0.1582031, 4.347, 1.6641221, 4.347, 3.4045801, 4.347, -3.3129771
0.5122059, -0.0159457, 4.35375, -0.0524902, 4.35375, -1.0005493, 4.35375, -0.1641846, 4.35375, 1.1832061, 4.35375, 2.4580152, 4.35375, -3.5419848
0.513, -0.012253, 4.3605, -0.0551758, 4.3605, -1.0031738, 4.3605, -0.1566162, 4.3605, 1.0152671, 4.3605, 2.3358779, 4.3605, -3.2366412
0.5137941, -0.0109102, 4.36725, -0.0484009, 4.36725, -1.0004883, 4.36725, -0.1706543, 4.36725, 0.908397, 4.36725, 2.4122138, 4.36725, -3.2900763
0.5145882, -0.0082246, 4.374, -0.0352783, 4.374, -1.010437, 4.374, -0.1660767, 4.374, 0.648855, 4.374, 2.740458, 4.374, -3
0.5153824, -0.0072175, 4.38075, -0.0346069, 4.38075, -1.0137329, 4.38075, -0.1677856, 4.38075, 0.7633588, 4.38075, 2.4045801, 4.38075, -2.9541984
0.5161765, -0.0104067, 4.3875, -0.0405884, 4.3875, -1.0119019, 4.3875, -0.1714478, 4.3875, 0.8091603, 4.3875, 2.6259542, 4.3875, -2.961832
0.5169706, -0.0095674, 4.39425, -0.0366211, 4.39425, -1.0092163, 4.39425, -0.1551514, 4.39425, 0.8396947, 4.39425, 2.6717558, 4.39425, -2.7022901
0.5177647, -0.0085603, 4.401, -0.03302, 4.401, -1.0074463, 4.401, -0.1524658, 4.401, 1.0534351, 4.401, 2.3664122, 4.401, -2.9770992
0.5185588, -0.0095674, 4.40775, -0.0374756, 4.40775, -1.00177, 4.40775, -0.1445923, 4.40775, 0.4274809, 4.40775, 2.3740458, 4.40775, -2.9389312
0.5193529, -0.0099031, 4.4145, -0.0339966, 4.4145, -1.0062866, 4.4145, -0.130188, 4.4145, 1.1374046, 4.4145, 2.1603053, 4.4145, -2.9847329
0.5201471, -0.0117494, 4.42125, -0.0294189, 4.42125, -1.0065308, 4.42125, -0.1137695, 4.42125, 0.9541985, 4.42125, 1.4045801, 4.42125, -2.908397
0.5209412, -0.014435, 4.428, -0.0126953, 4.428, -0.9957886, 4.428, -0.1431274, 4.428, 1.6183206, 4.428, -1.4122137, 4.428, -3.4198472
0.5217353, -0.0119173, 4.43475, -0.0187988, 4.43475, -0.9907227, 4.43475, -0.1496582, 4.43475, 0.8778626, 4.43475, -2, 4.43475, -3.610687
0.5225294, -0.0082246, 4.4415, -0.0074463, 4.4415, -0.9967651, 4.4415, -0.1453857, 4.4415, 0.8854962, 4.4415, -0.7251908, 4.4415, -3.1603053
0.5233235, -0.012253, 4.44825, -0.0098877, 4.44825, -1.0023193, 4.44825, -0.15625, 4.44825, 0.9770992, 4.44825, 0.1068702, 4.44825, -3.3740458
0.5241176, -0.0176242, 4.455, -0.0230103, 4.455, -1.0014648, 4.455, -0.1553955, 4.455, 1.480916, 4.455, 0.4503817, 4.455, -3.5343511
0.5249118, -0.0216526, 4.46175, -0.0371704, 4.46175, -1.0007324, 4.46175, -0.1546021, 4.46175, 1.778626, 4.46175, 0.6412213, 4.46175, -3.4961832
0.5257059, -0.0209812, 4.4685, -0.0405273, 4.4685, -1.0012207, 4.4685, -0.1578369, 4.4685, 1.7251909, 4.4685, 0.7175573, 4.4685, -3.4503818
0.5265, -0.0196384, 4.47525, -0.0407715, 4.47525, -1.005188, 4.47525, -0.1497192, 4.47525, 1.2519084, 4.47525, 0.5725191, 4.47525, -3.3435113
0.5272941, -0.0203098, 4.482, -0.048584, 4.482, -1.0045776, 4.482, -0.1427612, 4.482, 1.6030535, 4.482, 1.1908396, 4.482, -3.0458016
0.5280882, -0.0159457, 4.48875, -0.0494385, 4.48875, -1.0003662, 4.48875, -0.1429443, 4.48875, 2.1526718, 4.48875, 1.5419847, 4.48875, -2.9312978
0.5288824, -0.0146029, 4.4955, -0.0587769, 4.4955, -0.9985962, 4.4955, -0.1446533, 4.4955, 1.610687, 4.4955, 1.129771, 4.4955, -2.9923663
0.5296765, -0.0149386, 4.50225, -0.0587158, 4.50225, -0.996521, 4.50225, -0.1517334, 4.50225, 1.8778626, 4.50225, 0.4503817, 4.50225, -3.1984732
0.5304706, -0.0142672, 4.509, -0.046875, 4.509, -0.9884644, 4.509, -0.1526489, 4.509, 2.0992367, 4.509, -0.3358779, 4.509, -3.3206108
0.5312647, -0.0149386, 4.51575, -0.0505371, 4.51575, -0.9873657, 4.51575, -0.1630859, 4.51575, 2.2977099, 4.51575, -1.2137405, 4.51575, -3.5877862
0.5320588, -0.0109102, 4.5225, -0.0270386, 4.5225, -0.9946899, 4.5225, -0.1619873, 4.5225, 2.480916, 4.5225, -0.740458, 4.5225, -3.3358779
0.5328529, -0.0109102, 4.52925, -0.0169678, 4.52925, -1.0068359, 4.52925, -0.156189, 4.52925, 3.0458016, 4.52925, -0.2748092, 4.52925, -3.5801528
0.5336471, -0.012253, 4.536, -0.0113525, 4.536, -1.0057983, 4.536, -0.1697998, 4.536, 3.4274809, 4.536, 1.610687, 4.536, -3.3587787
0.5344412, -0.011078, 4.54275, -0.0025024, 4.54275, -1.0043945, 4.54275, -0.1665039, 4.54275, 3.0763359, 4.54275, 1.3053435, 4.54275, -3.2061069
0.5352353, -0.0109102, 4.5495, -0.0147705, 4.5495, -1.0054932, 4.5495, -0.1605835, 4.5495, 3.0839694, 4.5495, 1.5267175, 4.5495, -3.5877862
0.5360294, -0.0095674, 4.55625, -0.0249634, 4.55625, -1.0122681, 4.55625, -0.1571045, 4.55625, 2.6946564, 4.55625, 1.8244275, 4.55625, -3.2290077
0.5368235, -0.0129244, 4.563, -0.0133667, 4.563, -1.0144653, 4.563, -0.1594849, 4.563, 2.3969467, 4.563, 1.7328244, 4.563, -3.221374
0.5376176, -0.0135958, 4.56975, -0.0232544, 4.56975, -1.015625, 4.56975, -0.1555176, 4.56975, 1.6641221, 4.56975, 2.1832061, 4.56975, -3.1755726
0.5384118, -0.0125887, 4.5765, -0.0258789, 4.5765, -1.0174561, 4.5765, -0.1489868, 4.5765, 1.4198474, 4.5765, 1.648855, 4.5765, -3.2519083
0.5392059, -0.0149386, 4.58325, -0.0390015, 4.58325, -1.0130005, 4.58325, -0.1494141, 4.58325, 1.389313, 4.58325, 0.7709923, 4.58325, -3.5572519
0.54, -0.011078, 4.59, -0.0352173, 4.59, -1.0027466, 4.59, -0.1564331, 4.59, 1.7862595, 4.59, -0.4732825, 4.59, -3.4198472
0.5407941, -0.0112459, 4.59675, -0.0356445, 4.59675, -0.9998169, 4.59675, -0.1602783, 4.59675, 1.4580153, 4.59675, -1.3129771, 4.59675, -3.6717558
0.5415882, -0.0129244, 4.6035, -0.0291138, 4.6035, -1.0063477, 4.6035, -0.1601562, 4.6035, 1.221374, 4.6035, -0.4885496, 4.6035, -3.6412213
0.5423824, -0.012253, 4.61025, -0.0146484, 4.61025, -1.0085449, 4.61025, -0.1600952, 4.61025, 1.4198474, 4.61025, 0.0763359, 4.61025, -3.4885497
0.5431765, -0.0162814, 4.617, -0.0204468, 4.617, -1.0039673, 4.617, -0.1679077, 4.617, 1.4656489, 4.617, 0.8091603, 4.617, -3.6946564
0.5439706, -0.0146029, 4.62375, -0.0228882, 4.62375, -1.0021973, 4.62375, -0.1635132, 4.62375, 1.389313, 4.62375, 0.8167939, 4.62375, -3.4656489
0.5447647, -0.0082246, 4.6305, -0.0310669, 4.6305, -1.0103149, 4.6305, -0.1593628, 4.6305, 1.5038168, 4.6305, 1.3740458, 4.6305, -3.3740458
0.5455588, -0.0135958, 4.63725, -0.0296021, 4.63725, -1.0093384, 4.63725, -0.1555176, 4.63725, 0.6946565, 4.63725, 2.2900763, 4.63725, -3.5801528
0.5463529, -0.0157778, 4.644, -0.0369263, 4.644, -1.0037231, 4.644, -0.1473389, 4.644, 0.6030535, 4.644, 2.6641221, 4.644, -3.5877862
0.5471471, -0.0149386, 4.65075, -0.0441895, 4.65075, -0.9998779, 4.65075, -0.1484375, 4.65075, 0.7480916, 4.65075, 2.8320611, 4.65075, -3.6641221
0.5479412, -0.0154421, 4.6575, -0.0392456, 4.6575, -1.0026855, 4.6575, -0.1369629, 4.6575, 1.129771, 4.6575, 2.6641221, 4.6575, -3.8396947
0.5487353, -0.0162814, 4.66425, -0.0313721, 4.66425, -0.9997559, 4.66425, -0.1427612, 4.66425, 1.4198474, 4.66425, 2.1374047, 4.66425, -3.8244274
0.5495294, -0.0172885, 4.671, -0.0304565, 4.671, -1.0016479, 4.671, -0.1430664, 4.671, 1.1374046, 4.671, 1.0534351, 4.671, -3.9465649
0.5503235, -0.0182956, 4.67775, -0.0328369, 4.67775, -0.9943237, 4.67775, -0.1489868, 4.67775, 0.8015267, 4.67775, 0.9312977, 4.67775, -3.8091602
0.5511176, -0.0182956, 4.6845, -0.0391235, 4.6845, -0.998291, 4.6845, -0.1530762, 4.6845, 1.2137405, 4.6845, 0.259542, 4.6845, -3.9694657
0.5519118, -0.0198062, 4.69125, -0.0376587, 4.69125, -0.9950562, 4.69125, -0.1600342, 4.69125, 1.6183206, 4.69125, -0.1526718, 4.69125, -4.2748094
0.5527059, -0.0196384, 4.698, -0.0344849, 4.698, -0.9972534, 4.698, -0.1566772, 4.698, 1.6946565, 4.698, -0.2137405, 4.698, -4.1068702
0.5535, -0.0176242, 4.70475, -0.0236206, 4.70475, -1.0001221, 4.70475, -0.1600952, 4.70475, 1.6793894, 4.70475, -0.5801527, 4.70475, -4.1068702
0.5542941, -0.0149386, 4.7115, -0.0222168, 4.7115, -1.0025024, 4.7115, -0.1630859, 4.7115, 1.1603054, 4.7115, -0.3816794, 4.7115, -4.1450381
0.5550882, -0.01561, 4.71825, -0.0171509, 4.71825, -1.0061035, 4.71825, -0.1505127, 4.71825, 0.8244275, 4.71825, -0.1145038, 4.71825, -4.1450381
0.5558824, -0.0176242, 4.725, -0.0306396, 4.725, -1.0141602, 4.725, -0.1456299, 4.725, 0.8091603, 4.725, 0.5114504, 4.725, -4.2900763
0.5566765, -0.0169528, 4.73175, -0.0358887, 4.73175, -1.0084839, 4.73175, -0.1487427, 4.73175, 1.1068702, 4.73175, 0.6259542, 4.73175, -4.2519083
0.5574706, -0.0149386, 4.7385, -0.0454712, 4.7385, -1.0060425, 4.7385, -0.1479492, 4.7385, 0.7862595, 4.7385, 0.3282443, 4.7385, -4.4732823
0.5582647, -0.0125887, 4.74525, -0.0494995, 4.74525, -1.0080566, 4.74525, -0.1389771, 4.74525, 0.4580153, 4.74525, -0.4580153, 4.74525, -4.480916
0.5590588, -0.0139315, 4.752, -0.0435791, 4.752, -1.0070801, 4.752, -0.1365356, 4.752, 0.2366412, 4.752, -1, 4.752, -4.3816795
0.5598529, -0.0142672, 4.75875, -0.0318604, 4.75875, -1.0043945, 4.75875, -0.1332397, 4.75875, 0.129771, 4.75875, -1.351145, 4.75875, -4.2137403
0.5606471, -0.0129244, 4.7655, -0.0220947, 4.7655, -0.9993286, 4.7655, -0.1489258, 4.7655, -0.0687023, 4.7655, -0.3816794, 4.7655, -4.1526718
0.5614412, -0.0099031, 4.77225, -0.0169067, 4.77225, -0.9937134, 4.77225, -0.1599731, 4.77225, -0.0687023, 4.77225, 1.1145039, 4.77225, -4.0229006
0.5622353, -0.0092317, 4.779, -0.0112915, 4.779, -0.9969482, 4.779, -0.161499, 4.779, 0.4503817, 4.779, 1.6946565, 4.779, -4.3053436
0.5630294, -0.0119173, 4.78575, -0.015686, 4.78575, -0.9990234, 4.78575, -0.1671143, 4.78575, 1.0687023, 4.78575, 2.3206108, 4.78575, -4.4351144
0.5638235, -0.0125887, 4.7925, -0.0268555, 4.7925, -0.9936523, 4.7925, -0.177063, 4.7925, 1.3206106, 4.7925, 1.908397, 4.7925, -4.1908398
0.5646176, -0.0129244, 4.79925, -0.0281982, 4.79925, -1.0043945, 4.79925, -0.1691895, 4.79925, 0.8854962, 4.79925, 1.4503816, 4.79925, -3.9007633
0.5654118, -0.0097353, 4.806, -0.0285034, 4.806, -1.0080566, 4.806, -0.1702881, 4.806, 1.0458015, 4.806, 0.8625954, 4.806, -3.9389312
0.5662059, -0.0117494, 4.81275, -0.0237427, 4.81275, -1.0078125, 4.81275, -0.1607666, 4.81275, 1.0534351, 4.81275, 0.3816794, 4.81275, -3.9770992
0.567, -0.0135958, 4.8195, -0.0171509, 4.8195, -1.0099487, 4.8195, -0.1524658, 4.8195, 1.0458015, 4.8195, 0.0610687, 4.8195, -3.8549619
0.5677941, -0.0129244, 4.82625, -0.0182495, 4.82625, -1.0076294, 4.82625, -0.1521606, 4.82625, 0.9847328, 4.82625, 0.2671756, 4.82625, -3.9236641
0.5685882, -0.0115816, 4.833, -0.0166626, 4.833, -1.0111084, 4.833, -0.1451416, 4.833, 0.8320611, 4.833, 0.6412213, 4.833, -3.7099237
0.5693824, -0.0115816, 4.83975, -0.0092163, 4.83975, -1.0164185, 4.83975, -0.1450806, 4.83975, 0.9389313, 4.83975, 1.2748091, 4.83975, -3.9007633
0.5701765, -0.0109102, 4.8465, -0.0165405, 4.8465, -1.0111694, 4.8465, -0.1438599, 4.8465, 0.8015267, 4.8465, 1.6335878, 4.8465, -3.6946564
0.5709706, -0.012253, 4.85325, -0.0155029, 4.85325, -1.0062866, 4.85325, -0.1477051, 4.85325, 0.9923664, 4.85325, 1.9770992, 4.85325, -3.4580152
0.5717647, -0.0120851, 4.86, -0.0169678, 4.86, -1.0066528, 4.86, -0.1725464, 4.86, 0.8167939, 4.86, 2.1374047, 4.86, -3.6870229
0.5725588, -0.0129244, 4.86675, -0.0236816, 4.86675, -1.0059814, 4.86675, -0.1724854, 4.86675, 0.4732825, 4.86675, 2.0839694, 4.86675, -3.6335878
0.5733529, -0.0159457, 4.8735, -0.03302, 4.8735, -1.0057983, 4.8735, -0.1727905, 4.8735, 0.2977099, 4.8735, 1.2366412, 4.8735, -4.0152674
0.5741471, -0.017792, 4.88025, -0.0386353, 4.88025, -1.0047607, 4.88025, -0.1652832, 4.88025, 0.0839695, 4.88025, 0.259542, 4.88025, -3.9007633
0.5749412, -0.0151064, 4.887, -0.0272217, 4.887, -1.003418, 4.887, -0.1629028, 4.887, 0.519084, 4.887, -0.6717557, 4.887, -3.961832
0.5757353, -0.0146029, 4.89375, -0.0161133, 4.89375, -1.0097046, 4.89375, -0.1571655, 4.89375, 0.4122137, 4.89375, -1.0534351, 4.89375, -3.9923663
0.5765294, -0.0142672, 4.9005, -0.0158691, 4.9005, -1.0145874, 4.9005, -0.1445312, 4.9005, 0.7328244, 4.9005, -1.1984733, 4.9005, -4.0229006
0.5773235, -0.0130922, 4.90725, -0.0161133, 4.90725, -1.0101929, 4.90725, -0.1422119, 4.90725, 0.8473282, 4.90725, -0.9694657, 4.90725, -4.0229006
0.5781176, -0.0125887, 4.914, -0.017334, 4.914, -1.0073853, 4.914, -0.1483154, 4.914, 0.8167939, 4.914, -0.4122137, 4.914, -3.8244274
0.5789118, -0.0135958, 4.92075, -0.0165405, 4.92075, -1.0065918, 4.92075, -0.1542358, 4.92075, 0.4503817, 4.92075, 0.3053435, 4.92075, -3.9770992
0.5797059, -0.0149386, 4.9275, -0.0291138, 4.9275, -1.0061035, 4.9275, -0.1538696, 4.9275, 0.1679389, 4.9275, 2.1526718, 4.9275, -3.7938931
0.5805, -0.0109102, 4.93425, -0.0297852, 4.93425, -1.0014038, 4.93425, -0.1633911, 4.93425, 0.0839695, 4.93425, 2.7022901, 4.93425, -3.4885497
0.5812941, -0.0135958, 4.941, -0.020752, 4.941, -1.0044556, 4.941, -0.1627808, 4.941, -0.0763359, 4.941, 2.6641221, 4.941, -3.3358779
0.5820882, -0.014435, 4.94775, -0.0246582, 4.94775, -1.0091553, 4.94775, -0.1669922, 4.94775, 0.1526718, 4.94775, 2.7175572, 4.94775, -3.6717558
0.5828824, -0.0119173, 4.9545, -0.0195312, 4.9545, -1.0075684, 4.9545, -0.1700439, 4.9545, 0.6030535, 4.9545, 2.7175572, 4.9545, -3.4274809
0.5836765, -0.0112459, 4.96125, -0.0193481, 4.96125, -1.0033569, 4.96125, -0.1622925, 4.96125, 0.7099237, 4.96125, 2.3206108, 4.96125, -3.5954199
0.5844706, -0.0112459, 4.968, -0.0197144, 4.968, -1.0014038, 4.968, -0.15979, 4.968, 0.3206107, 4.968, 1.0687023, 4.968, -3.7175572
0.5852647, -0.012253, 4.97475, -0.0203247, 4.97475, -1.0081787, 4.97475, -0.1522217, 4.97475, 0.5801527, 4.97475, 0.6946565, 4.97475, -3.7022901
0.5860588, -0.0124208, 4.9815, -0.019043, 4.9815, -1.0065308, 4.9815, -0.1616211, 4.9815, 1.2290076, 4.9815, 0.4427481, 4.9815, -3.7175572
0.5868529, -0.0149386, 4.98825, -0.0133057, 4.98825, -1.0029297, 4.98825, -0.1553955, 4.98825, 0.8625954, 4.98825, -0.221374, 4.98825, -3.5801528
0.5876471, -0.0146029, 4.995, -0.0157471, 4.995, -0.9990234, 4.995, -0.1481323, 4.995, 1.1221374, 4.995, -0.5038168, 4.995, -3.9541984
0.5884412, -0.0105745, 5.00175, -0.024292, 5.00175, -1.0025635, 5.00175, -0.1469116, 5.00175, 1.2061069, 5.00175, -0.4427481, 5.00175, -3.8396947
0.5892353, -0.0125887, 5.0085, -0.0224609, 5.0085, -1.0013428, 5.0085, -0.1480713, 5.0085, 1.2748091, 5.0085, -0.4351145, 5.0085, -3.648855
0.5900294, -0.0159457, 5.01525, -0.0216675, 5.01525, -0.9978027, 5.01525, -0.1459351, 5.01525, 1.4580153, 5.01525, -0.5267175, 5.01525, -3.7328243
0.5908235, -0.0152743, 5.022, -0.0351562, 5.022, -1.0009155, 5.022, -0.1427612, 5.022, 1.5801526, 5.022, 0.0763359, 5.022, -3.9312978
0.5916176, -0.0167849, 5.02875, -0.0263062, 5.02875, -1.0004883, 5.02875, -0.1485596, 5.02875, 1.9312977, 5.02875, 0.5572519, 5.02875, -3.5038168
0.5924118, -0.0182956, 5.0355, -0.0198975, 5.0355, -1.0005493, 5.0355, -0.1520996, 5.0355, 1.2748091, 5.0355, 0.8244275, 5.0355, -3.7175572
0.5932059, -0.0166171, 5.04225, -0.0171509, 5.04225, -1.0008545, 5.04225, -0.1498413, 5.04225, 1.038168, 5.04225, 1.1603054, 5.04225, -3.7633588
0.594, -0.0172885, 5.049, -0.0304565, 5.049, -0.994873, 5.049, -0.1519165, 5.049, 0.6030535, 5.049, 2.5572519, 5.049, -3.8015268
0.5947941, -0.0186313, 5.05575, -0.022583, 5.05575, -1.0004272, 5.05575, -0.1533813, 5.05575, 0.129771, 5.05575, 2.9923663, 5.05575, -3.3358779
0.5955882, -0.0203098, 5.0625, -0.0175781, 5.0625, -1.0016479, 5.0625, -0.1586304, 5.0625, 0.1221374, 5.0625, 2.0992367, 5.0625, -3.6793892
0.5963824, -0.0166171, 5.06925, -0.0301514, 5.06925, -1.0045776, 5.06925, -0.1609497, 5.06925, 0.0610687, 5.06925, 1.8167939, 5.06925, -3.7709923
0.5971765, -0.0182956, 5.076, -0.034668, 5.076, -1.0078125, 5.076, -0.1625366, 5.076, 0.2519084, 5.076, 1.4732825, 5.076, -3.4885497
0.5979706, -0.0157778, 5.08275, -0.0308838, 5.08275, -1.0092163, 5.08275, -0.1563721, 5.08275, 0.3969466, 5.08275, 1.1450381, 5.08275, -3.7328243
0.5987647, -0.0142672, 5.0895, -0.02771, 5.0895, -1.0083008, 5.0895, -0.15448, 5.0895, 0.5877863, 5.0895, 0.8549618, 5.0895, -3.6335878
0.5995588, -0.0166171, 5.09625, -0.0352783, 5.09625, -1.0095825, 5.09625, -0.151062, 5.09625, 1.0229008, 5.09625, 0.5419847, 5.09625, -3.9007633
0.6003529, -0.0149386, 5.103, -0.0269165, 5.103, -1.0061035, 5.103, -0.1560059, 5.103, 0.8015267, 5.103, 0.4732825, 5.103, -3.6412213
0.6011471, -0.0135958, 5.10975, -0.0206909, 5.10975, -1.0019531, 5.10975, -0.1567383, 5.10975, 0.9541985, 5.10975, 0.0381679, 5.10975, -3.8167939
0.6019412, -0.0125887, 5.1165, -0.0305176, 5.1165, -1.0042725, 5.1165, -0.1500854, 5.1165, 1.0229008, 5.1165, 0.2824427, 5.1165, -3.8015268
0.6027353, -0.0102388, 5.12325, -0.0241089, 5.12325, -1.0029907, 5.12325, -0.1547852, 5.12325, 1.0763359, 5.12325, 0.1984733, 5.12325, -3.5343511
0.6035294, -0.0105745, 5.13, -0.0200195, 5.13, -1.0062866, 5.13, -0.1496582, 5.13, 0.610687, 5.13, -0.2366412, 5.13, -3.5725191
0.6043235, -0.0142672, 5.13675, -0.0194702, 5.13675, -1.0058594, 5.13675, -0.1594238, 5.13675, 0.3740458, 5.13675, -0.3206107, 5.13675, -3.6717558
0.6051176, -0.0146029, 5.1435, -0.0168457, 5.1435, -0.9998169, 5.1435, -0.1641235, 5.1435, -0.0381679, 5.1435, 0.5343512, 5.1435, -3.2137403
0.6059118, -0.0159457, 5.15025, -0.0128174, 5.15025, -1.0018921, 5.15025, -0.1677856, 5.15025, -0.8931298, 5.15025, 0.4503817, 5.15025, -3.0992367
0.6067059, -0.0146029, 5.157, -0.0125122, 5.157, -1.0083008, 5.157, -0.1602173, 5.157, -0.8549618, 5.157, 0.1374046, 5.157, -3.0992367
0.6075, -0.014435, 5.16375, -0.0119019, 5.16375, -1.0108643, 5.16375, -0.1584473, 5.16375, -1.1374046, 5.16375, 0.4503817, 5.16375, -3.1984732
0.6082941, -0.0157778, 5.1705, -0.0111694, 5.1705, -1.0144653, 5.1705, -0.1538086, 5.1705, -0.9541985, 5.1705, 0.389313, 5.1705, -3.2748091
0.6090882, -0.01561, 5.17725, -0.0177002, 5.17725, -1.0187988, 5.17725, -0.1447754, 5.17725, -0.8167939, 5.17725, 0.3969466, 5.17725, -3.0839694
0.6098824, -0.0166171, 5.184, -0.0211182, 5.184, -1.0134888, 5.184, -0.1429443, 5.184, -0.6259542, 5.184, 0.1526718, 5.184, -3.1679389
0.6106765, -0.0162814, 5.19075, -0.0316772, 5.19075, -1.0042114, 5.19075, -0.1439209, 5.19075, -0.2442748, 5.19075, -0.4045801, 5.19075, -3.2290077
0.6114706, -0.0135958, 5.1975, -0.0411987, 5.1975, -0.9989014, 5.1975, -0.1599121, 5.1975, -0.2137405, 5.1975, 0.5877863, 5.1975, -3.2824428
0.6122647, -0.0124208, 5.20425, -0.036499, 5.20425, -0.9924316, 5.20425, -0.1654053, 5.20425, -0.480916, 5.20425, 1.5877863, 5.20425, -3.0839694
0.6130588, -0.0115816, 5.211, -0.0427246, 5.211, -0.9980469, 5.211, -0.1713257, 5.211, -0.2900763, 5.211, 1.4122137, 5.211, -3.0992367
0.6138529, -0.0075532, 5.21775, -0.0410767, 5.21775, -0.9951782, 5.21775, -0.1751709, 5.21775, 0.1221374, 5.21775, 0.9541985, 5.21775, -3.129771
0.6146471, -0.0072175, 5.2245, -0.0279541, 5.2245, -1.0025024, 5.2245, -0.1784058, 5.2245, -0.129771, 5.2245, 0.8396947, 5.2245, -2.961832
0.6154412, -0.0058747, 5.23125, -0.0106201, 5.23125, -1.008667, 5.23125, -0.1779175, 5.23125, 0.4580153, 5.23125, -0.5419847, 5.23125, -2.9694657
0.6162353, -0.0095674, 5.238, -0.0200806, 5.238, -1.0054932, 5.238, -0.1746826, 5.238, 0.7022901, 5.238, -0.7099237, 5.238, -3.2061069
0.6170294, -0.008896, 5.24475, -0.0145264, 5.24475, -1.0109863, 5.24475, -0.1731567, 5.24475, 0.7633588, 5.24475, -0.7022901, 5.24475, -2.961832
0.6178235, -0.0058747, 5.2515, -0.0048828, 5.2515, -1.0152588, 5.2515, -0.1694336, 5.2515, 0.7251908, 5.2515, -0.4885496, 5.2515, -2.9923663
0.6186176, -0.0062104, 5.25825, -0.0025024, 5.25825, -1.0126343, 5.25825, -0.1607056, 5.25825, 1.0229008, 5.25825, -0.4656489, 5.25825, -3.3358779
0.6194118, -0.0060426, 5.265, -0.0117798, 5.265, -1.0084229, 5.265, -0.1553955, 5.265, 1.351145, 5.265, -0.4122137, 5.265, -3.1984732
0.6202059, -0.0102388, 5.27175, -0.0090332, 5.27175, -1.0050049, 5.27175, -0.1548462, 5.27175, 1.3129771, 5.27175, -0.1450382, 5.27175, -3.2290077
0.621, -0.012253, 5.2785, -0.0102539, 5.2785, -1.0084839, 5.2785, -0.1530151, 5.2785, 1.4885496, 5.2785, -0.5267175, 5.2785, -3.2519083
0.6217941, -0.0137636, 5.28525, -0.0186157, 5.28525, -1.0060425, 5.28525, -0.1595459, 5.28525, 1.3358779, 5.28525, 0.129771, 5.28525, -3.3053436
0.6225882, -0.0166171, 5.292, -0.0192261, 5.292, -1.0023804, 5.292, -0.168457, 5.292, 0.778626, 5.292, 1.5496184, 5.292, -3.1221373
0.6233824, -0.018967, 5.29875, -0.0136108, 5.29875, -1.0032959, 5.29875, -0.1624146, 5.29875, 0.2900763, 5.29875, 2.5877862, 5.29875, -3.091603
0.6241765, -0.018967, 5.3055, -0.0203247, 5.3055, -1.0088501, 5.3055, -0.1633911, 5.3055, 0.4351145, 5.3055, 2.7862597, 5.3055, -3.221374
0.6249706, -0.0191348, 5.31225, -0.0217285, 5.31225, -1.005188, 5.31225, -0.1734009, 5.31225, 0.4961832, 5.31225, 2.9923663, 5.31225, -3.1908398
0.6257647, -0.0203098, 5.319, -0.0220337, 5.319, -1.0038452, 5.319, -0.1693726, 5.319, 0.3282443, 5.319, 2.6030533, 5.319, -3.0458016
0.6265588, -0.0240024, 5.32575, -0.029541, 5.32575, -1.008728, 5.32575, -0.1663208, 5.32575, 0.4580153, 5.32575, 2.2671757, 5.32575, -3.0458016
0.6273529, -0.0226596, 5.3325, -0.041626, 5.3325, -1.0053101, 5.3325, -0.1610107, 5.3325, 1.0687023, 5.3325, 2.0839694, 5.3325, -3.0839694
0.6281471, -0.0218204, 5.33925, -0.0440063, 5.33925, -1.0011597, 5.33925, -0.1644897, 5.33925, 1.3740458, 5.33925, 1.5419847, 5.33925, -3.3435113
0.6289412, -0.0219883, 5.346, -0.0446777, 5.346, -1.0037231, 5.346, -0.161377, 5.346, 1.1450381, 5.346, 0.9236641, 5.346, -3.2519083
0.6297353, -0.0213169, 5.35275, -0.036377, 5.35275, -1.0061646, 5.35275, -0.1586304, 5.35275, 0.9694657, 5.35275, 1.0992366, 5.35275, -3.0839694
0.6305294, -0.0204776, 5.3595, -0.0214844, 5.3595, -1.0046387, 5.3595, -0.1472778, 5.3595, 0.4580153, 5.3595, 1.0305344, 5.3595, -2.9847329
0.6313235, -0.0176242, 5.36625, -0.015686, 5.36625, -0.9988403, 5.36625, -0.1657715, 5.36625, 0.6641222, 5.36625, 1.0610687, 5.36625, -3.0305343
0.6321176, -0.0164492, 5.373, -0.0165405, 5.373, -0.9991455, 5.373, -0.1773071, 5.373, -0.0610687, 5.373, 1.6564885, 5.373, -3.3969467
0.6329118, -0.0182956, 5.37975, -0.0257568, 5.37975, -1.0083008, 5.37975, -0.1711426, 5.37975, -0.0381679, 5.37975, 1.6870229, 5.37975, -3.5267177
0.6337059, -0.0146029, 5.3865, -0.0305176, 5.3865, -1.0093384, 5.3865, -0.1629028, 5.3865, 0.4732825, 5.3865, 1.2061069, 5.3865, -2.9923663
0.6345, -0.0142672, 5.39325, -0.0222778, 5.39325, -1.0043945, 5.39325, -0.1605225, 5.39325, 0.778626, 5.39325, 0.6641222, 5.39325, -3.2748091
0.6352941, -0.017792, 5.4, -0.019043, 5.4, -1.0041504, 5.4, -0.1571655, 5.4, 1.091603, 5.4, 0.6030535, 5.4, -3.1755726
0.6360882, -0.0139315, 5.40675, -0.0057373, 5.40675, -0.99823, 5.40675, -0.161499, 5.40675, 1.1221374, 5.40675, 0.5038168, 5.40675, -3.5725191
0.6368824, -0.012253, 5.4135, -0.0079956, 5.4135, -1.0028076, 5.4135, -0.1489258, 5.4135, 1.0458015, 5.4135, 0.8015267, 5.4135, -3.4122138
0.6376765, -0.0142672, 5.42025, -0.0136719, 5.42025, -1.0047607, 5.42025, -0.1467896, 5.42025, 1.4274809, 5.42025, 1.3969465, 5.42025, -3.3740458
0.6384706, -0.0130922, 5.427, -0.0220947, 5.427, -1.0007324, 5.427, -0.1435547, 5.427, 1.7175573, 5.427, 1.5725191, 5.427, -3.5725191
0.6392647, -0.0162814, 5.43375, -0.0262451, 5.43375, -0.994751, 5.43375, -0.1550293, 5.43375, 1.7175573, 5.43375, 0.9541985, 5.43375, -3.5419848
0.6400588, -0.0194705, 5.4405, -0.0257568, 5.4405, -1.0031128, 5.4405, -0.1546631, 5.4405, 1.3206106, 5.4405, 0.5801527, 5.4405, -3.3358779
0.6408529, -0.0179599, 5.44725, -0.0233765, 5.44725, -0.9996338, 5.44725, -0.1558838, 5.44725, 1.4503816, 5.44725, -0.351145, 5.44725, -3.3587787
0.6416471, -0.0179599, 5.454, -0.0324097, 5.454, -1.0012207, 5.454, -0.159729, 5.454, 0.6793893, 5.454, 0.7633588, 5.454, -2.9541984
0.6424412, -0.0196384, 5.46075, -0.0090942, 5.46075, -1.0065308, 5.46075, -0.1599121, 5.46075, 0.129771, 5.46075, 0.7633588, 5.46075, -3.091603
0.6432353, -0.0199741, 5.4675, -0.0253906, 5.4675, -1.0076294, 5.4675, -0.1602173, 5.4675, -0.2671756, 5.4675, 1.8167939, 5.4675, -3.2824428
0.6440294, -0.0172885, 5.47425, -0.0286255, 5.47425, -1.0082397, 5.47425, -0.1609497, 5.47425, -0.5648855, 5.47425, 1.5648855, 5.47425, -3.0229008
0.6448235, -0.0149386, 5.481, -0.0250854, 5.481, -1.001709, 5.481, -0.1629639, 5.481, -0.5419847, 5.481, 1.3358779, 5.481, -3.0763359
0.6456176, -0.012253, 5.48775, -0.0223389, 5.48775, -1.0012207, 5.48775, -0.1600952, 5.48775, -0.9312977, 5.48775, 0.2137405, 5.48775, -3.0610688
0.6464118, -0.0137636, 5.4945, -0.0240479, 5.4945, -1.0071411, 5.4945, -0.1522827, 5.4945, -1.129771, 5.4945, -0.3129771, 5.4945, -2.8854961
0.6472059, -0.0149386, 5.50125, -0.020874, 5.50125, -1.0101318, 5.50125, -0.156189, 5.50125, -0.6946565, 5.50125, -0.8473282, 5.50125, -3.351145
0.648, -0.0129244, 5.508, -0.0210571, 5.508, -1.0033569, 5.508, -0.1627808, 5.508, -0.5877863, 5.508, -1.6259542, 5.508, -3.6946564
0.6487941, -0.0135958, 5.51475, -0.0239868, 5.51475, -1.0065308, 5.51475, -0.1519165, 5.51475, -0.2137405, 5.51475, -2.2137403, 5.51475, -3.6946564
0.6495882, -0.0152743, 5.5215, -0.0228271, 5.5215, -0.9983521, 5.5215, -0.1672974, 5.5215, -0.0839695, 5.5215, -1.6717557, 5.5215, -3.6259542
0.6503824, -0.0196384, 5.52825, -0.020874, 5.52825, -0.9985352, 5.52825, -0.1669312, 5.52825, -0.3435115, 5.52825, -1.1832061, 5.52825, -3.5648854
0.6511765, -0.0176242, 5.535, -0.0228271, 5.535, -1.007019, 5.535, -0.1699829, 5.535, -0.351145, 5.535, -0.870229, 5.535, -3.5801528
0.6519706, -0.01561, 5.54175, -0.02771, 5.54175, -1.0076904, 5.54175, -0.1751709, 5.54175, 0.2519084, 5.54175, -0.8244275, 5.54175, -3.4351146
0.6527647, -0.0109102, 5.5485, -0.02948, 5.5485, -1.0064087, 5.5485, -0.164856, 5.5485, 0.3664122, 5.5485, -1.1984733, 5.5485, -3.4580152
0.6535588, -0.0102388, 5.55525, -0.0254517, 5.55525, -1.0065308, 5.55525, -0.163147, 5.55525, 0.3053435, 5.55525, -0.9312977, 5.55525, -3.3816793
0.6543529, -0.0129244, 5.562, -0.026123, 5.562, -1.0014648, 5.562, -0.1680298, 5.562, 0.0610687, 5.562, -0.1374046, 5.562, -3.1374047
0.6551471, -0.0162814, 5.56875, -0.0167236, 5.56875, -1.0095215, 5.56875, -0.1669312, 5.56875, 0.0763359, 5.56875, -0.1145038, 5.56875, -3.1221373
0.6559412, -0.0152743, 5.5755, -0.0240479, 5.5755, -1.0094604, 5.5755, -0.1601562, 5.5755, 0.259542, 5.5755, -0.221374, 5.5755, -3.4427481
0.6567353, -0.0176242, 5.58225, -0.0203857, 5.58225, -1.0064697, 5.58225, -0.1563721, 5.58225, 1.0076336, 5.58225, 0.1221374, 5.58225, -3.1526718
0.6575294, -0.0209812, 5.589, -0.015686, 5.589, -1.00177, 5.589, -0.1535034, 5.589, 0.740458, 5.589, 0.1984733, 5.589, -2.961832
0.6583235, -0.0213169, 5.59575, -0.0142822, 5.59575, -1.0106201, 5.59575, -0.1538696, 5.59575, 1.0534351, 5.59575, 0.2900763, 5.59575, -3.1832061
0.6591176, -0.0176242, 5.6025, -0.0187378, 5.6025, -1.003479, 5.6025, -0.1687012, 5.6025, 1.7175573, 5.6025, 1.0992366, 5.6025, -3.259542
0.6599118, -0.0132601, 5.60925, -0.015686, 5.60925, -1.0023804, 5.60925, -0.1693726, 5.60925, 1.519084, 5.60925, 2.2442749, 5.60925, -3.1832061
0.6607059, -0.0142672, 5.616, -0.0132446, 5.616, -1.0045776, 5.616, -0.1716919, 5.616, 1.2977099, 5.616, 2.5801528, 5.616, -2.9465649
0.6615, -0.0109102, 5.62275, -0.0209351, 5.62275, -1.0050659, 5.62275, -0.166687, 5.62275, 1.3358779, 5.62275, 2.5419848, 5.62275, -3.1984732
0.6622941, -0.0120851, 5.6295, -0.0197754, 5.6295, -1.0048828, 5.6295, -0.1676025, 5.6295, 1.1374046, 5.6295, 2.4961832, 5.6295, -3.4732823
0.6630882, -0.0142672, 5.63625, -0.0281372, 5.63625, -1.0058594, 5.63625, -0.1671143, 5.63625, 1.2824427, 5.63625, 2.3358779, 5.63625, -3.5496182
0.6638824, -0.0115816, 5.643, -0.0129395, 5.643, -1.0029297, 5.643, -0.1693726, 5.643, 0.7480916, 5.643, 2.2519083, 5.643, -3.2442749
0.6646765, -0.0062104, 5.64975, -0.0129395, 5.64975, -1.0043945, 5.64975, -0.1586304, 5.64975, 0.5725191, 5.64975, 2.0229008, 5.64975, -3.4656489
0.6654706, -0.0045319, 5.6565, -0.015564, 5.6565, -1.0044556, 5.6565, -0.1591797, 5.6565, 1.1755725, 5.6565, 2.7022901, 5.6565, -3.3129771
0.6662647, -0.0028534, 5.66325, -0.0239258, 5.66325, -1.007019, 5.66325, -0.164856, 5.66325, 1.2137405, 5.66325, 2.648855, 5.66325, -3.4274809
0.6670588, -0.0005035, 5.67, -0.0360107, 5.67, -0.9998169, 5.67, -0.1708374, 5.67, 0.9236641, 5.67, 2.5648854, 5.67, -3.519084
0.6678529, -0.0041962, 5.67675, -0.0408325, 5.67675, -1.0003052, 5.67675, -0.1655273, 5.67675, 0.4198473, 5.67675, 1.6335878, 5.67675, -3.2977099
0.6686471, -0.0045319, 5.6835, -0.0383911, 5.6835, -1.0023193, 5.6835, -0.1735229, 5.6835, 0.9160305, 5.6835, 0.7633588, 5.6835, -3.259542
0.6694412, -0.0075532, 5.69025, -0.0275269, 5.69025, -1.0036011, 5.69025, -0.1682739, 5.69025, 0.6641222, 5.69025, 0.5496183, 5.69025, -3.259542
0.6702353, -0.0070497, 5.697, -0.0255127, 5.697, -1.0098877, 5.697, -0.1692505, 5.697, 0.8778626, 5.697, 0.3206107, 5.697, -2.9007633
0.6710294, -0.0075532, 5.70375, -0.0266113, 5.70375, -1.0059814, 5.70375, -0.1669922, 5.70375, 1.0763359, 5.70375, 0.1755725, 5.70375, -3.1068702
0.6718235, -0.0109102, 5.7105, -0.0280151, 5.7105, -1.0056763, 5.7105, -0.163208, 5.7105, 1.0458015, 5.7105, 0.2137405, 5.7105, -2.961832
0.6726176, -0.0149386, 5.71725, -0.022644, 5.71725, -1.0047607, 5.71725, -0.1620483, 5.71725, 1.3206106, 5.71725, -0.2442748, 5.71725, -2.8778627
0.6734118, -0.0172885, 5.724, -0.0197754, 5.724, -1.005249, 5.724, -0.159668, 5.724, 1.4274809, 5.724, -0.480916, 5.724, -2.8167939
0.6742059, -0.0135958, 5.73075, -0.0093384, 5.73075, -1.0079346, 5.73075, -0.1576538, 5.73075, 1.5801526, 5.73075, -0.4580153, 5.73075, -2.9389312
0.675, -0.0149386, 5.7375, -0.0131226, 5.7375, -1.0046997, 5.7375, -0.1576538, 5.7375, 1.610687, 5.7375, -0.3664122, 5.7375, -3.2977099
0.6757941, -0.0169528, 5.74425, -0.020752, 5.74425, -0.9992676, 5.74425, -0.159668, 5.74425, 1.6335878, 5.74425, -0.259542, 5.74425, -3.2824428
0.6765882, -0.0142672, 5.751, -0.0187378, 5.751, -1.0024414, 5.751, -0.1530762, 5.751, 1.1755725, 5.751, 0.5877863, 5.751, -3.480916
0.6773824, -0.012253, 5.75775, -0.0231323, 5.75775, -1.0013428, 5.75775, -0.1582031, 5.75775, 1.091603, 5.75775, 1.2061069, 5.75775, -3.4656489
