Application:, Trigno Discover (1.7.0)
Date/Time:, 2026/9/9 下午 12:49:29
Collection Length (seconds):, 111.672
Avanti Sensor 11 (69574)
sensor mode: 50
EMG 1 Time Series (s), EMG 1 (mV), ACC X Time Series (s), ACC X (G), ACC Y Time Series (s), ACC Y (G), ACC Z Time Series (s), ACC Z (G), GYRO X Time Series (s), GYRO X (deg/s), GYRO Y Time Series (s), GYRO Y (deg/s), GYRO Z Time Series (s), GYRO Z (deg/s)
, 1259.2593 Hz, , 148.1481 Hz, , 148.1481 Hz, , 148.1481 Hz, , 148.1481 Hz, , 148.1481 Hz, , 148.1481 Hz
0, -0.0142672, 0, -0.1131592, 0, -0.9985352, 0, -0.1142578, 0, 1.5572519, 0, 0.7099237, 0, -3.4122138
0.0007941, -0.0176242, 0.00675, -0.1135254, 0.00675, -0.9967041, 0.00675, -0.1160889, 0.00675, 1.480916, 0.00675, 0.8625954, 0.00675, -3.3129771
0.0015882, -0.0169528, 0.0135, -0.1162109, 0.0135, -1.0023804, 0.0135, -0.1165771, 0.0135, 1.519084, 0.0135, 1.0839695, 0.0135, -3.2977099
0.0023824, -0.0139315, 0.02025, -0.1154785, 0.02025, -0.9991455, 0.02025, -0.119812, 0.02025, 1.7099236, 0.02025, 1.1603054, 0.02025, -3.1450381
0.0031765, -0.0166171, 0.027, -0.1182251, 0.027, -0.9978638, 0.027, -0.1194458, 0.027, 1.5419847, 0.027, 1.259542, 0.027, -3.3664122
0.0039706, -0.01561, 0.03375, -0.118042, 0.03375, -0.9993286, 0.03375, -0.1196289, 0.03375, 1.7251909, 0.03375, 1.221374, 0.03375, -3.3435113
0.0047647, -0.0125887, 0.0405, -0.1174927, 0.0405, -0.9980469, 0.0405, -0.1216431, 0.0405, 1.6717557, 0.0405, 1.221374, 0.0405, -3.4045801
0.0055588, -0.0117494, 0.04725, -0.1178589, 0.04725, -1.0004883, 0.04725, -0.1244507, 0.04725, 1.7557251, 0.04725, 1.1450381, 0.04725, -3.4274809
0.0063529, -0.0137636, 0.054, -0.1176147, 0.054, -0.9987793, 0.054, -0.1231689, 0.054, 1.7557251, 0.054, 0.648855, 0.054, -3.2671757
0.0071471, -0.01561, 0.06075, -0.1140747, 0.06075, -1.0006714, 0.06075, -0.1213379, 0.06075, 1.8625954, 0.06075, 0.3587786, 0.06075, -3.5496182
0.0079412, -0.0149386, 0.0675, -0.1135864, 0.0675, -1.0039673, 0.0675, -0.1210327, 0.0675, 1.9236641, 0.0675, 0.2748092, 0.0675, -3.4122138
0.0087353, -0.0157778, 0.07425, -0.1126709, 0.07425, -1.0056763, 0.07425, -0.1193848, 0.07425, 2.0687022, 0.07425, 0.2519084, 0.07425, -3.4656489
0.0095294, -0.0142672, 0.081, -0.1134644, 0.081, -1.0045776, 0.081, -0.1153564, 0.081, 1.9847329, 0.081, 0.0381679, 0.081, -3.5725191
0.0103235, -0.0149386, 0.08775, -0.1123657, 0.08775, -1.0010986, 0.08775, -0.1135254, 0.08775, 2.2290077, 0.08775, 0.2900763, 0.08775, -3.4503818
0.0111176, -0.0124208, 0.0945, -0.1168823, 0.0945, -0.9973145, 0.0945, -0.1213379, 0.0945, 1.9923664, 0.0945, 0.2977099, 0.0945, -3.4274809
0.0119118, -0.0146029, 0.10125, -0.1190186, 0.10125, -0.9957886, 0.10125, -0.1161499, 0.10125, 1.8778626, 0.10125, 0.1603053, 0.10125, -3.4198472
0.0127059, -0.0157778, 0.108, -0.117981, 0.108, -1.0028687, 0.108, -0.1103516, 0.108, 2.0610688, 0.108, -0.0839695, 0.108, -3.4427481
0.0135, -0.0129244, 0.11475, -0.1137695, 0.11475, -1.0040283, 0.11475, -0.1124878, 0.11475, 2.0992367, 0.11475, -0.1068702, 0.11475, -3.3816793
0.0142941, -0.012253, 0.1215, -0.118103, 0.1215, -1.007019, 0.1215, -0.109436, 0.1215, 2.038168, 0.1215, -0.1450382, 0.1215, -3.5267177
0.0150882, -0.0109102, 0.12825, -0.1188965, 0.12825, -0.9978638, 0.12825, -0.1230469, 0.12825, 2.5496182, 0.12825, -0.2900763, 0.12825, -3.648855
0.0158824, -0.0135958, 0.135, -0.1115112, 0.135, -0.9946899, 0.135, -0.1102295, 0.135, 1.9694656, 0.135, -0.6946565, 0.135, -3.4656489
0.0166765, -0.0149386, 0.14175, -0.1048584, 0.14175, -0.9997559, 0.14175, -0.1065674, 0.14175, 2.1221373, 0.14175, -0.0076336, 0.14175, -3.3740458
0.0174706, -0.0132601, 0.1485, -0.1044312, 0.1485, -1.0016479, 0.1485, -0.1106567, 0.1485, 1.870229, 0.1485, 0.389313, 0.1485, -3.2290077
0.0182647, -0.0112459, 0.15525, -0.1079712, 0.15525, -1.0004883, 0.15525, -0.0993652, 0.15525, 1.8091604, 0.15525, 0.4580153, 0.15525, -3.351145
0.0190588, -0.0146029, 0.162, -0.1112061, 0.162, -1.0005493, 0.162, -0.1015015, 0.162, 2.0763359, 0.162, 0.740458, 0.162, -3.480916
0.0198529, -0.018967, 0.16875, -0.1112061, 0.16875, -0.9943848, 0.16875, -0.1066895, 0.16875, 1.9312977, 0.16875, 0.7480916, 0.16875, -3.1603053
0.0206471, -0.0129244, 0.1755, -0.1109009, 0.1755, -0.9923706, 0.1755, -0.1074219, 0.1755, 1.5572519, 0.1755, 0.519084, 0.1755, -3.1603053
0.0214412, -0.0109102, 0.18225, -0.111084, 0.18225, -0.9967651, 0.18225, -0.1043701, 0.18225, 1.480916, 0.18225, 0.4885496, 0.18225, -3.0152671
0.0222353, -0.01561, 0.189, -0.1138306, 0.189, -0.9998169, 0.189, -0.1080322, 0.189, 1.389313, 0.189, 0.5801527, 0.189, -3.2748091
0.0230294, -0.0169528, 0.19575, -0.1133423, 0.19575, -1.0007324, 0.19575, -0.1086426, 0.19575, 1.4045801, 0.19575, 0.2061069, 0.19575, -3.2519083
0.0238235, -0.0149386, 0.2025, -0.1123657, 0.2025, -0.9998779, 0.2025, -0.1112671, 0.2025, 1.4274809, 0.2025, -0.1755725, 0.2025, -3.3358779
0.0246176, -0.0129244, 0.20925, -0.1094971, 0.20925, -1.0013428, 0.20925, -0.111084, 0.20925, 1.2366412, 0.20925, 0.0458015, 0.20925, -3.1374047
0.0254118, -0.0139315, 0.216, -0.1104736, 0.216, -1.007019, 0.216, -0.1113892, 0.216, 1.2900764, 0.216, 0.4274809, 0.216, -2.9236641
0.0262059, -0.0135958, 0.22275, -0.1097412, 0.22275, -1.0025024, 0.22275, -0.1079712, 0.22275, 1.259542, 0.22275, 0.5725191, 0.22275, -2.9770992
0.027, -0.0142672, 0.2295, -0.1135254, 0.2295, -1.0014038, 0.2295, -0.1124268, 0.2295, 1.2824427, 0.2295, 0.5572519, 0.2295, -2.8854961
0.0277941, -0.0193027, 0.23625, -0.1170044, 0.23625, -1.0030518, 0.23625, -0.1101685, 0.23625, 1.1755725, 0.23625, 0.7175573, 0.23625, -2.9541984
0.0285882, -0.0162814, 0.243, -0.1138916, 0.243, -1.0006104, 0.243, -0.112793, 0.243, 1.1755725, 0.243, 0.6030535, 0.243, -3.0152671
0.0293824, -0.0166171, 0.24975, -0.1153564, 0.24975, -1.0005493, 0.24975, -0.1125488, 0.24975, 1.129771, 0.24975, 0.5267175, 0.24975, -3.038168
0.0301765, -0.0169528, 0.2565, -0.116333, 0.2565, -1.000061, 0.2565, -0.1112061, 0.2565, 1.0152671, 0.2565, 0.2977099, 0.2565, -3.0152671
0.0309706, -0.0169528, 0.26325, -0.1141968, 0.26325, -1.0025635, 0.26325, -0.1156006, 0.26325, 1.0534351, 0.26325, 0.3129771, 0.26325, -2.8625953
0.0317647, -0.0159457, 0.27, -0.1127319, 0.27, -1.0006104, 0.27, -0.1157227, 0.27, 1.1755725, 0.27, 0.2977099, 0.27, -3.0610688
0.0325588, -0.0149386, 0.27675, -0.1123657, 0.27675, -1.0011597, 0.27675, -0.1160889, 0.27675, 1.1450381, 0.27675, 0.3816794, 0.27675, -3.0687022
0.0333529, -0.0172885, 0.2835, -0.1173096, 0.2835, -0.9985352, 0.2835, -0.1201172, 0.2835, 1.1679389, 0.2835, 0.4732825, 0.2835, -2.9694657
0.0341471, -0.0164492, 0.29025, -0.1175537, 0.29025, -1.0023804, 0.29025, -0.1162109, 0.29025, 1.0992366, 0.29025, 0.3358779, 0.29025, -2.870229
0.0349412, -0.0152743, 0.297, -0.1186523, 0.297, -1.000061, 0.297, -0.1139526, 0.297, 1.2442749, 0.297, 0.5725191, 0.297, -2.9770992
0.0357353, -0.0157778, 0.30375, -0.1159668, 0.30375, -0.9978027, 0.30375, -0.1138306, 0.30375, 1.2137405, 0.30375, 0.6717557, 0.30375, -3.0763359
0.0365294, -0.012253, 0.3105, -0.1170654, 0.3105, -1.0010986, 0.3105, -0.1159668, 0.3105, 1.2442749, 0.3105, 0.7480916, 0.3105, -3
0.0373235, -0.012253, 0.31725, -0.118103, 0.31725, -1.000061, 0.31725, -0.1171265, 0.31725, 1.3206106, 0.31725, 0.648855, 0.31725, -2.9770992
0.0381176, -0.0149386, 0.324, -0.1139526, 0.324, -1.0008545, 0.324, -0.1171265, 0.324, 1.221374, 0.324, 0.7099237, 0.324, -3.0763359
0.0389118, -0.0152743, 0.33075, -0.1129761, 0.33075, -1.0018921, 0.33075, -0.1160889, 0.33075, 1.4656489, 0.33075, 0.6564885, 0.33075, -2.9312978
0.0397059, -0.01561, 0.3375, -0.1126709, 0.3375, -0.9978027, 0.3375, -0.1114502, 0.3375, 1.4961832, 0.3375, 0.8625954, 0.3375, -2.9465649
0.0405, -0.0135958, 0.34425, -0.1131592, 0.34425, -0.9997559, 0.34425, -0.1123657, 0.34425, 1.4732825, 0.34425, 0.8473282, 0.34425, -2.908397
0.0412941, -0.0162814, 0.351, -0.1130981, 0.351, -0.9969482, 0.351, -0.1154175, 0.351, 1.2748091, 0.351, 0.8396947, 0.351, -2.8931298
0.0420882, -0.0162814, 0.35775, -0.1137085, 0.35775, -0.9978638, 0.35775, -0.1122437, 0.35775, 1.4122137, 0.35775, 0.8473282, 0.35775, -3.0992367
0.0428824, -0.0137636, 0.3645, -0.1129761, 0.3645, -1.0008545, 0.3645, -0.1123047, 0.3645, 1.4198474, 0.3645, 0.5343512, 0.3645, -2.9236641
0.0436765, -0.0146029, 0.37125, -0.1131592, 0.37125, -1.0001221, 0.37125, -0.114502, 0.37125, 1.4656489, 0.37125, 0.6412213, 0.37125, -2.9389312
0.0444706, -0.012253, 0.378, -0.1119385, 0.378, -1.0009155, 0.378, -0.1126709, 0.378, 1.5038168, 0.378, 0.4122137, 0.378, -2.9770992
0.0452647, -0.0112459, 0.38475, -0.1115723, 0.38475, -0.9985352, 0.38475, -0.1122437, 0.38475, 1.4503816, 0.38475, 0.4961832, 0.38475, -2.9389312
0.0460588, -0.0109102, 0.3915, -0.112915, 0.3915, -0.9992676, 0.3915, -0.1138916, 0.3915, 1.389313, 0.3915, 0.7022901, 0.3915, -2.8625953
0.0468529, -0.0139315, 0.39825, -0.1158447, 0.39825, -0.9990845, 0.39825, -0.1135864, 0.39825, 1.2900764, 0.39825, 0.8244275, 0.39825, -2.9770992
0.0476471, -0.0146029, 0.405, -0.1147461, 0.405, -1.0013428, 0.405, -0.1080322, 0.405, 1.2824427, 0.405, 0.778626, 0.405, -3.0992367
0.0484412, -0.0169528, 0.41175, -0.1159668, 0.41175, -1.0009766, 0.41175, -0.1114502, 0.41175, 1.2900764, 0.41175, 0.7175573, 0.41175, -2.7709923
0.0492353, -0.0166171, 0.4185, -0.1157227, 0.4185, -1.0031128, 0.4185, -0.1112061, 0.4185, 1.2977099, 0.4185, 0.7938932, 0.4185, -3.0229008
0.0500294, -0.0159457, 0.42525, -0.1132812, 0.42525, -1.001709, 0.42525, -0.1110229, 0.42525, 1.3435115, 0.42525, 0.9465649, 0.42525, -2.870229
0.0508235, -0.0129244, 0.432, -0.1159668, 0.432, -0.9997559, 0.432, -0.1131592, 0.432, 1.1526718, 0.432, 1.1984733, 0.432, -2.7938931
0.0516176, -0.0112459, 0.43875, -0.116272, 0.43875, -0.9990234, 0.43875, -0.1107178, 0.43875, 1.2061069, 0.43875, 1.0458015, 0.43875, -3.0763359
0.0524118, -0.0117494, 0.4455, -0.1137695, 0.4455, -1.0020142, 0.4455, -0.1098022, 0.4455, 1.2061069, 0.4455, 1.0687023, 0.4455, -2.9694657
0.0532059, -0.0149386, 0.45225, -0.1181641, 0.45225, -0.9993896, 0.45225, -0.1087036, 0.45225, 1.3435115, 0.45225, 1.1603054, 0.45225, -3.129771
0.054, -0.0105745, 0.459, -0.1182861, 0.459, -0.9994507, 0.459, -0.1113281, 0.459, 1.2977099, 0.459, 1.091603, 0.459, -2.9847329
0.0547941, -0.0109102, 0.46575, -0.1188965, 0.46575, -1.0004272, 0.46575, -0.1082153, 0.46575, 1.2061069, 0.46575, 1, 0.46575, -3.0152671
0.0555882, -0.0135958, 0.4725, -0.1182861, 0.4725, -1.0007935, 0.4725, -0.1109009, 0.4725, 1.2290076, 0.4725, 0.7938932, 0.4725, -3.2061069
0.0563824, -0.0112459, 0.47925, -0.1150513, 0.47925, -0.9981689, 0.47925, -0.1105957, 0.47925, 1.2900764, 0.47925, 0.6717557, 0.47925, -3.0534351
0.0571765, -0.0130922, 0.486, -0.1141357, 0.486, -0.998291, 0.486, -0.1087036, 0.486, 1.0534351, 0.486, 0.908397, 0.486, -3.0305343
0.0579706, -0.0109102, 0.49275, -0.1168213, 0.49275, -0.9986572, 0.49275, -0.1137085, 0.49275, 1.1755725, 0.49275, 0.9923664, 0.49275, -3.2900763
0.0587647, -0.0132601, 0.4995, -0.1184692, 0.4995, -0.9977417, 0.4995, -0.1130371, 0.4995, 1.1450381, 0.4995, 1.0229008, 0.4995, -3.4198472
0.0595588, -0.0159457, 0.50625, -0.1188354, 0.50625, -0.9996338, 0.50625, -0.1105347, 0.50625, 1.0610687, 0.50625, 0.8473282, 0.50625, -3.1526718
0.0603529, -0.0137636, 0.513, -0.119812, 0.513, -0.9954224, 0.513, -0.1130981, 0.513, 1.2366412, 0.513, 0.7251908, 0.513, -3.2137403
0.0611471, -0.0142672, 0.51975, -0.1206055, 0.51975, -0.9983521, 0.51975, -0.1165771, 0.51975, 1.2137405, 0.51975, 0.6030535, 0.51975, -3.4427481
0.0619412, -0.0129244, 0.5265, -0.1161499, 0.5265, -0.99823, 0.5265, -0.1141357, 0.5265, 1.4656489, 0.5265, 0.5267175, 0.5265, -3.259542
0.0627353, -0.0129244, 0.53325, -0.114563, 0.53325, -0.9996948, 0.53325, -0.1159058, 0.53325, 1.1450381, 0.53325, 0.6717557, 0.53325, -3.1450381
0.0635294, -0.0149386, 0.54, -0.1102905, 0.54, -1.0012817, 0.54, -0.1157227, 0.54, 1.1755725, 0.54, 0.6946565, 0.54, -3.2366412
0.0643235, -0.0167849, 0.54675, -0.1123047, 0.54675, -1.0014038, 0.54675, -0.1137695, 0.54675, 1.1221374, 0.54675, 0.5877863, 0.54675, -3.4274809
0.0651176, -0.0182956, 0.5535, -0.1122437, 0.5535, -1.0032959, 0.5535, -0.1106567, 0.5535, 1.1755725, 0.5535, 0.6030535, 0.5535, -3.259542
0.0659118, -0.0162814, 0.56025, -0.1155396, 0.56025, -1.0006104, 0.56025, -0.1141968, 0.56025, 1.2900764, 0.56025, 0.7328244, 0.56025, -3.2977099
0.0667059, -0.0171206, 0.567, -0.1130371, 0.567, -1.0008545, 0.567, -0.1123047, 0.567, 1.0152671, 0.567, 0.5267175, 0.567, -3.351145
0.0675, -0.0142672, 0.57375, -0.1121216, 0.57375, -0.9990234, 0.57375, -0.1116333, 0.57375, 1.091603, 0.57375, 0.6412213, 0.57375, -3.3816793
0.0682941, -0.0139315, 0.5805, -0.1140137, 0.5805, -0.9993286, 0.5805, -0.1120605, 0.5805, 1.1221374, 0.5805, 0.4198473, 0.5805, -3.2671757
0.0690882, -0.012253, 0.58725, -0.1162109, 0.58725, -0.9987183, 0.58725, -0.1112061, 0.58725, 1.2442749, 0.58725, 0.3129771, 0.58725, -3.3053436
0.0698824, -0.0129244, 0.594, -0.1160278, 0.594, -0.999939, 0.594, -0.112915, 0.594, 1.0763359, 0.594, 0.389313, 0.594, -3.2290077
0.0706765, -0.0149386, 0.60075, -0.1165161, 0.60075, -0.9993896, 0.60075, -0.1134033, 0.60075, 1.2442749, 0.60075, 0.3740458, 0.60075, -3.3435113
0.0714706, -0.01561, 0.6075, -0.1143188, 0.6075, -0.9990845, 0.6075, -0.1144409, 0.6075, 1.1755725, 0.6075, 0.3664122, 0.6075, -3.4274809
0.0722647, -0.0154421, 0.61425, -0.1129761, 0.61425, -0.9986572, 0.61425, -0.112854, 0.61425, 1.1679389, 0.61425, 0.3740458, 0.61425, -3.3282442
0.0730588, -0.01561, 0.621, -0.1154175, 0.621, -0.9963989, 0.621, -0.116394, 0.621, 1.0839695, 0.621, 0.4885496, 0.621, -3.3664122
0.0738529, -0.0146029, 0.62775, -0.1156616, 0.62775, -0.9970093, 0.62775, -0.1159058, 0.62775, 1.038168, 0.62775, 0.519084, 0.62775, -3.389313
0.0746471, -0.0139315, 0.6345, -0.1151123, 0.6345, -0.9995117, 0.6345, -0.1143799, 0.6345, 1.1679389, 0.6345, 0.4274809, 0.6345, -3.3435113
0.0754412, -0.01561, 0.64125, -0.119873, 0.64125, -1.0004272, 0.64125, -0.1138306, 0.64125, 1.2519084, 0.64125, 0.4427481, 0.64125, -3.4656489
0.0762353, -0.0149386, 0.648, -0.118042, 0.648, -0.9996338, 0.648, -0.1157227, 0.648, 1.1908396, 0.648, 0.1603053, 0.648, -3.480916
0.0770294, -0.0169528, 0.65475, -0.1136475, 0.65475, -1.0004272, 0.65475, -0.114624, 0.65475, 1.2366412, 0.65475, 0.0763359, 0.65475, -3.5648854
0.0778235, -0.0132601, 0.6615, -0.1144409, 0.6615, -1.0028076, 0.6615, -0.1137695, 0.6615, 1.3740458, 0.6615, 0.1755725, 0.6615, -3.3816793
0.0786176, -0.0135958, 0.66825, -0.1141357, 0.66825, -1.0020142, 0.66825, -0.1114502, 0.66825, 1.3969465, 0.66825, 0.2290076, 0.66825, -3.4045801
0.0794118, -0.0162814, 0.675, -0.1117554, 0.675, -1.0007935, 0.675, -0.1138306, 0.675, 1.2519084, 0.675, 0.5267175, 0.675, -3.3664122
0.0802059, -0.0159457, 0.68175, -0.1124268, 0.68175, -1.0004883, 0.68175, -0.1119385, 0.68175, 1.4274809, 0.68175, 0.5572519, 0.68175, -3.3969467
0.081, -0.0130922, 0.6885, -0.1135864, 0.6885, -0.9995117, 0.6885, -0.1104126, 0.6885, 1.2977099, 0.6885, 0.6564885, 0.6885, -3.3358779
0.0817941, -0.0135958, 0.69525, -0.1132812, 0.69525, -0.9995117, 0.69525, -0.1137695, 0.69525, 1.3053435, 0.69525, 0.6717557, 0.69525, -3.480916
0.0825882, -0.0159457, 0.702, -0.1088867, 0.702, -1.0007935, 0.702, -0.1104126, 0.702, 1.2442749, 0.702, 0.6564885, 0.702, -3.2977099
0.0833824, -0.0139315, 0.70875, -0.1115112, 0.70875, -0.9989014, 0.70875, -0.1108398, 0.70875, 1.3664122, 0.70875, 0.7480916, 0.70875, -3.351145
0.0841765, -0.0166171, 0.7155, -0.1119385, 0.7155, -0.9976196, 0.7155, -0.1127319, 0.7155, 1.3129771, 0.7155, 0.8167939, 0.7155, -3.4580152
0.0849706, -0.0152743, 0.72225, -0.1124268, 0.72225, -0.9976807, 0.72225, -0.1130371, 0.72225, 1.1145039, 0.72225, 0.7557252, 0.72225, -3.259542
0.0857647, -0.008896, 0.729, -0.1109619, 0.729, -1.0006104, 0.729, -0.1107788, 0.729, 1.2748091, 0.729, 0.8473282, 0.729, -3.129771
0.0865588, -0.0115816, 0.73575, -0.1125488, 0.73575, -1.0018311, 0.73575, -0.111145, 0.73575, 1.221374, 0.73575, 0.9389313, 0.73575, -3.0992367
0.0873529, -0.0154421, 0.7425, -0.1116943, 0.7425, -0.9986572, 0.7425, -0.1126709, 0.7425, 1.1832061, 0.7425, 0.9160305, 0.7425, -3.2824428
0.0881471, -0.0162814, 0.74925, -0.1160278, 0.74925, -0.9984741, 0.74925, -0.1104126, 0.74925, 1.259542, 0.74925, 0.9465649, 0.74925, -3.2442749
0.0889412, -0.01561, 0.756, -0.1125488, 0.756, -0.9967651, 0.756, -0.1138916, 0.756, 1.1221374, 0.756, 1.0305344, 0.756, -3.1679389
0.0897353, -0.0151064, 0.76275, -0.1123047, 0.76275, -1.0008545, 0.76275, -0.1103516, 0.76275, 1.0839695, 0.76275, 1.0305344, 0.76275, -3.1832061
0.0905294, -0.0142672, 0.7695, -0.1130371, 0.7695, -1.0026245, 0.7695, -0.1092529, 0.7695, 1, 0.7695, 1.1221374, 0.7695, -3.3053436
0.0913235, -0.0132601, 0.77625, -0.1118774, 0.77625, -0.9996948, 0.77625, -0.1090088, 0.77625, 0.9389313, 0.77625, 1.1450381, 0.77625, -3.0076337
0.0921176, -0.0132601, 0.783, -0.1158447, 0.783, -1.0003662, 0.783, -0.1124268, 0.783, 1.221374, 0.783, 1.0992366, 0.783, -3.1908398
0.0929118, -0.01561, 0.78975, -0.1127319, 0.78975, -0.9988403, 0.78975, -0.111145, 0.78975, 0.9160305, 0.78975, 1.2290076, 0.78975, -2.961832
0.0937059, -0.0149386, 0.7965, -0.1106567, 0.7965, -0.9996338, 0.7965, -0.1101685, 0.7965, 0.9236641, 0.7965, 1.3816794, 0.7965, -3.0610688
0.0945, -0.0152743, 0.80325, -0.1105957, 0.80325, -1.0009766, 0.80325, -0.1114502, 0.80325, 0.7480916, 0.80325, 1.2900764, 0.80325, -3.0229008
0.0952941, -0.01561, 0.81, -0.1109619, 0.81, -1.0009766, 0.81, -0.1098022, 0.81, 0.8396947, 0.81, 1.4503816, 0.81, -3.0076337
0.0960882, -0.0135958, 0.81675, -0.1112671, 0.81675, -0.9996948, 0.81675, -0.1125488, 0.81675, 1.0992366, 0.81675, 1.6564885, 0.81675, -3.0839694
0.0968824, -0.0129244, 0.8235, -0.1143799, 0.8235, -0.9985962, 0.8235, -0.1143188, 0.8235, 0.7862595, 0.8235, 1.5419847, 0.8235, -3.0763359
0.0976765, -0.0146029, 0.83025, -0.1171265, 0.83025, -0.9992065, 0.83025, -0.1156006, 0.83025, 0.9160305, 0.83025, 1.4122137, 0.83025, -2.9160306
0.0984706, -0.0164492, 0.837, -0.116333, 0.837, -0.9987793, 0.837, -0.1143799, 0.837, 0.908397, 0.837, 1.2519084, 0.837, -3.0458016
0.0992647, -0.0142672, 0.84375, -0.1171265, 0.84375, -1.0012207, 0.84375, -0.1116943, 0.84375, 0.9465649, 0.84375, 1.1450381, 0.84375, -3.0305343
0.1000588, -0.0149386, 0.8505, -0.1185913, 0.8505, -1.0009155, 0.8505, -0.1152954, 0.8505, 0.9465649, 0.8505, 1.0458015, 0.8505, -2.9465649
0.1008529, -0.0176242, 0.85725, -0.1154175, 0.85725, -0.9980469, 0.85725, -0.1135864, 0.85725, 1.0076336, 0.85725, 0.8396947, 0.85725, -2.9160306
0.1016471, -0.0117494, 0.864, -0.1164551, 0.864, -0.9989014, 0.864, -0.1129761, 0.864, 1.0152671, 0.864, 0.6793893, 0.864, -3.0687022
0.1024412, -0.0135958, 0.87075, -0.1137085, 0.87075, -0.9970703, 0.87075, -0.1125488, 0.87075, 1.0305344, 0.87075, 0.6946565, 0.87075, -3.0458016
0.1032353, -0.012253, 0.8775, -0.1105957, 0.8775, -0.9975586, 0.8775, -0.1127319, 0.8775, 1.0229008, 0.8775, 0.7862595, 0.8775, -2.8625953
0.1040294, -0.0109102, 0.88425, -0.1116943, 0.88425, -1.0006104, 0.88425, -0.1136475, 0.88425, 0.9923664, 0.88425, 1.1832061, 0.88425, -3
0.1048235, -0.011078, 0.891, -0.1115723, 0.891, -1.0012207, 0.891, -0.1131592, 0.891, 1.1221374, 0.891, 1.3282443, 0.891, -3.1984732
0.1056176, -0.012253, 0.89775, -0.1132812, 0.89775, -1.0010986, 0.89775, -0.1125488, 0.89775, 1.0610687, 0.89775, 1.4122137, 0.89775, -3
0.1064118, -0.012253, 0.9045, -0.1167603, 0.9045, -1.0002441, 0.9045, -0.1151733, 0.9045, 1.1908396, 0.9045, 1.3053435, 0.9045, -3.1068702
0.1072059, -0.0139315, 0.91125, -0.1182861, 0.91125, -0.9991455, 0.91125, -0.1172485, 0.91125, 1.091603, 0.91125, 1.0076336, 0.91125, -3.0152671
0.108, -0.0102388, 0.918, -0.1203003, 0.918, -0.9985962, 0.918, -0.1165771, 0.918, 1.038168, 0.918, 0.7251908, 0.918, -3.0534351
0.1087941, -0.012253, 0.92475, -0.1170044, 0.92475, -0.9974365, 0.92475, -0.1192017, 0.92475, 1.0763359, 0.92475, 0.6870229, 0.92475, -3.0305343
0.1095882, -0.0115816, 0.9315, -0.1175537, 0.9315, -1.0029907, 0.9315, -0.1173706, 0.9315, 1.091603, 0.9315, 0.648855, 0.9315, -3.0992367
0.1103824, -0.0124208, 0.93825, -0.1154785, 0.93825, -1.00354, 0.93825, -0.1159058, 0.93825, 1.1145039, 0.93825, 0.4656489, 0.93825, -3.1908398
0.1111765, -0.01561, 0.945, -0.1165161, 0.945, -1.0048828, 0.945, -0.1140137, 0.945, 1.1221374, 0.945, 0.480916, 0.945, -3.1374047
0.1119706, -0.0142672, 0.95175, -0.1123657, 0.95175, -1.0031738, 0.95175, -0.1132202, 0.95175, 1.0229008, 0.95175, 0.6183206, 0.95175, -3.1068702
0.1127647, -0.014435, 0.9585, -0.1122437, 0.9585, -0.9985962, 0.9585, -0.1105347, 0.9585, 1.1832061, 0.9585, 0.7633588, 0.9585, -3.1068702
0.1135588, -0.01561, 0.96525, -0.1118164, 0.96525, -0.9963379, 0.96525, -0.1091919, 0.96525, 1.0076336, 0.96525, 1.1908396, 0.96525, -3.1221373
0.1143529, -0.0166171, 0.972, -0.1105347, 0.972, -1.001709, 0.972, -0.1119995, 0.972, 1.0839695, 0.972, 1.2671756, 0.972, -3.0152671
0.1151471, -0.0135958, 0.97875, -0.1159668, 0.97875, -1.0001221, 0.97875, -0.1109619, 0.97875, 1.2977099, 0.97875, 1.4580153, 0.97875, -3.038168
0.1159412, -0.0129244, 0.9855, -0.1159058, 0.9855, -0.9976807, 0.9855, -0.1104126, 0.9855, 1.1984733, 0.9855, 1.3664122, 0.9855, -2.9389312
0.1167353, -0.0139315, 0.99225, -0.1124268, 0.99225, -0.9978027, 0.99225, -0.114502, 0.99225, 1.038168, 0.99225, 1.2671756, 0.99225, -3.1603053
0.1175294, -0.0179599, 0.999, -0.1122437, 0.999, -0.9979858, 0.999, -0.1118164, 0.999, 1.2442749, 0.999, 1.0229008, 0.999, -3.0458016
0.1183235, -0.0152743, 1.00575, -0.1118774, 1.00575, -0.9997559, 1.00575, -0.1171265, 1.00575, 1.1068702, 1.00575, 0.9847328, 1.00575, -3.0839694
0.1191176, -0.0152743, 1.0125, -0.1135864, 1.0125, -1.0010376, 1.0125, -0.1155396, 1.0125, 1.221374, 1.0125, 0.9389313, 1.0125, -2.9160306
0.1199118, -0.0152743, 1.01925, -0.1141968, 1.01925, -1.0018311, 1.01925, -0.1153564, 1.01925, 1.1908396, 1.01925, 1, 1.01925, -2.961832
0.1207059, -0.0162814, 1.026, -0.1160889, 1.026, -1.0005493, 1.026, -0.1191406, 1.026, 0.961832, 1.026, 1.0687023, 1.026, -2.9847329
0.1215, -0.0132601, 1.03275, -0.1174316, 1.03275, -1.0003052, 1.03275, -0.118042, 1.03275, 1.0076336, 1.03275, 0.8854962, 1.03275, -2.8549619
0.1222941, -0.0117494, 1.0395, -0.1190186, 1.0395, -1.0010986, 1.0395, -0.1126709, 1.0395, 1.0992366, 1.0395, 0.7557252, 1.0395, -2.9236641
0.1230882, -0.0117494, 1.04625, -0.1169434, 1.04625, -1.003418, 1.04625, -0.1148682, 1.04625, 1.1755725, 1.04625, 0.7175573, 1.04625, -2.9312978
0.1238824, -0.0135958, 1.053, -0.1168823, 1.053, -1.0012817, 1.053, -0.114502, 1.053, 1.1526718, 1.053, 0.9694657, 1.053, -3.038168
0.1246765, -0.0166171, 1.05975, -0.1168213, 1.05975, -1.0010376, 1.05975, -0.1130981, 1.05975, 1.129771, 1.05975, 0.961832, 1.05975, -2.9541984
0.1254706, -0.0135958, 1.0665, -0.1107178, 1.0665, -1.0006714, 1.0665, -0.1137695, 1.0665, 1.1679389, 1.0665, 1.0229008, 1.0665, -2.9236641
0.1262647, -0.0129244, 1.07325, -0.1148682, 1.07325, -0.9990845, 1.07325, -0.1142578, 1.07325, 1.1221374, 1.07325, 0.961832, 1.07325, -3.0458016
0.1270588, -0.0203098, 1.08, -0.1141968, 1.08, -1.0009155, 1.08, -0.1148071, 1.08, 1.1984733, 1.08, 1.0992366, 1.08, -3.0839694
0.1278529, -0.0226596, 1.08675, -0.1146851, 1.08675, -0.9977417, 1.08675, -0.1161499, 1.08675, 1.1221374, 1.08675, 0.9007633, 1.08675, -3.0610688
0.1286471, -0.0176242, 1.0935, -0.1170044, 1.0935, -1.0008545, 1.0935, -0.1203003, 1.0935, 1.0687023, 1.0935, 0.7175573, 1.0935, -3.0839694
0.1294412, -0.0182956, 1.10025, -0.1138306, 1.10025, -1.0039062, 1.10025, -0.1176147, 1.10025, 1.1984733, 1.10025, 0.5114504, 1.10025, -3.0763359
0.1302353, -0.0169528, 1.107, -0.1142578, 1.107, -1.0032349, 1.107, -0.1186523, 1.107, 1.1679389, 1.107, 0.4122137, 1.107, -3
0.1310294, -0.0176242, 1.11375, -0.1108398, 1.11375, -0.9986572, 1.11375, -0.1176758, 1.11375, 1.2366412, 1.11375, 0.6717557, 1.11375, -2.870229
0.1318235, -0.0176242, 1.1205, -0.1130371, 1.1205, -0.9987183, 1.1205, -0.1126099, 1.1205, 1.1603054, 1.1205, 0.5496183, 1.1205, -2.908397
0.1326176, -0.017792, 1.12725, -0.1107788, 1.12725, -0.9958496, 1.12725, -0.1124878, 1.12725, 1.1832061, 1.12725, 0.8167939, 1.12725, -2.9694657
0.1334118, -0.0186313, 1.134, -0.1130981, 1.134, -0.9974976, 1.134, -0.1132812, 1.134, 1.0992366, 1.134, 0.8015267, 1.134, -2.9541984
0.1342059, -0.0179599, 1.14075, -0.1151123, 1.14075, -0.9989624, 1.14075, -0.1115723, 1.14075, 1.0839695, 1.14075, 1.0992366, 1.14075, -2.9541984
0.135, -0.0152743, 1.1475, -0.1170044, 1.1475, -0.9987183, 1.1475, -0.1170654, 1.1475, 1.1374046, 1.1475, 1.0534351, 1.1475, -2.7862597
0.1357941, -0.0172885, 1.15425, -0.1185913, 1.15425, -1.0011597, 1.15425, -0.1157837, 1.15425, 1.1603054, 1.15425, 1.1755725, 1.15425, -3.0839694
0.1365882, -0.0159457, 1.161, -0.1176147, 1.161, -0.9993896, 1.161, -0.1182251, 1.161, 1.0534351, 1.161, 0.7938932, 1.161, -2.908397
0.1373824, -0.0142672, 1.16775, -0.1195068, 1.16775, -1.0026855, 1.16775, -0.117981, 1.16775, 1.1374046, 1.16775, 0.7175573, 1.16775, -2.7480917
0.1381765, -0.014435, 1.1745, -0.1185913, 1.1745, -1.0021362, 1.1745, -0.1161499, 1.1745, 1.1374046, 1.1745, 0.6564885, 1.1745, -2.961832
0.1389706, -0.011078, 1.18125, -0.1170044, 1.18125, -1.0010986, 1.18125, -0.1155396, 1.18125, 1.1450381, 1.18125, 0.6870229, 1.18125, -3.038168
0.1397647, -0.0099031, 1.188, -0.1165161, 1.188, -0.9992065, 1.188, -0.1188354, 1.188, 1.3358779, 1.188, 0.7557252, 1.188, -2.9236641
0.1405588, -0.0142672, 1.19475, -0.1141968, 1.19475, -1.0009766, 1.19475, -0.1166382, 1.19475, 1.2671756, 1.19475, 0.7328244, 1.19475, -2.7862597
0.1413529, -0.0151064, 1.2015, -0.1143188, 1.2015, -0.9959717, 1.2015, -0.1148682, 1.2015, 1.2519084, 1.2015, 0.8396947, 1.2015, -3.0076337
0.1421471, -0.0137636, 1.20825, -0.1131592, 1.20825, -0.9995728, 1.20825, -0.1153564, 1.20825, 1.3206106, 1.20825, 0.7633588, 1.20825, -3.038168
0.1429412, -0.0151064, 1.215, -0.1149292, 1.215, -0.9997559, 1.215, -0.1147461, 1.215, 1.4045801, 1.215, 0.7938932, 1.215, -3.0458016
0.1437353, -0.012253, 1.22175, -0.1170654, 1.22175, -1.0015259, 1.22175, -0.1181641, 1.22175, 1.3664122, 1.22175, 0.740458, 1.22175, -3.2137403
0.1445294, -0.0112459, 1.2285, -0.1179199, 1.2285, -1.0006104, 1.2285, -0.1189575, 1.2285, 1.5648855, 1.2285, 0.6793893, 1.2285, -2.9312978
0.1453235, -0.0120851, 1.23525, -0.1172485, 1.23525, -0.9973145, 1.23525, -0.1165771, 1.23525, 1.5267175, 1.23525, 0.4885496, 1.23525, -3.0076337
0.1461176, -0.0117494, 1.242, -0.1176147, 1.242, -0.9980469, 1.242, -0.1184082, 1.242, 1.5648855, 1.242, 0.3969466, 1.242, -3.0229008
0.1469118, -0.0124208, 1.24875, -0.1152344, 1.24875, -0.998291, 1.24875, -0.1132812, 1.24875, 1.4274809, 1.24875, 0.1374046, 1.24875, -3.1221373
0.1477059, -0.012253, 1.2555, -0.1158447, 1.2555, -0.9979858, 1.2555, -0.1117554, 1.2555, 1.4274809, 1.2555, 0.2519084, 1.2555, -3.2519083
0.1485, -0.012253, 1.26225, -0.1123657, 1.26225, -0.9969482, 1.26225, -0.114624, 1.26225, 1.3129771, 1.26225, 0.4427481, 1.26225, -3.2061069
0.1492941, -0.0109102, 1.269, -0.1126099, 1.269, -0.9963989, 1.269, -0.1125488, 1.269, 1.5267175, 1.269, 0.610687, 1.269, -3.0229008
0.1500882, -0.0117494, 1.27575, -0.1110229, 1.27575, -1.0001831, 1.27575, -0.1134033, 1.27575, 1.4045801, 1.27575, 0.8931298, 1.27575, -3.0763359
0.1508824, -0.0109102, 1.2825, -0.1174316, 1.2825, -1.0004272, 1.2825, -0.1130981, 1.2825, 1.5038168, 1.2825, 0.9465649, 1.2825, -2.9312978
0.1516765, -0.0125887, 1.28925, -0.1152954, 1.28925, -0.999939, 1.28925, -0.1107788, 1.28925, 1.3816794, 1.28925, 0.9770992, 1.28925, -2.778626
0.1524706, -0.0117494, 1.296, -0.1162109, 1.296, -1.0018921, 1.296, -0.114563, 1.296, 1.519084, 1.296, 0.9007633, 1.296, -3.0763359
0.1532647, -0.0105745, 1.30275, -0.116272, 1.30275, -1.0001221, 1.30275, -0.1121216, 1.30275, 1.480916, 1.30275, 0.7328244, 1.30275, -3.1068702
0.1540588, -0.0125887, 1.3095, -0.1159058, 1.3095, -0.9978027, 1.3095, -0.1131592, 1.3095, 1.4122137, 1.3095, 0.5954198, 1.3095, -3.091603
0.1548529, -0.0132601, 1.31625, -0.116272, 1.31625, -0.9986572, 1.31625, -0.111084, 1.31625, 1.3358779, 1.31625, 0.4503817, 1.31625, -3.1221373
0.1556471, -0.012253, 1.323, -0.1134644, 1.323, -0.9992676, 1.323, -0.1122437, 1.323, 1.4045801, 1.323, 0.4351145, 1.323, -3.038168
0.1564412, -0.012253, 1.32975, -0.1167603, 1.32975, -0.9998169, 1.32975, -0.1132812, 1.32975, 1.4961832, 1.32975, 0.4274809, 1.32975, -3.1526718
0.1572353, -0.0135958, 1.3365, -0.1196289, 1.3365, -0.9992065, 1.3365, -0.1152954, 1.3365, 1.5801526, 1.3365, 0.2748092, 1.3365, -3.1068702
0.1580294, -0.01561, 1.34325, -0.1187134, 1.34325, -0.9988403, 1.34325, -0.1184082, 1.34325, 1.4961832, 1.34325, 0.2824427, 1.34325, -3.2137403
0.1588235, -0.0112459, 1.35, -0.1187134, 1.35, -1.0005493, 1.35, -0.1151123, 1.35, 1.4732825, 1.35, 0.1908397, 1.35, -3.1755726
0.1596176, -0.008896, 1.35675, -0.1159668, 1.35675, -0.9992676, 1.35675, -0.112793, 1.35675, 1.4045801, 1.35675, 0.389313, 1.35675, -3.1603053
0.1604118, -0.0142672, 1.3635, -0.1184692, 1.3635, -0.9954224, 1.3635, -0.1137695, 1.3635, 1.4885496, 1.3635, 0.5114504, 1.3635, -3.1068702
0.1612059, -0.012253, 1.37025, -0.1172485, 1.37025, -0.9985352, 1.37025, -0.1118164, 1.37025, 1.4656489, 1.37025, 0.3358779, 1.37025, -3.2748091
0.162, -0.0119173, 1.377, -0.1140747, 1.377, -1.005188, 1.377, -0.1105347, 1.377, 1.5954199, 1.377, 0.0763359, 1.377, -3.4351146
0.1627941, -0.0130922, 1.38375, -0.1209106, 1.38375, -1.0020142, 1.38375, -0.1052856, 1.38375, 1.5648855, 1.38375, 0.0381679, 1.38375, -3.6793892
0.1635882, -0.0142672, 1.3905, -0.1165771, 1.3905, -1.0019531, 1.3905, -0.1048584, 1.3905, 1.5496184, 1.3905, -0.2519084, 1.3905, -3.519084
0.1643824, -0.01561, 1.39725, -0.1060791, 1.39725, -1.0029907, 1.39725, -0.1063232, 1.39725, 1.6183206, 1.39725, -0.0687023, 1.39725, -3.6030533
0.1651765, -0.0203098, 1.404, -0.1014404, 1.404, -1.0050049, 1.404, -0.0999756, 1.404, 1.6259542, 1.404, 0.4122137, 1.404, -3.740458
0.1659706, -0.0196384, 1.41075, -0.1012573, 1.41075, -1.0021362, 1.41075, -0.1015015, 1.41075, 1.6793894, 1.41075, 1.480916, 1.41075, -3.4122138
0.1667647, -0.0179599, 1.4175, -0.1090698, 1.4175, -0.9993896, 1.4175, -0.1044922, 1.4175, 1.5114504, 1.4175, 2.870229, 1.4175, -3.2748091
0.1675588, -0.0184634, 1.42425, -0.1206055, 1.42425, -0.9993896, 1.42425, -0.1069336, 1.42425, 1.5343511, 1.42425, 3.3053436, 1.42425, -3.2366412
0.1683529, -0.0196384, 1.431, -0.1271973, 1.431, -0.9974976, 1.431, -0.1172485, 1.431, 1.480916, 1.431, 2.9923663, 1.431, -3.2137403
0.1691471, -0.0149386, 1.43775, -0.1337891, 1.43775, -1.0004272, 1.43775, -0.1177979, 1.43775, 1.3587786, 1.43775, 1.2061069, 1.43775, -3.2977099
0.1699412, -0.012253, 1.4445, -0.12323, 1.4445, -1.0018311, 1.4445, -0.1030884, 1.4445, 1.4122137, 1.4445, -0.1450382, 1.4445, -3.5877862
0.1707353, -0.0129244, 1.45125, -0.1098633, 1.45125, -1.0025635, 1.45125, -0.1110229, 1.45125, 1.7022901, 1.45125, -0.1755725, 1.45125, -3.6870229
0.1715294, -0.0162814, 1.458, -0.1044312, 1.458, -0.9985962, 1.458, -0.1183472, 1.458, 1.8091604, 1.458, 0.5877863, 1.458, -3.5267177
0.1723235, -0.01561, 1.46475, -0.1033325, 1.46475, -0.991394, 1.46475, -0.1132202, 1.46475, 1.5343511, 1.46475, 1.6030535, 1.46475, -3.2977099
0.1731176, -0.0172885, 1.4715, -0.1115112, 1.4715, -0.9970703, 1.4715, -0.1129761, 1.4715, 1.5343511, 1.4715, 2.3358779, 1.4715, -3.0152671
0.1739118, -0.0164492, 1.47825, -0.1159668, 1.47825, -1.0002441, 1.47825, -0.117981, 1.47825, 1.6946565, 1.47825, 2.4198472, 1.47825, -3.2824428
0.1747059, -0.0162814, 1.485, -0.1159058, 1.485, -1.0002441, 1.485, -0.1164551, 1.485, 1.8549619, 1.485, 1.9847329, 1.485, -3.351145
0.1755, -0.0146029, 1.49175, -0.1102295, 1.49175, -0.9979858, 1.49175, -0.1099243, 1.49175, 1.778626, 1.49175, 1.6030535, 1.49175, -3.389313
0.1762941, -0.0149386, 1.4985, -0.1022949, 1.4985, -0.9979248, 1.4985, -0.1100464, 1.4985, 1.8931298, 1.4985, 1.8396946, 1.4985, -3.3664122
0.1770882, -0.0132601, 1.50525, -0.104187, 1.50525, -1.0010376, 1.50525, -0.1193848, 1.50525, 1.908397, 1.50525, 2.2824428, 1.50525, -3.4885497
0.1778824, -0.0149386, 1.512, -0.1003418, 1.512, -1.0024414, 1.512, -0.1026001, 1.512, 1.9312977, 1.512, 2.3206108, 1.512, -3.259542
0.1786765, -0.0159457, 1.51875, -0.0982666, 1.51875, -1.0018311, 1.51875, -0.0985107, 1.51875, 2.5114503, 1.51875, 3.4045801, 1.51875, -3.4351146
0.1794706, -0.0159457, 1.5255, -0.105835, 1.5255, -0.9936523, 1.5255, -0.1153564, 1.5255, 2.3435113, 1.5255, 4.2977099, 1.5255, -3.2748091
0.1802647, -0.0129244, 1.53225, -0.1184082, 1.53225, -0.9938354, 1.53225, -0.1186523, 1.53225, 1.908397, 1.53225, 4.8702292, 1.53225, -3.2824428
0.1810588, -0.0125887, 1.539, -0.1257935, 1.539, -0.9960327, 1.539, -0.1203003, 1.539, 1.870229, 1.539, 4.6946564, 1.539, -3.0763359
0.1818529, -0.0149386, 1.54575, -0.1265259, 1.54575, -1.0007935, 1.54575, -0.1199341, 1.54575, 2.0687022, 1.54575, 3.9923663, 1.54575, -3.0992367
0.1826471, -0.012253, 1.5525, -0.1256714, 1.5525, -1.001709, 1.5525, -0.1255493, 1.5525, 2.0534351, 1.5525, 3.5877862, 1.5525, -3.3740458
0.1834412, -0.0146029, 1.55925, -0.1210938, 1.55925, -1.0039673, 1.55925, -0.1304321, 1.55925, 2.0305343, 1.55925, 3.2442749, 1.55925, -3.5496182
0.1842353, -0.0152743, 1.566, -0.1173096, 1.566, -1.0014038, 1.566, -0.1343384, 1.566, 2.3053436, 1.566, 3.1755726, 1.566, -3.6870229
0.1850294, -0.0169528, 1.57275, -0.1217041, 1.57275, -1.0024414, 1.57275, -0.1326904, 1.57275, 2.4580152, 1.57275, 3.1374047, 1.57275, -3.5877862
0.1858235, -0.0176242, 1.5795, -0.1233521, 1.5795, -1.0039062, 1.5795, -0.1329346, 1.5795, 2.5725191, 1.5795, 3.2519083, 1.5795, -3.8320611
0.1866176, -0.0164492, 1.58625, -0.1278687, 1.58625, -1.0085449, 1.58625, -0.1304932, 1.58625, 2.8167939, 1.58625, 2.8396947, 1.58625, -4.0839696
0.1874118, -0.0146029, 1.593, -0.1317139, 1.593, -1.005127, 1.593, -0.1313477, 1.593, 3.0992367, 1.593, 2.4503818, 1.593, -4.4427481
0.1882059, -0.0169528, 1.59975, -0.1293335, 1.59975, -1.0078735, 1.59975, -0.1326904, 1.59975, 3.7557251, 1.59975, 2.5038168, 1.59975, -4.6717558
0.189, -0.0162814, 1.6065, -0.130249, 1.6065, -1.0083618, 1.6065, -0.1340942, 1.6065, 4.0687022, 1.6065, 2.6259542, 1.6065, -4.7099237
0.1897941, -0.0166171, 1.61325, -0.1365356, 1.61325, -1.0065308, 1.61325, -0.1352539, 1.61325, 4.2366414, 1.61325, 3.2290077, 1.61325, -4.961832
0.1905882, -0.0142672, 1.62, -0.1431274, 1.62, -1.0023804, 1.62, -0.1340942, 1.62, 4.3969464, 1.62, 3.038168, 1.62, -5.1374044
0.1913824, -0.014435, 1.62675, -0.1414795, 1.62675, -1.0072021, 1.62675, -0.1234741, 1.62675, 4.6793895, 1.62675, 2.4961832, 1.62675, -5.3282442
0.1921765, -0.0164492, 1.6335, -0.1400146, 1.6335, -1.0025635, 1.6335, -0.1352539, 1.6335, 5.0687022, 1.6335, 2.8091602, 1.6335, -5.3053436
0.1929706, -0.0169528, 1.64025, -0.1372681, 1.64025, -1.0003052, 1.64025, -0.1368408, 1.64025, 5.3053436, 1.64025, 2.4045801, 1.64025, -5.5114503
0.1937647, -0.0166171, 1.647, -0.1322021, 1.647, -1.0016479, 1.647, -0.1318359, 1.647, 5.5496182, 1.647, 2.1908398, 1.647, -5.6335878
0.1945588, -0.0149386, 1.65375, -0.1202393, 1.65375, -1.0002441, 1.65375, -0.1268311, 1.65375, 5.9541984, 1.65375, 1.908397, 1.65375, -5.8244276
0.1953529, -0.0157778, 1.6605, -0.1170044, 1.6605, -0.9991455, 1.6605, -0.1251831, 1.6605, 6.3282442, 1.6605, 2.259542, 1.6605, -5.9007635
0.1961471, -0.0124208, 1.66725, -0.1148682, 1.66725, -1.0004272, 1.66725, -0.1210938, 1.66725, 6.3282442, 1.66725, 2.5267177, 1.66725, -6.0916033
0.1969412, -0.012253, 1.674, -0.1108398, 1.674, -0.9979858, 1.674, -0.1167603, 1.674, 6.4885497, 1.674, 2.5419848, 1.674, -6.2900763
0.1977353, -0.012253, 1.68075, -0.1102295, 1.68075, -0.9971313, 1.68075, -0.1115723, 1.68075, 6.3893127, 1.68075, 2.2290077, 1.68075, -6.4198475
0.1985294, -0.011078, 1.6875, -0.1080933, 1.6875, -0.9995728, 1.6875, -0.1100464, 1.6875, 6.4427481, 1.6875, 1.9847329, 1.6875, -6.3435116
0.1993235, -0.0124208, 1.69425, -0.1079712, 1.69425, -0.999939, 1.69425, -0.1036987, 1.69425, 6.5954199, 1.69425, 1.9923664, 1.69425, -6.5114503
0.2001176, -0.012253, 1.701, -0.1063232, 1.701, -0.9973145, 1.701, -0.1020508, 1.701, 6.3664122, 1.701, 2.3664122, 1.701, -6.4045801
0.2009118, -0.0125887, 1.70775, -0.1033936, 1.70775, -0.9937744, 1.70775, -0.0930786, 1.70775, 6.4580154, 1.70775, 2.4351146, 1.70775, -6.4351144
0.2017059, -0.0135958, 1.7145, -0.1009521, 1.7145, -0.9959717, 1.7145, -0.0927734, 1.7145, 6.1679387, 1.7145, 2.4503818, 1.7145, -6.1145039
0.2025, -0.0077211, 1.72125, -0.0971069, 1.72125, -0.9972534, 1.72125, -0.0925293, 1.72125, 6.1374044, 1.72125, 2.8625953, 1.72125, -5.9389315
0.2032941, -0.0072175, 1.728, -0.0926514, 1.728, -1.0042725, 1.728, -0.0883789, 1.728, 6.0229006, 1.728, 3.4198472, 1.728, -6.1603055
0.2040882, -0.008896, 1.73475, -0.0956421, 1.73475, -1.0068359, 1.73475, -0.0938721, 1.73475, 6.2061067, 1.73475, 4.4274807, 1.73475, -6.0839696
0.2048824, -0.0072175, 1.7415, -0.1019287, 1.7415, -1.0040283, 1.7415, -0.0953979, 1.7415, 6.3206105, 1.7415, 5.0305343, 1.7415, -6.0610685
0.2056765, -0.008896, 1.74825, -0.1116943, 1.74825, -1.0048828, 1.74825, -0.1038818, 1.74825, 5.7709923, 1.74825, 4.8778625, 1.74825, -5.9770994
0.2064706, -0.0105745, 1.755, -0.1187744, 1.755, -1.005188, 1.755, -0.098999, 1.755, 5.7480917, 1.755, 4.2824426, 1.755, -6.1526718
0.2072647, -0.0109102, 1.76175, -0.1157837, 1.76175, -1.0067139, 1.76175, -0.0960693, 1.76175, 5.8854961, 1.76175, 3.6412213, 1.76175, -6.0839696
0.2080588, -0.0109102, 1.7685, -0.1123047, 1.7685, -1.0045166, 1.7685, -0.0994263, 1.7685, 5.9160304, 1.7685, 3.4045801, 1.7685, -6.1526718
0.2088529, -0.0135958, 1.77525, -0.104187, 1.77525, -1.005127, 1.77525, -0.1005249, 1.77525, 5.8549619, 1.77525, 3, 1.77525, -5.9847326
0.2096471, -0.0142672, 1.782, -0.098938, 1.782, -1.0062866, 1.782, -0.0930176, 1.782, 5.8702292, 1.782, 3.1450381, 1.782, -6.0839696
0.2104412, -0.0152743, 1.78875, -0.0933838, 1.78875, -1.0044556, 1.78875, -0.0912476, 1.78875, 5.9083967, 1.78875, 3.2748091, 1.78875, -5.9541984
0.2112353, -0.0172885, 1.7955, -0.0924072, 1.7955, -1.0028076, 1.7955, -0.0918579, 1.7955, 5.8702292, 1.7955, 3.610687, 1.7955, -5.8625956
0.2120294, -0.0182956, 1.80225, -0.0899048, 1.80225, -1.0062256, 1.80225, -0.0936279, 1.80225, 5.8854961, 1.80225, 4.1221375, 1.80225, -5.7938933
0.2128235, -0.0139315, 1.809, -0.0888062, 1.809, -1.0045166, 1.809, -0.0874634, 1.809, 5.8396945, 1.809, 4.3664122, 1.809, -5.6030536
0.2136176, -0.0129244, 1.81575, -0.0894775, 1.81575, -1.0049438, 1.81575, -0.083313, 1.81575, 5.8396945, 1.81575, 4.778626, 1.81575, -5.4961834
0.2144118, -0.0149386, 1.8225, -0.0873413, 1.8225, -1.0025024, 1.8225, -0.0911865, 1.8225, 5.8625956, 1.8225, 4.7480917, 1.8225, -5.5877862
0.2152059, -0.0164492, 1.82925, -0.088623, 1.82925, -1.0009155, 1.82925, -0.0842285, 1.82925, 5.7022901, 1.82925, 5.221374, 1.82925, -5.2977099
0.216, -0.0129244, 1.836, -0.0830688, 1.836, -0.9983521, 1.836, -0.0865479, 1.836, 5.8091602, 1.836, 5.5648856, 1.836, -5
0.2167941, -0.0135958, 1.84275, -0.0831909, 1.84275, -1.0030518, 1.84275, -0.0899658, 1.84275, 5.6412215, 1.84275, 6.0839696, 1.84275, -4.8702292
0.2175882, -0.0162814, 1.8495, -0.0877075, 1.8495, -1.0055542, 1.8495, -0.0932007, 1.8495, 5.7251906, 1.8495, 6.7099237, 1.8495, -4.7938933
0.2183824, -0.0139315, 1.85625, -0.0930786, 1.85625, -1.0078735, 1.85625, -0.0922852, 1.85625, 5.480916, 1.85625, 7.1526718, 1.85625, -4.6870227
0.2191765, -0.0182956, 1.863, -0.0967407, 1.863, -1.0058594, 1.863, -0.0976562, 1.863, 5.4274807, 1.863, 7.1679387, 1.863, -4.6030536
0.2199706, -0.0166171, 1.86975, -0.1032715, 1.86975, -1.0075073, 1.86975, -0.0993652, 1.86975, 5.4961834, 1.86975, 7.0992365, 1.86975, -4.4427481
0.2207647, -0.014435, 1.8765, -0.1067505, 1.8765, -1.0118408, 1.8765, -0.0984497, 1.8765, 5.4351144, 1.8765, 6.5114503, 1.8765, -4.519084
0.2215588, -0.0139315, 1.88325, -0.1052246, 1.88325, -1.0092773, 1.88325, -0.0990601, 1.88325, 5.4427481, 1.88325, 6.0992365, 1.88325, -4.3129773
0.2223529, -0.0149386, 1.89, -0.0990601, 1.89, -1.010498, 1.89, -0.0935059, 1.89, 5.6412215, 1.89, 5.3358779, 1.89, -4.3740458
0.2231471, -0.0159457, 1.89675, -0.097168, 1.89675, -1.0102539, 1.89675, -0.0905762, 1.89675, 5.8015265, 1.89675, 5.1297708, 1.89675, -4.4351144
0.2239412, -0.0157778, 1.9035, -0.0980835, 1.9035, -1.00354, 1.9035, -0.0926514, 1.9035, 5.6946564, 1.9035, 5.4122138, 1.9035, -4.4045801
0.2247353, -0.0146029, 1.91025, -0.1004639, 1.91025, -1.0015869, 1.91025, -0.0961304, 1.91025, 5.6183205, 1.91025, 5.6335878, 1.91025, -4.0610685
0.2255294, -0.0169528, 1.917, -0.1036987, 1.917, -1.001709, 1.917, -0.0956421, 1.917, 5.8015265, 1.917, 5.5648856, 1.917, -3.8931298
0.2263235, -0.0169528, 1.92375, -0.1101685, 1.92375, -1.0009766, 1.92375, -0.0950928, 1.92375, 5.6564884, 1.92375, 5.3358779, 1.92375, -3.7251909
0.2271176, -0.0149386, 1.9305, -0.1116943, 1.9305, -1.0008545, 1.9305, -0.097168, 1.9305, 5.6793895, 1.9305, 4.7022901, 1.9305, -3.8244274
0.2279118, -0.0159457, 1.93725, -0.1053467, 1.93725, -1.0018311, 1.93725, -0.0933228, 1.93725, 5.8396945, 1.93725, 3.8167939, 1.93725, -3.6641221
0.2287059, -0.0164492, 1.944, -0.1016846, 1.944, -0.9993286, 1.944, -0.0878906, 1.944, 5.7862597, 1.944, 3.4503818, 1.944, -3.7633588
0.2295, -0.0142672, 1.95075, -0.0990601, 1.95075, -0.9998169, 1.95075, -0.0950317, 1.95075, 6.0763359, 1.95075, 3.1984732, 1.95075, -3.6183207
0.2302941, -0.01561, 1.9575, -0.0934448, 1.9575, -1.000061, 1.9575, -0.090332, 1.9575, 5.7328243, 1.9575, 3.0305343, 1.9575, -3.6946564
0.2310882, -0.0184634, 1.96425, -0.0917358, 1.96425, -0.9993286, 1.96425, -0.0905762, 1.96425, 6.0839696, 1.96425, 3.1755726, 1.96425, -3.5801528
0.2318824, -0.0162814, 1.971, -0.0856323, 1.971, -1.0001831, 1.971, -0.0869751, 1.971, 6.0305343, 1.971, 3.4045801, 1.971, -3.3740458
0.2326765, -0.014435, 1.97775, -0.0879517, 1.97775, -0.9994507, 1.97775, -0.0853882, 1.97775, 5.8244276, 1.97775, 3.7328243, 1.97775, -3.2290077
0.2334706, -0.0135958, 1.9845, -0.0876465, 1.9845, -1.0004883, 1.9845, -0.0791626, 1.9845, 5.7175574, 1.9845, 3.7480917, 1.9845, -3.0610688
0.2342647, -0.0119173, 1.99125, -0.0834351, 1.99125, -1.0013428, 1.99125, -0.0697632, 1.99125, 5.8244276, 1.99125, 3.5877862, 1.99125, -2.8473282
0.2350588, -0.0135958, 1.998, -0.0839844, 1.998, -1.0020142, 1.998, -0.0772705, 1.998, 5.6564884, 1.998, 4.2671757, 1.998, -2.8244274
0.2358529, -0.0152743, 2.00475, -0.0897827, 2.00475, -1.0021362, 2.00475, -0.0810547, 2.00475, 5.4885497, 2.00475, 4.2748094, 2.00475, -2.6793892
0.2366471, -0.0151064, 2.0115, -0.0949707, 2.0115, -1.0029907, 2.0115, -0.0811157, 2.0115, 5.2061067, 2.0115, 4.5038166, 2.0115, -2.389313
0.2374412, -0.0135958, 2.01825, -0.100708, 2.01825, -1.007019, 2.01825, -0.0762939, 2.01825, 5.1679387, 2.01825, 3.7480917, 2.01825, -2.4580152
0.2382353, -0.0149386, 2.025, -0.0999146, 2.025, -1.0068359, 2.025, -0.0754395, 2.025, 5.1603055, 2.025, 3.480916, 2.025, -2.4961832
0.2390294, -0.0176242, 2.03175, -0.0960083, 2.03175, -1.0062866, 2.03175, -0.0761108, 2.03175, 5.2366414, 2.03175, 3.259542, 2.03175, -2.2748091
0.2398235, -0.0142672, 2.0385, -0.0916138, 2.0385, -1.0028687, 2.0385, -0.069397, 2.0385, 4.9847326, 2.0385, 2.7633588, 2.0385, -2.3358779
0.2406176, -0.0112459, 2.04525, -0.0888062, 2.04525, -1.0067749, 2.04525, -0.0656738, 2.04525, 4.961832, 2.04525, 2.9312978, 2.04525, -2.091603
0.2414118, -0.0125887, 2.052, -0.0830078, 2.052, -1.0064087, 2.052, -0.0612793, 2.052, 4.6641221, 2.052, 3.2442749, 2.052, -2.1679389
0.2422059, -0.0125887, 2.05875, -0.0910645, 2.05875, -1.0013428, 2.05875, -0.0610962, 2.05875, 4.6259542, 2.05875, 3.351145, 2.05875, -1.9923664
0.243, -0.0115816, 2.0655, -0.0956421, 2.0655, -0.9969482, 2.0655, -0.0619507, 2.0655, 4.5877862, 2.0655, 3.7862597, 2.0655, -1.8931298
0.2437941, -0.0097353, 2.07225, -0.0973511, 2.07225, -0.9956055, 2.07225, -0.0673828, 2.07225, 4.1832061, 2.07225, 3.4732823, 2.07225, -1.740458
0.2445882, -0.0097353, 2.079, -0.0980225, 2.079, -0.99646, 2.079, -0.0654907, 2.079, 4.0458016, 2.079, 3.1221373, 2.079, -1.6793894
0.2453824, -0.0105745, 2.08575, -0.1013184, 2.08575, -1.0003662, 2.08575, -0.0656128, 2.08575, 3.908397, 2.08575, 2.9007633, 2.08575, -1.5572519
0.2461765, -0.0109102, 2.0925, -0.1049805, 2.0925, -0.9978027, 2.0925, -0.0762939, 2.0925, 3.8931298, 2.0925, 3.0992367, 2.0925, -1.4198474
0.2469706, -0.0085603, 2.09925, -0.1047974, 2.09925, -0.99646, 2.09925, -0.0844727, 2.09925, 3.8854961, 2.09925, 2.9694657, 2.09925, -1.6641221
0.2477647, -0.0095674, 2.106, -0.107666, 2.106, -0.9992676, 2.106, -0.0839233, 2.106, 3.5267177, 2.106, 2.5877862, 2.106, -1.4961832
0.2485588, -0.0102388, 2.11275, -0.1102905, 2.11275, -1, 2.11275, -0.081543, 2.11275, 3.389313, 2.11275, 2.1679389, 2.11275, -1.5496184
0.2493529, -0.0125887, 2.1195, -0.1079712, 2.1195, -0.9990845, 2.1195, -0.079834, 2.1195, 3.3053436, 2.1195, 1.4580153, 2.1195, -1.3206106
0.2501471, -0.0102388, 2.12625, -0.1049805, 2.12625, -0.998291, 2.12625, -0.0780029, 2.12625, 3.2977099, 2.12625, 0.9007633, 2.12625, -1.480916
0.2509412, -0.012253, 2.133, -0.0952148, 2.133, -0.9987793, 2.133, -0.0732422, 2.133, 3.1603053, 2.133, 0.8396947, 2.133, -1.6641221
0.2517353, -0.0166171, 2.13975, -0.0969238, 2.13975, -0.9993286, 2.13975, -0.0661621, 2.13975, 3.1068702, 2.13975, 0.740458, 2.13975, -1.5496184
0.2525294, -0.0142672, 2.1465, -0.0928955, 2.1465, -1.0024414, 2.1465, -0.0643921, 2.1465, 3.0152671, 2.1465, 0.7328244, 2.1465, -1.6259542
0.2533235, -0.0132601, 2.15325, -0.0957642, 2.15325, -1.0006714, 2.15325, -0.0655518, 2.15325, 2.908397, 2.15325, 1.2061069, 2.15325, -1.5343511
0.2541176, -0.0115816, 2.16, -0.1010742, 2.16, -0.9987793, 2.16, -0.0673218, 2.16, 2.6030533, 2.16, 1.6564885, 2.16, -1.4732825
0.2549118, -0.0117494, 2.16675, -0.1088867, 2.16675, -0.9995117, 2.16675, -0.0686646, 2.16675, 2.3206108, 2.16675, 1.4656489, 2.16675, -1.4732825
0.2557059, -0.0162814, 2.1735, -0.1175537, 2.1735, -1.0028687, 2.1735, -0.0724487, 2.1735, 2.3129771, 2.1735, 1.038168, 2.1735, -1.5114504
0.2565, -0.0152743, 2.18025, -0.119751, 2.18025, -1.0015869, 2.18025, -0.0792236, 2.18025, 2.1984732, 2.18025, 0.8625954, 2.18025, -1.5343511
0.2572941, -0.0169528, 2.187, -0.1223755, 2.187, -1.0061646, 2.187, -0.0792236, 2.187, 2.2442749, 2.187, 0.2977099, 2.187, -1.5801526
0.2580882, -0.0171206, 2.19375, -0.1188965, 2.19375, -1.0064697, 2.19375, -0.0802612, 2.19375, 2.1145039, 2.19375, -0.3969466, 2.19375, -1.5725191
0.2588824, -0.0162814, 2.2005, -0.1143188, 2.2005, -1.0123291, 2.2005, -0.078064, 2.2005, 2.4351146, 2.2005, -1.0687023, 2.2005, -1.6259542
0.2596765, -0.0206455, 2.20725, -0.1117554, 2.20725, -1.0061035, 2.20725, -0.0762329, 2.20725, 2.6946564, 2.20725, -0.8549618, 2.20725, -1.6717557
0.2604706, -0.018967, 2.214, -0.1048584, 2.214, -0.9995117, 2.214, -0.0758057, 2.214, 2.6259542, 2.214, -0.5496183, 2.214, -1.5954199
0.2612647, -0.018967, 2.22075, -0.1074219, 2.22075, -1.0040283, 2.22075, -0.0712891, 2.22075, 2.5038168, 2.22075, 0.0381679, 2.22075, -1.648855
0.2620588, -0.018967, 2.2275, -0.1032715, 2.2275, -1.0003662, 2.2275, -0.0692139, 2.2275, 2.6717558, 2.2275, 0.4732825, 2.2275, -1.6412214
0.2628529, -0.0176242, 2.23425, -0.1045532, 2.23425, -0.9968262, 2.23425, -0.0685425, 2.23425, 2.4427481, 2.23425, 1.0839695, 2.23425, -1.4198474
0.2636471, -0.0166171, 2.241, -0.1037598, 2.241, -0.9976807, 2.241, -0.0675049, 2.241, 2.3664122, 2.241, 1.3969465, 2.241, -1.610687
0.2644412, -0.0196384, 2.24775, -0.1096802, 2.24775, -0.999939, 2.24775, -0.0665894, 2.24775, 2.3969467, 2.24775, 1.2290076, 2.24775, -1.7175573
0.2652353, -0.0184634, 2.2545, -0.1060791, 2.2545, -0.9998169, 2.2545, -0.0675659, 2.2545, 2.351145, 2.2545, 1.1832061, 2.2545, -1.8854961
0.2660294, -0.0182956, 2.26125, -0.1062012, 2.26125, -0.996521, 2.26125, -0.069397, 2.26125, 2.4198472, 2.26125, 1.1450381, 2.26125, -1.7938931
0.2668235, -0.0186313, 2.268, -0.1115723, 2.268, -0.9973145, 2.268, -0.0679932, 2.268, 2.2519083, 2.268, 1.0229008, 2.268, -1.7862595
0.2676176, -0.0169528, 2.27475, -0.1069946, 2.27475, -0.996582, 2.27475, -0.0682983, 2.27475, 2.2824428, 2.27475, 0.6717557, 2.27475, -1.7480916
0.2684118, -0.01561, 2.2815, -0.105957, 2.2815, -0.9969482, 2.2815, -0.0665283, 2.2815, 2.0229008, 2.2815, 0.2519084, 2.2815, -2.0610688
0.2692059, -0.0213169, 2.28825, -0.1016235, 2.28825, -0.996582, 2.28825, -0.0681763, 2.28825, 1.9541985, 2.28825, 0.7557252, 2.28825, -2.0687022
0.27, -0.0184634, 2.295, -0.100769, 2.295, -0.9980469, 2.295, -0.0700073, 2.295, 1.8931298, 2.295, 1.1908396, 2.295, -2.0687022
0.2707941, -0.018967, 2.30175, -0.1047363, 2.30175, -0.9956055, 2.30175, -0.0687866, 2.30175, 1.8854961, 2.30175, 1.6030535, 2.30175, -1.9312977
0.2715882, -0.0179599, 2.3085, -0.1113281, 2.3085, -0.9932251, 2.3085, -0.0704346, 2.3085, 1.7709924, 2.3085, 1.8549619, 2.3085, -2.0229008
0.2723824, -0.0157778, 2.31525, -0.1174927, 2.31525, -0.99646, 2.31525, -0.0700073, 2.31525, 1.6259542, 2.31525, 1.9770992, 2.31525, -2.1450381
0.2731765, -0.0184634, 2.322, -0.1182251, 2.322, -0.9958496, 2.322, -0.071167, 2.322, 1.4351145, 2.322, 1.8091604, 2.322, -2.0305343
0.2739706, -0.0146029, 2.32875, -0.1165161, 2.32875, -0.9951782, 2.32875, -0.0748291, 2.32875, 1.4580153, 2.32875, 1.7557251, 2.32875, -2.3435113
0.2747647, -0.0115816, 2.3355, -0.1177979, 2.3355, -0.991333, 2.3355, -0.0722046, 2.3355, 1.3740458, 2.3355, 1.5877863, 2.3355, -2.3816793
0.2755588, -0.0105745, 2.34225, -0.1170654, 2.34225, -0.9915771, 2.34225, -0.0739136, 2.34225, 1.1984733, 2.34225, 1.3282443, 2.34225, -2.4427481
0.2763529, -0.0119173, 2.349, -0.1113892, 2.349, -0.9906616, 2.349, -0.0778198, 2.349, 1.0534351, 2.349, 1.480916, 2.349, -2.5954199
0.2771471, -0.0119173, 2.35575, -0.1086426, 2.35575, -0.9960327, 2.35575, -0.0806274, 2.35575, 1.0610687, 2.35575, 1.8244275, 2.35575, -2.610687
0.2779412, -0.0082246, 2.3625, -0.116333, 2.3625, -0.9963379, 2.3625, -0.0751343, 2.3625, 0.7709923, 2.3625, 2, 2.3625, -2.8778627
0.2787353, -0.0099031, 2.36925, -0.1221313, 2.36925, -0.9954224, 2.36925, -0.0834961, 2.36925, 0.8625954, 2.36925, 1.6259542, 2.36925, -2.908397
0.2795294, -0.0109102, 2.376, -0.1224976, 2.376, -0.9985962, 2.376, -0.0809937, 2.376, 0.9160305, 2.376, 1, 2.376, -3.1221373
0.2803235, -0.0095674, 2.38275, -0.1259766, 2.38275, -1.003418, 2.38275, -0.0747681, 2.38275, 0.9923664, 2.38275, 0.4885496, 2.38275, -3.2442749
0.2811176, -0.012253, 2.3895, -0.1228638, 2.3895, -1.0002441, 2.3895, -0.0776367, 2.3895, 1.2671756, 2.3895, 0.3206107, 2.3895, -3.3435113
0.2819118, -0.0129244, 2.39625, -0.1190796, 2.39625, -0.9943237, 2.39625, -0.0794678, 2.39625, 1.0992366, 2.39625, 0.3053435, 2.39625, -3.3435113
0.2827059, -0.0132601, 2.403, -0.1152344, 2.403, -0.9953003, 2.403, -0.0750122, 2.403, 1.091603, 2.403, 0.2519084, 2.403, -3.4580152
0.2835, -0.0125887, 2.40975, -0.1104126, 2.40975, -0.9962158, 2.40975, -0.0801392, 2.40975, 1.0610687, 2.40975, 0.4580153, 2.40975, -3.3435113
0.2842941, -0.0134279, 2.4165, -0.1087646, 2.4165, -0.9972534, 2.4165, -0.0732422, 2.4165, 1.0610687, 2.4165, 0.7938932, 2.4165, -3.4198472
0.2850882, -0.0119173, 2.42325, -0.1061401, 2.42325, -0.9934692, 2.42325, -0.0740967, 2.42325, 1.0229008, 2.42325, 0.9465649, 2.42325, -3.2290077
0.2858824, -0.0135958, 2.43, -0.105835, 2.43, -0.9978638, 2.43, -0.0742188, 2.43, 1.1068702, 2.43, 1.2290076, 2.43, -3.2977099
0.2866765, -0.011078, 2.43675, -0.1050415, 2.43675, -1.0003662, 2.43675, -0.0722656, 2.43675, 1.1526718, 2.43675, 1.4122137, 2.43675, -3.4732823
0.2874706, -0.0117494, 2.4435, -0.1061401, 2.4435, -1.0040894, 2.4435, -0.0755005, 2.4435, 1.3740458, 2.4435, 1.8625954, 2.4435, -3.2900763
0.2882647, -0.0135958, 2.45025, -0.1067505, 2.45025, -1.0010376, 2.45025, -0.076355, 2.45025, 1.3740458, 2.45025, 2.0305343, 2.45025, -3.4274809
0.2890588, -0.0169528, 2.457, -0.1096191, 2.457, -0.99823, 2.457, -0.0784912, 2.457, 1.1908396, 2.457, 1.648855, 2.457, -3.5038168
0.2898529, -0.01561, 2.46375, -0.1097412, 2.46375, -0.996521, 2.46375, -0.0784302, 2.46375, 1.1068702, 2.46375, 1.5038168, 2.46375, -3.389313
0.2906471, -0.0135958, 2.4705, -0.1069946, 2.4705, -1.0020142, 2.4705, -0.0754395, 2.4705, 0.8854962, 2.4705, 1.351145, 2.4705, -3.5267177
0.2914412, -0.0169528, 2.47725, -0.109314, 2.47725, -0.9944458, 2.47725, -0.0755005, 2.47725, 0.9770992, 2.47725, 1.1603054, 2.47725, -3.4351146
0.2922353, -0.0193027, 2.484, -0.1109619, 2.484, -0.9986572, 2.484, -0.0726318, 2.484, 0.9541985, 2.484, 1.0687023, 2.484, -3.5496182
0.2930294, -0.0146029, 2.49075, -0.1108398, 2.49075, -0.9968872, 2.49075, -0.0716553, 2.49075, 1.0229008, 2.49075, 0.778626, 2.49075, -3.4885497
0.2938235, -0.0149386, 2.4975, -0.1106567, 2.4975, -0.9975586, 2.4975, -0.0713501, 2.4975, 0.8167939, 2.4975, 0.5038168, 2.4975, -3.3740458
0.2946176, -0.0166171, 2.50425, -0.1048584, 2.50425, -0.9979858, 2.50425, -0.0722046, 2.50425, 0.7022901, 2.50425, 0.3435115, 2.50425, -3.3129771
0.2954118, -0.0179599, 2.511, -0.1005859, 2.511, -1.0003662, 2.511, -0.0695801, 2.511, 0.4198473, 2.511, 0.2824427, 2.511, -3.3587787
0.2962059, -0.0203098, 2.51775, -0.0940552, 2.51775, -1.0028687, 2.51775, -0.0645142, 2.51775, 0.3587786, 2.51775, 0.6564885, 2.51775, -3.2290077
0.297, -0.0169528, 2.5245, -0.0983276, 2.5245, -0.9983521, 2.5245, -0.0615234, 2.5245, 0.480916, 2.5245, 0.6946565, 2.5245, -3.3129771
0.2977941, -0.0169528, 2.53125, -0.0995483, 2.53125, -0.9978027, 2.53125, -0.0643921, 2.53125, 0.4351145, 2.53125, 0.7251908, 2.53125, -3.1908398
0.2985882, -0.0196384, 2.538, -0.0996094, 2.538, -1.0016479, 2.538, -0.0631714, 2.538, 0.2137405, 2.538, 1.0076336, 2.538, -3.0610688
0.2993824, -0.0169528, 2.54475, -0.1002808, 2.54475, -1.0050659, 2.54475, -0.0600586, 2.54475, 0.3129771, 2.54475, 0.9160305, 2.54475, -2.8778627
0.3001765, -0.0184634, 2.5515, -0.1107178, 2.5515, -1.0073853, 2.5515, -0.0633545, 2.5515, 0.1145038, 2.5515, 0.8625954, 2.5515, -3.0076337
0.3009706, -0.0159457, 2.55825, -0.1074219, 2.55825, -1.0012207, 2.55825, -0.0688477, 2.55825, -0.2977099, 2.55825, 0.4885496, 2.55825, -2.8778627
0.3017647, -0.01561, 2.565, -0.1072998, 2.565, -1.0026245, 2.565, -0.0678101, 2.565, -0.4122137, 2.565, 0.2671756, 2.565, -2.9847329
0.3025588, -0.0135958, 2.57175, -0.1110229, 2.57175, -1.0007324, 2.57175, -0.0686035, 2.57175, -0.5038168, 2.57175, 0.1984733, 2.57175, -2.8396947
0.3033529, -0.0137636, 2.5785, -0.1083984, 2.5785, -0.9968872, 2.5785, -0.067749, 2.5785, -0.7251908, 2.5785, -0.1832061, 2.5785, -3.0076337
0.3041471, -0.0130922, 2.58525, -0.1080933, 2.58525, -0.9959106, 2.58525, -0.0709229, 2.58525, -0.8931298, 2.58525, -0.4732825, 2.58525, -2.870229
0.3049412, -0.0132601, 2.592, -0.1065063, 2.592, -0.99646, 2.592, -0.0742798, 2.592, -0.8549618, 2.592, -0.5801527, 2.592, -2.8167939
0.3057353, -0.0129244, 2.59875, -0.1013794, 2.59875, -0.9985352, 2.59875, -0.0722046, 2.59875, -0.8549618, 2.59875, -0.5801527, 2.59875, -2.6564887
0.3065294, -0.0149386, 2.6055, -0.0977783, 2.6055, -0.9990234, 2.6055, -0.0742188, 2.6055, -1.0152671, 2.6055, -0.1068702, 2.6055, -2.7251909
0.3073235, -0.0139315, 2.61225, -0.0999146, 2.61225, -0.9988403, 2.61225, -0.0775757, 2.61225, -1.1603054, 2.61225, 0.0305344, 2.61225, -2.6793892
0.3081176, -0.0115816, 2.619, -0.0983887, 2.619, -1.0024414, 2.619, -0.0771484, 2.619, -1.3206106, 2.619, 0.4885496, 2.619, -2.6030533
0.3089118, -0.0135958, 2.62575, -0.1035767, 2.62575, -1.0028687, 2.62575, -0.081543, 2.62575, -1.3740458, 2.62575, 0.740458, 2.62575, -2.4885497
0.3097059, -0.0149386, 2.6325, -0.109436, 2.6325, -1.0048828, 2.6325, -0.0823975, 2.6325, -1.1832061, 2.6325, 0.6259542, 2.6325, -2.5954199
0.3105, -0.0135958, 2.63925, -0.1201172, 2.63925, -1.0020752, 2.63925, -0.0863037, 2.63925, -1.3816794, 2.63925, 0.3206107, 2.63925, -2.5572519
0.3112941, -0.012253, 2.646, -0.1259155, 2.646, -1.0032959, 2.646, -0.0889282, 2.646, -1.2061069, 2.646, -0.0458015, 2.646, -2.5572519
0.3120882, -0.0085603, 2.65275, -0.1240845, 2.65275, -1.000061, 2.65275, -0.0877686, 2.65275, -1.1679389, 2.65275, -0.8625954, 2.65275, -2.6717558
0.3128824, -0.0099031, 2.6595, -0.1188965, 2.6595, -0.9987183, 2.6595, -0.088501, 2.6595, -1.1450381, 2.6595, -1.5114504, 2.6595, -2.6412213
0.3136765, -0.0112459, 2.66625, -0.112915, 2.66625, -0.9967041, 2.66625, -0.083313, 2.66625, -1.2290076, 2.66625, -2.0152671, 2.66625, -2.7709923
0.3144706, -0.0102388, 2.673, -0.1080933, 2.673, -0.9994507, 2.673, -0.086853, 2.673, -1.1221374, 2.673, -1.8473282, 2.673, -2.7938931
0.3152647, -0.0105745, 2.67975, -0.1080933, 2.67975, -0.9987183, 2.67975, -0.0836792, 2.67975, -1.0305344, 2.67975, -1.4732825, 2.67975, -2.7557251
0.3160588, -0.0142672, 2.6865, -0.1085815, 2.6865, -1.003479, 2.6865, -0.0821533, 2.6865, -0.9312977, 2.6865, -1.3282443, 2.6865, -2.519084
0.3168529, -0.0137636, 2.69325, -0.1069336, 2.69325, -0.9988403, 2.69325, -0.0898438, 2.69325, -0.740458, 2.69325, -1.1603054, 2.69325, -2.5419848
0.3176471, -0.0112459, 2.7, -0.1099243, 2.7, -0.9946899, 2.7, -0.0866699, 2.7, -0.8854962, 2.7, -1.2061069, 2.7, -2.6870229
0.3184412, -0.0099031, 2.70675, -0.1096802, 2.70675, -0.9967041, 2.70675, -0.085022, 2.70675, -0.6717557, 2.70675, -1.3435115, 2.70675, -2.5877862
0.3192353, -0.0135958, 2.7135, -0.1123657, 2.7135, -1.0015869, 2.7135, -0.090332, 2.7135, -0.6564885, 2.7135, -1.3358779, 2.7135, -2.8778627
0.3200294, -0.0169528, 2.72025, -0.1140137, 2.72025, -1.00177, 2.72025, -0.0871582, 2.72025, -0.610687, 2.72025, -1.4961832, 2.72025, -2.8625953
0.3208235, -0.0132601, 2.727, -0.1101685, 2.727, -0.9990234, 2.727, -0.0888672, 2.727, -0.3053435, 2.727, -1.7480916, 2.727, -2.8778627
0.3216176, -0.0104067, 2.73375, -0.1143188, 2.73375, -0.9979248, 2.73375, -0.086731, 2.73375, -0.3282443, 2.73375, -2.2137403, 2.73375, -3.0076337
0.3224118, -0.0124208, 2.7405, -0.1113892, 2.7405, -1.001709, 2.7405, -0.0870361, 2.7405, -0.3358779, 2.7405, -2.4503818, 2.7405, -2.8473282
0.3232059, -0.0132601, 2.74725, -0.1079102, 2.74725, -1.0093384, 2.74725, -0.0844727, 2.74725, -0.1755725, 2.74725, -2.4045801, 2.74725, -2.8549619
0.324, -0.012253, 2.754, -0.1055908, 2.754, -1.0060425, 2.754, -0.0856323, 2.754, -0.1603053, 2.754, -1.8625954, 2.754, -3.0305343
0.3247941, -0.0132601, 2.76075, -0.1077881, 2.76075, -1.0048828, 2.76075, -0.0810547, 2.76075, 0.2290076, 2.76075, -1.7480916, 2.76075, -3.0763359
0.3255882, -0.0125887, 2.7675, -0.1126709, 2.7675, -1.0067749, 2.7675, -0.0797729, 2.7675, 0.221374, 2.7675, -1.1908396, 2.7675, -2.8549619
0.3263824, -0.0132601, 2.77425, -0.1086426, 2.77425, -1.0062256, 2.77425, -0.0844116, 2.77425, 0.2671756, 2.77425, -1.038168, 2.77425, -3.0839694
0.3271765, -0.01561, 2.781, -0.1080322, 2.781, -1.0043945, 2.781, -0.0765381, 2.781, 0.1374046, 2.781, -0.9923664, 2.781, -2.7938931
0.3279706, -0.0112459, 2.78775, -0.1092529, 2.78775, -1.0040283, 2.78775, -0.0772705, 2.78775, 0.1984733, 2.78775, -1.0458015, 2.78775, -2.9007633
0.3287647, -0.012253, 2.7945, -0.1113892, 2.7945, -1.0062256, 2.7945, -0.076355, 2.7945, 0.3282443, 2.7945, -0.9847328, 2.7945, -2.8549619
0.3295588, -0.0182956, 2.80125, -0.1082764, 2.80125, -0.9976807, 2.80125, -0.0794678, 2.80125, 0.4045801, 2.80125, -0.9236641, 2.80125, -2.908397
0.3303529, -0.0182956, 2.808, -0.1063843, 2.808, -0.9951782, 2.808, -0.0756226, 2.808, 0.2977099, 2.808, -0.778626, 2.808, -2.8091602
0.3311471, -0.0132601, 2.81475, -0.1115112, 2.81475, -0.9972534, 2.81475, -0.0811157, 2.81475, 0.0610687, 2.81475, -1.0610687, 2.81475, -2.7251909
0.3319412, -0.0109102, 2.8215, -0.116272, 2.8215, -0.9979248, 2.8215, -0.0853882, 2.8215, -0.0076336, 2.8215, -1.3435115, 2.8215, -2.8473282
0.3327353, -0.0115816, 2.82825, -0.1165161, 2.82825, -0.9978638, 2.82825, -0.0828857, 2.82825, -0.0381679, 2.82825, -1.8167939, 2.82825, -2.6335878
0.3335294, -0.0129244, 2.835, -0.1082764, 2.835, -0.9962769, 2.835, -0.0811157, 2.835, -0.0458015, 2.835, -1.8931298, 2.835, -2.8473282
0.3343235, -0.0142672, 2.84175, -0.1011963, 2.84175, -0.9985352, 2.84175, -0.0837402, 2.84175, 0.0229008, 2.84175, -1.8015267, 2.84175, -3.0305343
0.3351176, -0.0142672, 2.8485, -0.1015625, 2.8485, -0.9979248, 2.8485, -0.0824585, 2.8485, 0.0839695, 2.8485, -1.480916, 2.8485, -2.8320611
0.3359118, -0.0149386, 2.85525, -0.1004028, 2.85525, -1.0019531, 2.85525, -0.0791016, 2.85525, 0.259542, 2.85525, -0.908397, 2.85525, -3.0305343
0.3367059, -0.01561, 2.862, -0.1033325, 2.862, -1.0036011, 2.862, -0.0829468, 2.862, 0.3816794, 2.862, 0.0687023, 2.862, -2.9541984
0.3375, -0.014435, 2.86875, -0.1115723, 2.86875, -0.998291, 2.86875, -0.0892944, 2.86875, 0.0076336, 2.86875, 0.3358779, 2.86875, -2.8854961
0.3382941, -0.0191348, 2.8755, -0.1165771, 2.8755, -0.9980469, 2.8755, -0.0866089, 2.8755, 0.0763359, 2.8755, 0.3358779, 2.8755, -3.038168
0.3390882, -0.0162814, 2.88225, -0.1168213, 2.88225, -0.9976196, 2.88225, -0.0847778, 2.88225, 0.1679389, 2.88225, 0.2442748, 2.88225, -3.0687022
0.3398824, -0.0152743, 2.889, -0.1140747, 2.889, -0.9973755, 2.889, -0.0861206, 2.889, 0, 2.889, -0.1374046, 2.889, -3.0305343
0.3406765, -0.0171206, 2.89575, -0.1161499, 2.89575, -0.9962769, 2.89575, -0.086792, 2.89575, 0.0610687, 2.89575, -0.3053435, 2.89575, -3.1374047
0.3414706, -0.0149386, 2.9025, -0.1179199, 2.9025, -0.9980469, 2.9025, -0.0878296, 2.9025, 0.0534351, 2.9025, -0.3129771, 2.9025, -3.2748091
0.3422647, -0.0146029, 2.90925, -0.112915, 2.90925, -1.00177, 2.90925, -0.0829468, 2.90925, 0.0763359, 2.90925, -0.5572519, 2.90925, -3.3435113
0.3430588, -0.0162814, 2.916, -0.1044312, 2.916, -1.0042114, 2.916, -0.0823975, 2.916, 0.0992366, 2.916, -0.3969466, 2.916, -3.2900763
0.3438529, -0.0176242, 2.92275, -0.1038818, 2.92275, -1.0013428, 2.92275, -0.088501, 2.92275, 0.2977099, 2.92275, 0.5114504, 2.92275, -3.4274809
0.3446471, -0.0164492, 2.9295, -0.1116333, 2.9295, -0.9961548, 2.9295, -0.0884399, 2.9295, 0.1526718, 2.9295, 1.0610687, 2.9295, -3.519084
0.3454412, -0.018967, 2.93625, -0.116272, 2.93625, -0.9976196, 2.93625, -0.0880737, 2.93625, -0.0305344, 2.93625, 0.7938932, 2.93625, -3.2137403
0.3462353, -0.0176242, 2.943, -0.114502, 2.943, -1.0014648, 2.943, -0.0895996, 2.943, 0.2061069, 2.943, 0.5114504, 2.943, -3.4427481
0.3470294, -0.0186313, 2.94975, -0.1156006, 2.94975, -0.9995728, 2.94975, -0.0891724, 2.94975, 0.2290076, 2.94975, 0.2061069, 2.94975, -3.5114503
0.3478235, -0.0137636, 2.9565, -0.111084, 2.9565, -1.0010376, 2.9565, -0.0891724, 2.9565, 0.0916031, 2.9565, 0.3129771, 2.9565, -3.4045801
0.3486176, -0.0142672, 2.96325, -0.1074219, 2.96325, -0.9989624, 2.96325, -0.0897217, 2.96325, 0.2290076, 2.96325, 0.1374046, 2.96325, -3.5572519
0.3494118, -0.0152743, 2.97, -0.1095581, 2.97, -1.0043335, 2.97, -0.0878296, 2.97, 0.0763359, 2.97, 0.1679389, 2.97, -3.4961832
0.3502059, -0.0179599, 2.97675, -0.1077881, 2.97675, -1.0027466, 2.97675, -0.0912476, 2.97675, 0.3282443, 2.97675, 0.1526718, 2.97675, -3.389313
0.351, -0.0162814, 2.9835, -0.1102295, 2.9835, -1.0015869, 2.9835, -0.0862427, 2.9835, 0.5343512, 2.9835, 0.3053435, 2.9835, -3.5725191
0.3517941, -0.0164492, 2.99025, -0.1069946, 2.99025, -1.0023804, 2.99025, -0.0912476, 2.99025, 0.7022901, 2.99025, 0.5496183, 2.99025, -3.3664122
0.3525882, -0.0169528, 2.997, -0.105835, 2.997, -0.9992676, 2.997, -0.0966187, 2.997, 0.6717557, 2.997, 0.778626, 2.997, -3.5801528
0.3533824, -0.0162814, 3.00375, -0.1092529, 3.00375, -1.0020142, 3.00375, -0.0924683, 3.00375, 0.4503817, 3.00375, 0.870229, 3.00375, -3.2137403
0.3541765, -0.0152743, 3.0105, -0.1095581, 3.0105, -1.0054932, 3.0105, -0.0896606, 3.0105, 0.5725191, 3.0105, 0.961832, 3.0105, -3.4656489
0.3549706, -0.012253, 3.01725, -0.1158447, 3.01725, -1.0012817, 3.01725, -0.0942383, 3.01725, 0.5801527, 3.01725, 0.740458, 3.01725, -3.3282442
0.3557647, -0.0105745, 3.024, -0.1150513, 3.024, -0.9974976, 3.024, -0.0962524, 3.024, 0.6564885, 3.024, 0.3129771, 3.024, -3.3053436
0.3565588, -0.0125887, 3.03075, -0.1118164, 3.03075, -1.0036621, 3.03075, -0.0957642, 3.03075, 0.610687, 3.03075, 0.2900763, 3.03075, -3.2900763
0.3573529, -0.0164492, 3.0375, -0.1060791, 3.0375, -1.0007324, 3.0375, -0.09021, 3.0375, 0.3969466, 3.0375, 0.0839695, 3.0375, -3.2900763
0.3581471, -0.01561, 3.04425, -0.1049805, 3.04425, -0.9989014, 3.04425, -0.0884399, 3.04425, 0.4045801, 3.04425, 0.2061069, 3.04425, -3.5725191
0.3589412, -0.0129244, 3.051, -0.1030884, 3.051, -1.0004272, 3.051, -0.0888062, 3.051, 0.480916, 3.051, 0.1984733, 3.051, -3.3435113
0.3597353, -0.0099031, 3.05775, -0.0971069, 3.05775, -1.0042725, 3.05775, -0.0802002, 3.05775, 0.3206107, 3.05775, 0.7557252, 3.05775, -3.5114503
0.3605294, -0.0130922, 3.0645, -0.0995483, 3.0645, -1.0007324, 3.0645, -0.0811768, 3.0645, 0.3282443, 3.0645, 1.5572519, 3.0645, -3.3969467
0.3613235, -0.0152743, 3.07125, -0.1015015, 3.07125, -0.9996338, 3.07125, -0.0864868, 3.07125, 0.3969466, 3.07125, 1.9236641, 3.07125, -3.519084
0.3621176, -0.0162814, 3.078, -0.1022339, 3.078, -1.0004883, 3.078, -0.0878296, 3.078, 0.4656489, 3.078, 1.8931298, 3.078, -3.2748091
0.3629118, -0.0179599, 3.08475, -0.1080933, 3.08475, -1.0043335, 3.08475, -0.0895996, 3.08475, 0.5038168, 3.08475, 1.6335878, 3.08475, -3.2442749
0.3637059, -0.0157778, 3.0915, -0.1096191, 3.0915, -1.0036621, 3.0915, -0.0864258, 3.0915, 0.480916, 3.0915, 1.4961832, 3.0915, -3.0534351
0.3645, -0.0159457, 3.09825, -0.1080933, 3.09825, -0.9998779, 3.09825, -0.0918579, 3.09825, 0.4732825, 3.09825, 1.5801526, 3.09825, -3.1679389
0.3652941, -0.014435, 3.105, -0.1109619, 3.105, -0.9996338, 3.105, -0.0950928, 3.105, 0.3053435, 3.105, 1.3206106, 3.105, -3.259542
0.3660882, -0.0132601, 3.11175, -0.1079102, 3.11175, -1.0023193, 3.11175, -0.0932007, 3.11175, 0.259542, 3.11175, 1.1450381, 3.11175, -3.1221373
0.3668824, -0.0135958, 3.1185, -0.102478, 3.1185, -1.0026245, 3.1185, -0.0908203, 3.1185, 0.5954198, 3.1185, 1.1221374, 3.1185, -3.1526718
0.3676765, -0.0075532, 3.12525, -0.1062012, 3.12525, -0.9996338, 3.12525, -0.0900879, 3.12525, 0.6946565, 3.12525, 1.1603054, 3.12525, -3.1908398
0.3684706, -0.0097353, 3.132, -0.1101074, 3.132, -0.9976807, 3.132, -0.0859985, 3.132, 0.6183206, 3.132, 1.1679389, 3.132, -3.3206108
0.3692647, -0.0095674, 3.13875, -0.1114502, 3.13875, -0.9954224, 3.13875, -0.0882568, 3.13875, 0.6030535, 3.13875, 1.129771, 3.13875, -3.091603
0.3700588, -0.0099031, 3.1455, -0.1104736, 3.1455, -0.9981689, 3.1455, -0.0913696, 3.1455, 0.2977099, 3.1455, 1.1908396, 3.1455, -3.091603
0.3708529, -0.0115816, 3.15225, -0.1101074, 3.15225, -0.9997559, 3.15225, -0.0869141, 3.15225, 0.4198473, 3.15225, 0.9923664, 3.15225, -3.0305343
0.3716471, -0.0102388, 3.159, -0.1091309, 3.159, -1.0040283, 3.159, -0.0829468, 3.159, 0.1755725, 3.159, 0.8167939, 3.159, -2.9694657
0.3724412, -0.0119173, 3.16575, -0.1104126, 3.16575, -1.0090942, 3.16575, -0.0820312, 3.16575, 0.2824427, 3.16575, 0.778626, 3.16575, -3.0229008
0.3732353, -0.0125887, 3.1725, -0.1124268, 3.1725, -1.0067139, 3.1725, -0.0827026, 3.1725, 0.6946565, 3.1725, 0.6183206, 3.1725, -2.9007633
0.3740294, -0.0169528, 3.17925, -0.1082764, 3.17925, -1.0044556, 3.17925, -0.0912476, 3.17925, 0.5801527, 3.17925, 0.5114504, 3.17925, -2.9236641
0.3748235, -0.0135958, 3.186, -0.1071167, 3.186, -1.0046997, 3.186, -0.0854492, 3.186, 0.6259542, 3.186, 0.5725191, 3.186, -2.961832
0.3756176, -0.0112459, 3.19275, -0.1049805, 3.19275, -1.007019, 3.19275, -0.0825195, 3.19275, 0.5954198, 3.19275, 0.6259542, 3.19275, -2.8320611
0.3764118, -0.0135958, 3.1995, -0.1047363, 3.1995, -1.006897, 3.1995, -0.0819092, 3.1995, 0.6335878, 3.1995, 0.6259542, 3.1995, -2.8244274
0.3772059, -0.01561, 3.20625, -0.1071777, 3.20625, -1.0066528, 3.20625, -0.0835571, 3.20625, 1.0839695, 3.20625, 0.908397, 3.20625, -2.870229
0.378, -0.0129244, 3.213, -0.1092529, 3.213, -1.008667, 3.213, -0.0881348, 3.213, 0.8015267, 3.213, 0.610687, 3.213, -3.0229008
0.3787941, -0.011078, 3.21975, -0.1134644, 3.21975, -1.0116577, 3.21975, -0.083374, 3.21975, 1.038168, 3.21975, 0.7099237, 3.21975, -3.0839694
0.3795882, -0.0146029, 3.2265, -0.1127319, 3.2265, -1.0028687, 3.2265, -0.0858154, 3.2265, 1.0305344, 3.2265, 0.7709923, 3.2265, -3.0152671
0.3803824, -0.0179599, 3.23325, -0.1102905, 3.23325, -0.9972534, 3.23325, -0.0874023, 3.23325, 0.6946565, 3.23325, 0.5648855, 3.23325, -3.0458016
0.3811765, -0.0199741, 3.24, -0.1073608, 3.24, -1.0029907, 3.24, -0.0821533, 3.24, 0.3664122, 3.24, 0.5877863, 3.24, -2.9694657
0.3819706, -0.0199741, 3.24675, -0.1034546, 3.24675, -1.0029907, 3.24675, -0.0795288, 3.24675, 0.3740458, 3.24675, 0.8015267, 3.24675, -2.961832
0.3827647, -0.0182956, 3.2535, -0.100769, 3.2535, -0.998291, 3.2535, -0.0785522, 3.2535, 0.1603053, 3.2535, 1.0229008, 3.2535, -3.1603053
0.3835588, -0.0196384, 3.26025, -0.1012573, 3.26025, -0.9937134, 3.26025, -0.0783691, 3.26025, -0.1145038, 3.26025, 1.4580153, 3.26025, -2.908397
0.3843529, -0.0231632, 3.267, -0.1019287, 3.267, -0.9910278, 3.267, -0.0790405, 3.267, -0.2671756, 3.267, 1.610687, 3.267, -2.7633588
0.3851471, -0.0206455, 3.27375, -0.1018066, 3.27375, -0.993103, 3.27375, -0.0807495, 3.27375, -0.5801527, 3.27375, 1.648855, 3.27375, -2.7709923
0.3859412, -0.0152743, 3.2805, -0.1029053, 3.2805, -0.9918213, 3.2805, -0.0823975, 3.2805, -0.740458, 3.2805, 2.0610688, 3.2805, -2.6412213
0.3867353, -0.0152743, 3.28725, -0.1040649, 3.28725, -0.996582, 3.28725, -0.0841675, 3.28725, -0.8931298, 3.28725, 1.9160305, 3.28725, -2.7099237
0.3875294, -0.0176242, 3.294, -0.1056519, 3.294, -1.0003662, 3.294, -0.0826416, 3.294, -0.8091603, 3.294, 1.8091604, 3.294, -2.5954199
0.3883235, -0.0146029, 3.30075, -0.1060791, 3.30075, -1.0036011, 3.30075, -0.0855103, 3.30075, -0.8015267, 3.30075, 1.7022901, 3.30075, -2.7557251
0.3891176, -0.0132601, 3.3075, -0.1135864, 3.3075, -0.9969482, 3.3075, -0.0895386, 3.3075, -0.9160305, 3.3075, 1.2366412, 3.3075, -2.7175572
0.3899118, -0.0146029, 3.31425, -0.1126709, 3.31425, -0.9969482, 3.31425, -0.0917358, 3.31425, -1.2748091, 3.31425, 0.8244275, 3.31425, -2.6183207
0.3907059, -0.0146029, 3.321, -0.109375, 3.321, -1.0010986, 3.321, -0.085083, 3.321, -1.221374, 3.321, 0.8396947, 3.321, -2.4732823
0.3915, -0.0095674, 3.32775, -0.1105347, 3.32775, -1.0062256, 3.32775, -0.0924072, 3.32775, -1.1374046, 3.32775, 1.0076336, 3.32775, -2.5954199
0.3922941, -0.0102388, 3.3345, -0.1126099, 3.3345, -1.0077515, 3.3345, -0.0884399, 3.3345, -1.259542, 3.3345, 0.6793893, 3.3345, -2.8015268
0.3930882, -0.0097353, 3.34125, -0.1135254, 3.34125, -1.0064087, 3.34125, -0.0948486, 3.34125, -1.0763359, 3.34125, 0.8396947, 3.34125, -2.6259542
0.3938824, -0.0129244, 3.348, -0.1134033, 3.348, -1.0046387, 3.348, -0.0980835, 3.348, -0.8854962, 3.348, 0.5648855, 3.348, -2.5267177
0.3946765, -0.0142672, 3.35475, -0.1152954, 3.35475, -1.0056763, 3.35475, -0.09552, 3.35475, -0.7480916, 3.35475, 0.0839695, 3.35475, -2.7633588
0.3954706, -0.0124208, 3.3615, -0.1192017, 3.3615, -1.0065918, 3.3615, -0.092041, 3.3615, -0.8167939, 3.3615, 0.1679389, 3.3615, -2.6946564
0.3962647, -0.0099031, 3.36825, -0.119873, 3.36825, -0.9998169, 3.36825, -0.0977173, 3.36825, -0.5801527, 3.36825, 0.2671756, 3.36825, -2.9007633
0.3970588, -0.008896, 3.375, -0.1204834, 3.375, -1.003418, 3.375, -0.1004639, 3.375, -0.8244275, 3.375, 0.1908397, 3.375, -2.8320611
0.3978529, -0.0119173, 3.38175, -0.1178589, 3.38175, -1.0031738, 3.38175, -0.0965576, 3.38175, -0.870229, 3.38175, -0.0381679, 3.38175, -3.0076337
0.3986471, -0.0135958, 3.3885, -0.1160278, 3.3885, -0.9998779, 3.3885, -0.0964355, 3.3885, -0.6259542, 3.3885, -0.1679389, 3.3885, -2.9847329
0.3994412, -0.0142672, 3.39525, -0.1147461, 3.39525, -1.0004272, 3.39525, -0.0993042, 3.39525, -0.6183206, 3.39525, -0.2671756, 3.39525, -2.9923663
0.4002353, -0.0130922, 3.402, -0.1098633, 3.402, -1.0007935, 3.402, -0.0982666, 3.402, -0.9312977, 3.402, -0.4503817, 3.402, -3.1526718
0.4010294, -0.012253, 3.40875, -0.1116333, 3.40875, -0.9997559, 3.40875, -0.1005859, 3.40875, -0.8015267, 3.40875, -0.4045801, 3.40875, -3.0839694
0.4018235, -0.0125887, 3.4155, -0.1115112, 3.4155, -1.0026855, 3.4155, -0.0939941, 3.4155, -0.8244275, 3.4155, -0.5267175, 3.4155, -3.0687022
0.4026176, -0.0142672, 3.42225, -0.1099854, 3.42225, -1.0031738, 3.42225, -0.093689, 3.42225, -0.9465649, 3.42225, -0.5801527, 3.42225, -3.3282442
0.4034118, -0.0157778, 3.429, -0.1154785, 3.429, -1.0005493, 3.429, -0.0933838, 3.429, -0.8931298, 3.429, -0.4427481, 3.429, -3.259542
0.4042059, -0.0162814, 3.43575, -0.1154785, 3.43575, -1.0001221, 3.43575, -0.0946655, 3.43575, -0.9770992, 3.43575, -0.2748092, 3.43575, -3.1984732
0.405, -0.0129244, 3.4425, -0.1173096, 3.4425, -0.9995728, 3.4425, -0.0983887, 3.4425, -1.0305344, 3.4425, -0.6335878, 3.4425, -3.0839694
0.4057941, -0.0135958, 3.44925, -0.1168213, 3.44925, -0.9987793, 3.44925, -0.093689, 3.44925, -1.0610687, 3.44925, -0.9847328, 3.44925, -3.0839694
0.4065882, -0.0149386, 3.456, -0.1119995, 3.456, -1.003418, 3.456, -0.0871582, 3.456, -1.1068702, 3.456, -1.2290076, 3.456, -3.038168
0.4073824, -0.0147707, 3.46275, -0.1047974, 3.46275, -1.0041504, 3.46275, -0.0865479, 3.46275, -0.9236641, 3.46275, -1.221374, 3.46275, -3.0458016
0.4081765, -0.0152743, 3.4695, -0.0993652, 3.4695, -1.0046997, 3.4695, -0.0908203, 3.4695, -0.2977099, 3.4695, -0.5267175, 3.4695, -2.9236641
0.4089706, -0.0135958, 3.47625, -0.1037598, 3.47625, -1.0014038, 3.47625, -0.0949097, 3.47625, -0.1374046, 3.47625, -0.4961832, 3.47625, -2.9923663
0.4097647, -0.0146029, 3.483, -0.1055908, 3.483, -0.9989624, 3.483, -0.0931396, 3.483, -0.1450382, 3.483, -0.2824427, 3.483, -3.1221373
0.4105588, -0.0166171, 3.48975, -0.107666, 3.48975, -1.0007935, 3.48975, -0.1004028, 3.48975, -0.1221374, 3.48975, -0.3969466, 3.48975, -2.9236641
0.4113529, -0.0176242, 3.4965, -0.1079712, 3.4965, -1.0026245, 3.4965, -0.0984497, 3.4965, -0.1068702, 3.4965, -0.5877863, 3.4965, -3.1374047
0.4121471, -0.0162814, 3.50325, -0.1098022, 3.50325, -1.0020142, 3.50325, -0.0963745, 3.50325, 0, 3.50325, -0.6030535, 3.50325, -3.1832061
0.4129412, -0.0179599, 3.51, -0.1098022, 3.51, -1.0018311, 3.51, -0.0986328, 3.51, 0.0992366, 3.51, -0.6183206, 3.51, -3.2137403
0.4137353, -0.0179599, 3.51675, -0.1122437, 3.51675, -0.9994507, 3.51675, -0.1038208, 3.51675, -0.0763359, 3.51675, -0.8549618, 3.51675, -3.221374
0.4145294, -0.0162814, 3.5235, -0.1116333, 3.5235, -1.0016479, 3.5235, -0.1016235, 3.5235, -0.0610687, 3.5235, -1.1374046, 3.5235, -3.0992367
0.4153235, -0.0152743, 3.53025, -0.1144409, 3.53025, -1.0050049, 3.53025, -0.102356, 3.53025, 0.1374046, 3.53025, -0.9465649, 3.53025, -3.1450381
0.4161176, -0.0137636, 3.537, -0.1104126, 3.537, -1.0027466, 3.537, -0.1017456, 3.537, -0.0381679, 3.537, -0.9389313, 3.537, -3.0534351
0.4169118, -0.0176242, 3.54375, -0.1089478, 3.54375, -1.0041504, 3.54375, -0.0992432, 3.54375, -0.1755725, 3.54375, -1.3129771, 3.54375, -3.0763359
0.4177059, -0.0184634, 3.5505, -0.1064453, 3.5505, -1.0023804, 3.5505, -0.0982666, 3.5505, -0.129771, 3.5505, -1.2748091, 3.5505, -2.9236641
0.4185, -0.0142672, 3.55725, -0.1074219, 3.55725, -1.0016479, 3.55725, -0.098999, 3.55725, -0.1755725, 3.55725, -0.8091603, 3.55725, -2.9770992
0.4192941, -0.0109102, 3.564, -0.109314, 3.564, -1.0007324, 3.564, -0.0994263, 3.564, -0.1221374, 3.564, -0.648855, 3.564, -2.9694657
0.4200882, -0.008896, 3.57075, -0.1118774, 3.57075, -1.0033569, 3.57075, -0.0977173, 3.57075, -0.1832061, 3.57075, -0.4656489, 3.57075, -3.0305343
0.4208824, -0.0115816, 3.5775, -0.1133423, 3.5775, -1.0018921, 3.5775, -0.1001587, 3.5775, -0.0763359, 3.5775, -0.5801527, 3.5775, -2.9007633
0.4216765, -0.0176242, 3.58425, -0.1125488, 3.58425, -0.9996948, 3.58425, -0.0970459, 3.58425, -0.1374046, 3.58425, -0.778626, 3.58425, -2.6793892
0.4224706, -0.0164492, 3.591, -0.1104126, 3.591, -1.0004883, 3.591, -0.0939331, 3.591, -0.1755725, 3.591, -1.129771, 3.591, -2.7709923
0.4232647, -0.0142672, 3.59775, -0.104126, 3.59775, -1.0032959, 3.59775, -0.0906372, 3.59775, -0.0610687, 3.59775, -0.8549618, 3.59775, -2.9389312
0.4240588, -0.0130922, 3.6045, -0.1025391, 3.6045, -1.0009766, 3.6045, -0.0933228, 3.6045, 0, 3.6045, -0.7328244, 3.6045, -2.8473282
0.4248529, -0.0135958, 3.61125, -0.0997314, 3.61125, -1.0015259, 3.61125, -0.0960083, 3.61125, -0.1526718, 3.61125, -0.1755725, 3.61125, -2.7328243
0.4256471, -0.0117494, 3.618, -0.1013184, 3.618, -1.0019531, 3.618, -0.0922241, 3.618, -0.2137405, 3.618, 0.1068702, 3.618, -2.7022901
0.4264412, -0.0099031, 3.62475, -0.1051025, 3.62475, -1.0015869, 3.62475, -0.0901489, 3.62475, -0.1221374, 3.62475, 0.351145, 3.62475, -2.7022901
0.4272353, -0.0162814, 3.6315, -0.1080322, 3.6315, -0.9991455, 3.6315, -0.093811, 3.6315, -0.2290076, 3.6315, 0.4580153, 3.6315, -2.6183207
0.4280294, -0.0204776, 3.63825, -0.1084595, 3.63825, -0.9970093, 3.63825, -0.0927734, 3.63825, -0.519084, 3.63825, 0.4732825, 3.63825, -2.5801528
0.4288235, -0.0152743, 3.645, -0.105957, 3.645, -0.9955444, 3.645, -0.0918579, 3.645, -0.6335878, 3.645, 0.6030535, 3.645, -2.4656489
0.4296176, -0.012253, 3.65175, -0.1066895, 3.65175, -0.9971313, 3.65175, -0.0953979, 3.65175, -0.6717557, 3.65175, 0.8778626, 3.65175, -2.3740458
0.4304118, -0.0149386, 3.6585, -0.1062012, 3.6585, -0.9994507, 3.6585, -0.093689, 3.6585, -0.7251908, 3.6585, 1.0076336, 3.6585, -2.5114503
0.4312059, -0.017792, 3.66525, -0.1061401, 3.66525, -0.9969482, 3.66525, -0.092041, 3.66525, -0.9236641, 3.66525, 1.2900764, 3.66525, -2.5648854
0.432, -0.0139315, 3.672, -0.1044922, 3.672, -0.9985352, 3.672, -0.0981445, 3.672, -0.740458, 3.672, 1.2900764, 3.672, -2.3587787
0.4327941, -0.0146029, 3.67875, -0.1037598, 3.67875, -0.9970093, 3.67875, -0.0964966, 3.67875, -0.9236641, 3.67875, 1.8015267, 3.67875, -2.2442749
0.4335882, -0.0109102, 3.6855, -0.1030273, 3.6855, -1.0001221, 3.6855, -0.0997314, 3.6855, -1.0992366, 3.6855, 2.3053436, 3.6855, -2.0992367
0.4343824, -0.0104067, 3.69225, -0.102417, 3.69225, -1.0007935, 3.69225, -0.1010132, 3.69225, -1.1145039, 3.69225, 2.6564887, 3.69225, -2.0305343
0.4351765, -0.0142672, 3.699, -0.105896, 3.699, -1.0010376, 3.699, -0.0997314, 3.699, -1.4045801, 3.699, 2.8854961, 3.699, -2.2977099
0.4359706, -0.0102388, 3.70575, -0.1122437, 3.70575, -1.0009766, 3.70575, -0.1015015, 3.70575, -1.4274809, 3.70575, 2.7480917, 3.70575, -1.9923664
0.4367647, -0.012253, 3.7125, -0.1109009, 3.7125, -1.0010986, 3.7125, -0.0997925, 3.7125, -1.5801526, 3.7125, 2.6946564, 3.7125, -1.9847329
0.4375588, -0.0125887, 3.71925, -0.1148682, 3.71925, -1.0006104, 3.71925, -0.102356, 3.71925, -1.7175573, 3.71925, 2.5419848, 3.71925, -2.091603
0.4383529, -0.0109102, 3.726, -0.1142578, 3.726, -0.9989014, 3.726, -0.1029663, 3.726, -1.5343511, 3.726, 2.3282442, 3.726, -2.038168
0.4391471, -0.0104067, 3.73275, -0.1132202, 3.73275, -0.9992676, 3.73275, -0.1022949, 3.73275, -1.6641221, 3.73275, 2.3816793, 3.73275, -1.9770992
0.4399412, -0.0112459, 3.7395, -0.1121826, 3.7395, -0.9977417, 3.7395, -0.1045532, 3.7395, -1.6335878, 3.7395, 2.480916, 3.7395, -2.2671757
0.4407353, -0.0112459, 3.74625, -0.1121216, 3.74625, -0.9976807, 3.74625, -0.1068115, 3.74625, -1.6259542, 3.74625, 2.6717558, 3.74625, -2.0076337
0.4415294, -0.0142672, 3.753, -0.1140747, 3.753, -0.9967651, 3.753, -0.1077271, 3.753, -1.7328244, 3.753, 2.4427481, 3.753, -2.2137403
0.4423235, -0.0135958, 3.75975, -0.1112671, 3.75975, -1.0005493, 3.75975, -0.1036987, 3.75975, -1.7251909, 3.75975, 2.7175572, 3.75975, -2.2519083
0.4431176, -0.0129244, 3.7665, -0.1086426, 3.7665, -1.0002441, 3.7665, -0.1049194, 3.7665, -1.6259542, 3.7665, 2.8625953, 3.7665, -2.0610688
0.4439118, -0.0112459, 3.77325, -0.1134644, 3.77325, -0.9977417, 3.77325, -0.1060181, 3.77325, -1.908397, 3.77325, 3.0458016, 3.77325, -2.1145039
0.4447059, -0.0149386, 3.78, -0.1160889, 3.78, -0.9993286, 3.78, -0.1091309, 3.78, -2.038168, 3.78, 2.8549619, 3.78, -1.9160305
0.4455, -0.0149386, 3.78675, -0.1191406, 3.78675, -0.9958496, 3.78675, -0.1108398, 3.78675, -2.1221373, 3.78675, 2.4732823, 3.78675, -1.961832
0.4462941, -0.01561, 3.7935, -0.1139526, 3.7935, -0.9984131, 3.7935, -0.1088867, 3.7935, -1.9236641, 3.7935, 1.9236641, 3.7935, -1.7862595
0.4470882, -0.0171206, 3.80025, -0.1124268, 3.80025, -1.0003662, 3.80025, -0.1080322, 3.80025, -2.1374047, 3.80025, 1.8091604, 3.80025, -2.1145039
0.4478824, -0.0162814, 3.807, -0.1121216, 3.807, -0.9994507, 3.807, -0.1122437, 3.807, -2.1374047, 3.807, 1.5496184, 3.807, -2.221374
0.4486765, -0.0169528, 3.81375, -0.1170044, 3.81375, -1.0010986, 3.81375, -0.1124268, 3.81375, -1.908397, 3.81375, 1.4274809, 3.81375, -2.038168
0.4494706, -0.0149386, 3.8205, -0.1134644, 3.8205, -1.0053101, 3.8205, -0.1106567, 3.8205, -1.908397, 3.8205, 1.0687023, 3.8205, -2.0229008
0.4502647, -0.0125887, 3.82725, -0.1117554, 3.82725, -1.0070801, 3.82725, -0.1077271, 3.82725, -1.8015267, 3.82725, 1.3129771, 3.82725, -1.9694656
0.4510588, -0.014435, 3.834, -0.1140137, 3.834, -1.0008545, 3.834, -0.1120605, 3.834, -1.7175573, 3.834, 1.3587786, 3.834, -2.259542
0.4518529, -0.0184634, 3.84075, -0.1209106, 3.84075, -0.9995117, 3.84075, -0.1173706, 3.84075, -1.6412214, 3.84075, 1.3282443, 3.84075, -2.129771
0.4526471, -0.0162814, 3.8475, -0.1188965, 3.8475, -1.0012817, 3.8475, -0.1171875, 3.8475, -1.7633588, 3.8475, 1.0992366, 3.8475, -2.1374047
0.4534412, -0.0146029, 3.85425, -0.1186523, 3.85425, -1.0002441, 3.85425, -0.1157227, 3.85425, -1.7938931, 3.85425, 0.8549618, 3.85425, -2.091603
0.4542353, -0.0149386, 3.861, -0.119751, 3.861, -0.9989014, 3.861, -0.1154175, 3.861, -1.8015267, 3.861, 0.8396947, 3.861, -2.2061069
0.4550294, -0.01561, 3.86775, -0.116272, 3.86775, -0.9981079, 3.86775, -0.1204834, 3.86775, -1.6717557, 3.86775, 0.6641222, 3.86775, -2.2671757
0.4558235, -0.0137636, 3.8745, -0.1176758, 3.8745, -0.998291, 3.8745, -0.1188965, 3.8745, -1.6259542, 3.8745, 0.5725191, 3.8745, -2.2900763
0.4566176, -0.01561, 3.88125, -0.1187744, 3.88125, -0.9994507, 3.88125, -0.118042, 3.88125, -1.5343511, 3.88125, 0.4427481, 3.88125, -2.1679389
0.4574118, -0.0132601, 3.888, -0.1156616, 3.888, -1.0008545, 3.888, -0.1199341, 3.888, -1.480916, 3.888, 0.3206107, 3.888, -2.2061069
0.4582059, -0.0105745, 3.89475, -0.1162109, 3.89475, -0.9988403, 3.89475, -0.1187134, 3.89475, -1.3358779, 3.89475, 0.0916031, 3.89475, -2.221374
0.459, -0.0099031, 3.9015, -0.1165161, 3.9015, -0.9996338, 3.9015, -0.1206055, 3.9015, -1.221374, 3.9015, 0.129771, 3.9015, -2.2442749
0.4597941, -0.0117494, 3.90825, -0.1171265, 3.90825, -1.0002441, 3.90825, -0.1192627, 3.90825, -1.2137405, 3.90825, 0.2671756, 3.90825, -2.2824428
0.4605882, -0.012253, 3.915, -0.1147461, 3.915, -0.9990845, 3.915, -0.1217041, 3.915, -1.2671756, 3.915, -0.1221374, 3.915, -2.1526718
0.4613824, -0.0129244, 3.92175, -0.1134644, 3.92175, -1.003418, 3.92175, -0.1206055, 3.92175, -1.1755725, 3.92175, -0.0992366, 3.92175, -2.2061069
0.4621765, -0.0166171, 3.9285, -0.1141357, 3.9285, -1.0027466, 3.9285, -0.1177368, 3.9285, -0.9847328, 3.9285, -0.0076336, 3.9285, -2.1221373
0.4629706, -0.0176242, 3.93525, -0.1158447, 3.93525, -1.0038452, 3.93525, -0.1138916, 3.93525, -1.0305344, 3.93525, 0.221374, 3.93525, -2.0458016
0.4637647, -0.0149386, 3.942, -0.1187744, 3.942, -1.00354, 3.942, -0.1174316, 3.942, -1.0305344, 3.942, 0.3587786, 3.942, -2.0305343
0.4645588, -0.0152743, 3.94875, -0.1170044, 3.94875, -0.9994507, 3.94875, -0.1157837, 3.94875, -1.259542, 3.94875, 0.5725191, 3.94875, -2.1221373
0.4653529, -0.018967, 3.9555, -0.1168213, 3.9555, -0.9995728, 3.9555, -0.1149902, 3.9555, -1.0687023, 3.9555, 0.8320611, 3.9555, -2.1068702
0.4661471, -0.0151064, 3.96225, -0.1187134, 3.96225, -0.999939, 3.96225, -0.1140137, 3.96225, -1.1832061, 3.96225, 0.5496183, 3.96225, -2.0687022
0.4669412, -0.0146029, 3.969, -0.1153564, 3.969, -1.0012817, 3.969, -0.1151733, 3.969, -0.9312977, 3.969, 0.7557252, 3.969, -2.0610688
0.4677353, -0.01561, 3.97575, -0.1142578, 3.97575, -1.0005493, 3.97575, -0.1171265, 3.97575, -0.8244275, 3.97575, 1.0458015, 3.97575, -1.9923664
0.4685294, -0.0182956, 3.9825, -0.1137085, 3.9825, -0.9984741, 3.9825, -0.1164551, 3.9825, -0.8778626, 3.9825, 1.0839695, 3.9825, -2.0229008
0.4693235, -0.0142672, 3.98925, -0.1124878, 3.98925, -1.0004272, 3.98925, -0.1161499, 3.98925, -1, 3.98925, 1.3053435, 3.98925, -2.1374047
0.4701176, -0.01561, 3.996, -0.1154175, 3.996, -0.9979858, 3.996, -0.119873, 3.996, -0.9236641, 3.996, 1.2671756, 3.996, -2
0.4709118, -0.0169528, 4.00275, -0.1156006, 4.00275, -0.9995117, 4.00275, -0.1216431, 4.00275, -1.0687023, 4.00275, 1.3358779, 4.00275, -2.2366412
0.4717059, -0.01561, 4.0095, -0.1186523, 4.0095, -1.0039673, 4.0095, -0.1134033, 4.0095, -0.778626, 4.0095, 1.4732825, 4.0095, -2.259542
0.4725, -0.0169528, 4.01625, -0.1185303, 4.01625, -1.0022583, 4.01625, -0.116272, 4.01625, -0.7175573, 4.01625, 1.6946565, 4.01625, -2.0076337
0.4732941, -0.0172885, 4.023, -0.1184082, 4.023, -1.0023804, 4.023, -0.12146, 4.023, -0.740458, 4.023, 1.2442749, 4.023, -2.3129771
0.4740882, -0.0166171, 4.02975, -0.1185913, 4.02975, -1.0007935, 4.02975, -0.1260986, 4.02975, -0.8015267, 4.02975, 1.0229008, 4.02975, -2.0763359
0.4748824, -0.0157778, 4.0365, -0.1124268, 4.0365, -1.0053711, 4.0365, -0.1223755, 4.0365, -0.6641222, 4.0365, 1.2519084, 4.0365, -2.2061069
0.4756765, -0.0149386, 4.04325, -0.112854, 4.04325, -1.0053101, 4.04325, -0.1211548, 4.04325, -0.5725191, 4.04325, 1.1603054, 4.04325, -2.221374
0.4764706, -0.0151064, 4.05, -0.1183472, 4.05, -1.0038452, 4.05, -0.1184082, 4.05, -0.3206107, 4.05, 1.2977099, 4.05, -2.2366412
0.4772647, -0.0169528, 4.05675, -0.1178589, 4.05675, -0.9995117, 4.05675, -0.1213379, 4.05675, -0.3358779, 4.05675, 1.6030535, 4.05675, -2.1526718
0.4780588, -0.0196384, 4.0635, -0.1173096, 4.0635, -0.9968262, 4.0635, -0.1234741, 4.0635, -0.5267175, 4.0635, 1.6030535, 4.0635, -2.1755726
0.4788529, -0.0149386, 4.07025, -0.1181641, 4.07025, -1.0007324, 4.07025, -0.1201782, 4.07025, -0.4732825, 4.07025, 1.4732825, 4.07025, -2.0839694
0.4796471, -0.012253, 4.077, -0.1136475, 4.077, -1.0024414, 4.077, -0.1226807, 4.077, -0.1145038, 4.077, 1.7938931, 4.077, -2.1221373
0.4804412, -0.0129244, 4.08375, -0.1187744, 4.08375, -1.0009766, 4.08375, -0.1252441, 4.08375, -0.0458015, 4.08375, 1.8244275, 4.08375, -2.3206108
0.4812353, -0.0164492, 4.0905, -0.1208496, 4.0905, -0.9978027, 4.0905, -0.1237793, 4.0905, -0.1374046, 4.0905, 1.7251909, 4.0905, -2.1221373
0.4820294, -0.0142672, 4.09725, -0.1177368, 4.09725, -0.9985352, 4.09725, -0.1259155, 4.09725, -0.1603053, 4.09725, 1.8091604, 4.09725, -1.8931298
0.4828235, -0.0109102, 4.104, -0.1196899, 4.104, -1.0032349, 4.104, -0.1271362, 4.104, -0.0687023, 4.104, 1.5343511, 4.104, -2.1984732
0.4836176, -0.0109102, 4.11075, -0.1228027, 4.11075, -1.0016479, 4.11075, -0.1242676, 4.11075, -0.0076336, 4.11075, 1.259542, 4.11075, -2.1450381
0.4844118, -0.0127565, 4.1175, -0.1245728, 4.1175, -0.9971313, 4.1175, -0.1229248, 4.1175, -0.1374046, 4.1175, 1.2671756, 4.1175, -2.1679389
0.4852059, -0.0157778, 4.12425, -0.1223145, 4.12425, -0.9959717, 4.12425, -0.1235962, 4.12425, -0.1068702, 4.12425, 1.1526718, 4.12425, -2.1832061
0.486, -0.01561, 4.131, -0.1184082, 4.131, -0.9978638, 4.131, -0.1239624, 4.131, -0.2137405, 4.131, 0.7557252, 4.131, -2.0839694
0.4867941, -0.017792, 4.13775, -0.1182861, 4.13775, -0.9985962, 4.13775, -0.1208496, 4.13775, -0.2824427, 4.13775, 0.8473282, 4.13775, -2.1832061
0.4875882, -0.0166171, 4.1445, -0.1132202, 4.1445, -1.0007935, 4.1445, -0.1184692, 4.1445, -0.1526718, 4.1445, 1.038168, 4.1445, -2.2442749
0.4883824, -0.0162814, 4.15125, -0.1166992, 4.15125, -0.9998779, 4.15125, -0.1179199, 4.15125, -0.1603053, 4.15125, 1.221374, 4.15125, -2.129771
0.4891765, -0.0179599, 4.158, -0.1213989, 4.158, -1.0021362, 4.158, -0.1192017, 4.158, -0.1221374, 4.158, 1.3740458, 4.158, -2.2442749
0.4899706, -0.0124208, 4.16475, -0.1226807, 4.16475, -1.0006104, 4.16475, -0.1195679, 4.16475, -0.1221374, 4.16475, 1.3740458, 4.16475, -2.1603053
0.4907647, -0.0102388, 4.1715, -0.1203003, 4.1715, -1.0003662, 4.1715, -0.1190796, 4.1715, -0.0992366, 4.1715, 0.9389313, 4.1715, -2.1908398
0.4915588, -0.0115816, 4.17825, -0.1201172, 4.17825, -0.9984131, 4.17825, -0.1204834, 4.17825, -0.1832061, 4.17825, 0.8167939, 4.17825, -2.2290077
0.4923529, -0.0117494, 4.185, -0.1237183, 4.185, -0.9980469, 4.185, -0.1225586, 4.185, -0.0916031, 4.185, 1.1526718, 4.185, -2.3206108
0.4931471, -0.0119173, 4.19175, -0.1243286, 4.19175, -0.9977417, 4.19175, -0.1260376, 4.19175, -0.0763359, 4.19175, 1.038168, 4.19175, -2.3816793
0.4939412, -0.0135958, 4.1985, -0.1204224, 4.1985, -0.9954224, 4.1985, -0.1224976, 4.1985, -0.1068702, 4.1985, 0.9847328, 4.1985, -2.3282442
0.4947353, -0.0125887, 4.20525, -0.1190796, 4.20525, -0.9960938, 4.20525, -0.1258545, 4.20525, -0.1221374, 4.20525, 1.0076336, 4.20525, -2.1679389
0.4955294, -0.0102388, 4.212, -0.1165771, 4.212, -0.9979858, 4.212, -0.1242065, 4.212, -0.0381679, 4.212, 1.091603, 4.212, -2.2137403
0.4963235, -0.008896, 4.21875, -0.1157227, 4.21875, -1.0025635, 4.21875, -0.1234741, 4.21875, -0.1374046, 4.21875, 1.1603054, 4.21875, -2.2824428
0.4971176, -0.0075532, 4.2255, -0.1166382, 4.2255, -1.0028076, 4.2255, -0.1218872, 4.2255, 0.1603053, 4.2255, 1.6946565, 4.2255, -2.2061069
0.4979118, -0.0063783, 4.23225, -0.121582, 4.23225, -1.0007935, 4.23225, -0.12323, 4.23225, 0.129771, 4.23225, 1.9465649, 4.23225, -2.2824428
0.4987059, -0.0112459, 4.239, -0.1255493, 4.239, -1.0009155, 4.239, -0.125, 4.239, 0.0458015, 4.239, 1.9389313, 4.239, -2.2671757
0.4995, -0.012253, 4.24575, -0.1268921, 4.24575, -0.9985352, 4.24575, -0.12677, 4.24575, 0.1603053, 4.24575, 1.4732825, 4.24575, -2.3816793
0.5002941, -0.0095674, 4.2525, -0.1251221, 4.2525, -0.9990845, 4.2525, -0.1276855, 4.2525, 0.2366412, 4.2525, 1.3282443, 4.2525, -2.3587787
0.5010882, -0.0109102, 4.25925, -0.1273193, 4.25925, -0.9983521, 4.25925, -0.1270142, 4.25925, 0.1068702, 4.25925, 1.0152671, 4.25925, -2.351145
0.5018824, -0.0132601, 4.266, -0.1230469, 4.266, -0.9996338, 4.266, -0.1278687, 4.266, 0.0229008, 4.266, 0.9694657, 4.266, -2.4503818
0.5026765, -0.0149386, 4.27275, -0.1203003, 4.27275, -0.9995728, 4.27275, -0.125, 4.27275, -0.0610687, 4.27275, 0.9694657, 4.27275, -2.3816793
0.5034706, -0.0162814, 4.2795, -0.1208496, 4.2795, -1.0001831, 4.2795, -0.1271362, 4.2795, 0, 4.2795, 0.9160305, 4.2795, -2.3206108
0.5042647, -0.0166171, 4.28625, -0.1234131, 4.28625, -0.9984741, 4.28625, -0.1262817, 4.28625, 0.1832061, 4.28625, 0.9770992, 4.28625, -2.5343511
0.5050588, -0.0152743, 4.293, -0.1209717, 4.293, -0.9993286, 4.293, -0.1264038, 4.293, 0.0458015, 4.293, 0.8778626, 4.293, -2.4198472
0.5058529, -0.0159457, 4.29975, -0.119751, 4.29975, -0.9955444, 4.29975, -0.1263428, 4.29975, 0.129771, 4.29975, 1.0305344, 4.29975, -2.3740458
0.5066471, -0.014435, 4.3065, -0.1184082, 4.3065, -0.9981079, 4.3065, -0.1235352, 4.3065, 0.1221374, 4.3065, 0.8854962, 4.3065, -2.5419848
0.5074412, -0.0095674, 4.31325, -0.1201782, 4.31325, -1, 4.31325, -0.1248169, 4.31325, 0.3358779, 4.31325, 1.0229008, 4.31325, -2.8244274
0.5082353, -0.0115816, 4.32, -0.1222534, 4.32, -1.0005493, 4.32, -0.124939, 4.32, 0.3587786, 4.32, 1.3816794, 4.32, -2.610687
0.5090294, -0.0139315, 4.32675, -0.1239624, 4.32675, -0.998291, 4.32675, -0.126709, 4.32675, 0.389313, 4.32675, 1.5038168, 4.32675, -2.7328243
0.5098235, -0.0137636, 4.3335, -0.1253662, 4.3335, -0.9968262, 4.3335, -0.130249, 4.3335, 0.2519084, 4.3335, 1.259542, 4.3335, -2.5343511
0.5106176, -0.0146029, 4.34025, -0.1243896, 4.34025, -0.9994507, 4.34025, -0.1271362, 4.34025, 0.5419847, 4.34025, 1.0534351, 4.34025, -2.6641221
0.5114118, -0.0162814, 4.347, -0.1226807, 4.347, -0.9973755, 4.347, -0.1287842, 4.347, 0.4198473, 4.347, 1.1832061, 4.347, -2.5572519
0.5122059, -0.0149386, 4.35375, -0.1220703, 4.35375, -0.9974976, 4.35375, -0.1335449, 4.35375, 0.5725191, 4.35375, 1.2290076, 4.35375, -2.519084
0.513, -0.0132601, 4.3605, -0.1220703, 4.3605, -0.9953003, 4.3605, -0.1305542, 4.3605, 0.4274809, 4.3605, 1.1908396, 4.3605, -2.480916
0.5137941, -0.0129244, 4.36725, -0.121521, 4.36725, -0.9971313, 4.36725, -0.1334839, 4.36725, 0.4732825, 4.36725, 1.2900764, 4.36725, -2.5572519
0.5145882, -0.0166171, 4.374, -0.1220093, 4.374, -0.9980469, 4.374, -0.1343994, 4.374, 0.6641222, 4.374, 1.2671756, 4.374, -2.7175572
0.5153824, -0.0172885, 4.38075, -0.1245117, 4.38075, -0.9991455, 4.38075, -0.1293945, 4.38075, 0.6564885, 4.38075, 1.2824427, 4.38075, -2.8396947
0.5161765, -0.0169528, 4.3875, -0.1231689, 4.3875, -0.9963989, 4.3875, -0.1326294, 4.3875, 0.5572519, 4.3875, 1.2290076, 4.3875, -2.8473282
0.5169706, -0.014435, 4.39425, -0.1286621, 4.39425, -0.9970093, 4.39425, -0.1304321, 4.39425, 0.610687, 4.39425, 1.3435115, 4.39425, -2.8625953
0.5177647, -0.0149386, 4.401, -0.1306763, 4.401, -0.9990845, 4.401, -0.1334839, 4.401, 0.6564885, 4.401, 1.0458015, 4.401, -2.8320611
0.5185588, -0.0176242, 4.40775, -0.1256104, 4.40775, -0.9961548, 4.40775, -0.1296997, 4.40775, 0.4351145, 4.40775, 0.740458, 4.40775, -2.740458
0.5193529, -0.0151064, 4.4145, -0.1255493, 4.4145, -0.9974365, 4.4145, -0.1295776, 4.4145, 0.6793893, 4.4145, 0.7557252, 4.4145, -2.8549619
0.5201471, -0.0135958, 4.42125, -0.1241455, 4.42125, -0.9967651, 4.42125, -0.1271973, 4.42125, 0.6030535, 4.42125, 0.6030535, 4.42125, -2.740458
0.5209412, -0.014435, 4.428, -0.1209717, 4.428, -0.9975586, 4.428, -0.1254272, 4.428, 0.9770992, 4.428, 0.389313, 4.428, -2.8931298
0.5217353, -0.0146029, 4.43475, -0.1204834, 4.43475, -1.0001221, 4.43475, -0.1254272, 4.43475, 1.1526718, 4.43475, 0.2519084, 4.43475, -2.9389312
0.5225294, -0.0140993, 4.4415, -0.1195068, 4.4415, -1.0001221, 4.4415, -0.12854, 4.4415, 1.4351145, 4.4415, 0.2977099, 4.4415, -2.8549619
0.5233235, -0.0130922, 4.44825, -0.119751, 4.44825, -0.9977417, 4.44825, -0.130249, 4.44825, 1.5343511, 4.44825, 0.3435115, 4.44825, -3.0305343
0.5241176, -0.0112459, 4.455, -0.1217651, 4.455, -0.999939, 4.455, -0.1331787, 4.455, 1.5267175, 4.455, 0.4732825, 4.455, -3.0839694
0.5249118, -0.0102388, 4.46175, -0.1248779, 4.46175, -0.9990234, 4.46175, -0.1289062, 4.46175, 1.5877863, 4.46175, 0.6259542, 4.46175, -2.9923663
0.5257059, -0.0125887, 4.4685, -0.1256714, 4.4685, -0.9955444, 4.4685, -0.12854, 4.4685, 1.3587786, 4.4685, 0.5877863, 4.4685, -2.9312978
0.5265, -0.0109102, 4.47525, -0.1237793, 4.47525, -0.9942017, 4.47525, -0.1355591, 4.47525, 1.3969465, 4.47525, 0.6564885, 4.47525, -2.8396947
0.5272941, -0.0140993, 4.482, -0.1218262, 4.482, -0.9960938, 4.482, -0.1350708, 4.482, 1.1221374, 4.482, 0.610687, 4.482, -2.8396947
0.5280882, -0.0151064, 4.48875, -0.125061, 4.48875, -1.0007324, 4.48875, -0.1326294, 4.48875, 1.0305344, 4.48875, 0.7022901, 4.48875, -2.870229
0.5288824, -0.0146029, 4.4955, -0.1246338, 4.4955, -1.0015259, 4.4955, -0.1324463, 4.4955, 1.1374046, 4.4955, 1.0076336, 4.4955, -2.9923663
0.5296765, -0.0166171, 4.50225, -0.1251221, 4.50225, -1.0004272, 4.50225, -0.1347656, 4.50225, 1.1832061, 4.50225, 0.9312977, 4.50225, -3.038168
0.5304706, -0.0146029, 4.509, -0.1275024, 4.509, -1.0024414, 4.509, -0.1338501, 4.509, 1.0839695, 4.509, 0.9847328, 4.509, -2.9694657
0.5312647, -0.0127565, 4.51575, -0.1296997, 4.51575, -0.994873, 4.51575, -0.1364746, 4.51575, 1.1450381, 4.51575, 0.7251908, 4.51575, -3.0839694
0.5320588, -0.01561, 4.5225, -0.1305542, 4.5225, -0.9949341, 4.5225, -0.1337891, 4.5225, 1.1755725, 4.5225, 0.5725191, 4.5225, -3.0152671
0.5328529, -0.0169528, 4.52925, -0.1286621, 4.52925, -0.9968872, 4.52925, -0.1335449, 4.52925, 1.1908396, 4.52925, 0.3435115, 4.52925, -3.0076337
0.5336471, -0.018967, 4.536, -0.1260376, 4.536, -0.9974976, 4.536, -0.1340332, 4.536, 1.0992366, 4.536, 0.3053435, 4.536, -3.1679389
0.5344412, -0.0167849, 4.54275, -0.1212158, 4.54275, -0.9988403, 4.54275, -0.1323242, 4.54275, 1.1832061, 4.54275, 0.3206107, 4.54275, -3.0229008
0.5352353, -0.0169528, 4.5495, -0.1167603, 4.5495, -0.9996338, 4.5495, -0.1271973, 4.5495, 1.091603, 4.5495, 0.3358779, 4.5495, -3.0534351
0.5360294, -0.0216526, 4.55625, -0.1186523, 4.55625, -0.9994507, 4.55625, -0.1265259, 4.55625, 1.0763359, 4.55625, 0.8244275, 4.55625, -3.0152671
0.5368235, -0.0203098, 4.563, -0.1208496, 4.563, -0.994751, 4.563, -0.1242065, 4.563, 0.9312977, 4.563, 1.0839695, 4.563, -2.9847329
0.5376176, -0.0166171, 4.56975, -0.1218262, 4.56975, -0.9968872, 4.56975, -0.123291, 4.56975, 0.9312977, 4.56975, 1.1068702, 4.56975, -2.9694657
0.5384118, -0.0164492, 4.5765, -0.12146, 4.5765, -0.9974365, 4.5765, -0.1231689, 4.5765, 0.9236641, 4.5765, 0.9160305, 4.5765, -2.8549619
0.5392059, -0.0159457, 4.58325, -0.1205444, 4.58325, -0.9943848, 4.58325, -0.1199951, 4.58325, 0.778626, 4.58325, 0.8473282, 4.58325, -2.9007633
0.54, -0.0132601, 4.59, -0.1206055, 4.59, -0.9956055, 4.59, -0.1229858, 4.59, 0.9923664, 4.59, 0.9770992, 4.59, -2.9389312
0.5407941, -0.0146029, 4.59675, -0.1171875, 4.59675, -0.9984741, 4.59675, -0.124939, 4.59675, 0.908397, 4.59675, 0.8473282, 4.59675, -2.9160306
0.5415882, -0.0129244, 4.6035, -0.1178589, 4.6035, -1.0012817, 4.6035, -0.1224365, 4.6035, 0.961832, 4.6035, 1.0763359, 4.6035, -2.9465649
0.5423824, -0.0142672, 4.61025, -0.121582, 4.61025, -0.9996948, 4.61025, -0.1245117, 4.61025, 0.9160305, 4.61025, 1.2671756, 4.61025, -2.8931298
0.5431765, -0.0172885, 4.617, -0.12323, 4.617, -1.0025635, 4.617, -0.1256104, 4.617, 0.8396947, 4.617, 1.351145, 4.617, -2.7480917
0.5439706, -0.012253, 4.62375, -0.1244507, 4.62375, -1.0010376, 4.62375, -0.1307983, 4.62375, 1, 4.62375, 1.3740458, 4.62375, -2.8396947
0.5447647, -0.012253, 4.6305, -0.1257324, 4.6305, -1, 4.6305, -0.1317749, 4.6305, 0.9465649, 4.6305, 1.2061069, 4.6305, -2.7709923
0.5455588, -0.0142672, 4.63725, -0.1220703, 4.63725, -1.0005493, 4.63725, -0.1307983, 4.63725, 1.0305344, 4.63725, 0.8549618, 4.63725, -2.908397
0.5463529, -0.0159457, 4.644, -0.1210938, 4.644, -1.0010986, 4.644, -0.131897, 4.644, 1, 4.644, 0.7557252, 4.644, -2.8625953
0.5471471, -0.0132601, 4.65075, -0.1206055, 4.65075, -1.0036011, 4.65075, -0.1298218, 4.65075, 1.0763359, 4.65075, 0.8167939, 4.65075, -2.8015268
0.5479412, -0.0149386, 4.6575, -0.1208496, 4.6575, -1.0001221, 4.6575, -0.1295166, 4.6575, 0.9541985, 4.6575, 0.8778626, 4.6575, -2.6870229
0.5487353, -0.0172885, 4.66425, -0.1212158, 4.66425, -0.9966431, 4.66425, -0.1292725, 4.66425, 1.1145039, 4.66425, 0.5877863, 4.66425, -2.8625953
0.5495294, -0.0166171, 4.671, -0.1272583, 4.671, -0.9976807, 4.671, -0.1295166, 4.671, 1.2137405, 4.671, 0.4580153, 4.671, -2.8778627
0.5503235, -0.0154421, 4.67775, -0.1243286, 4.67775, -0.9984741, 4.67775, -0.132019, 4.67775, 1.4351145, 4.67775, 0.3435115, 4.67775, -2.9541984
0.5511176, -0.0109102, 4.6845, -0.1246948, 4.6845, -0.9974365, 4.6845, -0.133667, 4.6845, 1.2671756, 4.6845, 0.1908397, 4.6845, -3
0.5519118, -0.0130922, 4.69125, -0.1264648, 4.69125, -0.9980469, 4.69125, -0.1276245, 4.69125, 1.4198474, 4.69125, 0.0381679, 4.69125, -3.0305343
0.5527059, -0.0142672, 4.698, -0.1286011, 4.698, -0.9998779, 4.698, -0.1294556, 4.698, 1.4045801, 4.698, 0.3358779, 4.698, -2.9236641
0.5535, -0.0162814, 4.70475, -0.128418, 4.70475, -0.9975586, 4.70475, -0.1320801, 4.70475, 1.4351145, 4.70475, 0.0992366, 4.70475, -2.9465649
0.5542941, -0.0186313, 4.7115, -0.1243286, 4.7115, -0.9988403, 4.7115, -0.1300049, 4.7115, 1.3969465, 4.7115, 0.0458015, 4.7115, -2.7862597
0.5550882, -0.0162814, 4.71825, -0.1231079, 4.71825, -1, 4.71825, -0.1279297, 4.71825, 1.4732825, 4.71825, 0.2748092, 4.71825, -3.1755726
0.5558824, -0.0159457, 4.725, -0.1212158, 4.725, -0.9987183, 4.725, -0.1297607, 4.725, 1.3816794, 4.725, 0.5572519, 4.725, -2.9923663
0.5566765, -0.0166171, 4.73175, -0.1190186, 4.73175, -0.9996338, 4.73175, -0.1293335, 4.73175, 1.3969465, 4.73175, 0.7633588, 4.73175, -2.9770992
0.5574706, -0.0132601, 4.7385, -0.1193237, 4.7385, -0.9952393, 4.7385, -0.1288452, 4.7385, 1.3664122, 4.7385, 1.1603054, 4.7385, -3.0534351
0.5582647, -0.01561, 4.74525, -0.1220703, 4.74525, -0.9949341, 4.74525, -0.1287842, 4.74525, 1.3206106, 4.74525, 1.2137405, 4.74525, -3.1450381
0.5590588, -0.0172885, 4.752, -0.1259766, 4.752, -0.9984741, 4.752, -0.1289062, 4.752, 1.1603054, 4.752, 1.0687023, 4.752, -3.2061069
0.5598529, -0.0162814, 4.75875, -0.126709, 4.75875, -0.9988403, 4.75875, -0.1296387, 4.75875, 1.1679389, 4.75875, 0.5419847, 4.75875, -3.0534351
0.5606471, -0.014435, 4.7655, -0.1265869, 4.7655, -0.9978027, 4.7655, -0.1298828, 4.7655, 1.1679389, 4.7655, 0.2977099, 4.7655, -2.9312978
0.5614412, -0.0137636, 4.77225, -0.1248169, 4.77225, -0.996521, 4.77225, -0.130188, 4.77225, 1.1221374, 4.77225, -0.0763359, 4.77225, -3.0152671
0.5622353, -0.0162814, 4.779, -0.1213379, 4.779, -0.9962158, 4.779, -0.1315308, 4.779, 1.0076336, 4.779, -0.2061069, 4.779, -3.0229008
0.5630294, -0.0162814, 4.78575, -0.117981, 4.78575, -1.0012817, 4.78575, -0.1254883, 4.78575, 1.1374046, 4.78575, -0.129771, 4.78575, -2.9312978
0.5638235, -0.012253, 4.7925, -0.1204834, 4.7925, -0.9995117, 4.7925, -0.1283569, 4.7925, 1.0992366, 4.7925, -0.0458015, 4.7925, -3.129771
0.5646176, -0.0115816, 4.79925, -0.12323, 4.79925, -0.9989624, 4.79925, -0.1281128, 4.79925, 1.2671756, 4.79925, 0.2519084, 4.79925, -3.221374
0.5654118, -0.014435, 4.806, -0.1248779, 4.806, -0.9998779, 4.806, -0.1283569, 4.806, 1.1603054, 4.806, 0.5648855, 4.806, -3.0610688
0.5662059, -0.0137636, 4.81275, -0.12854, 4.81275, -1.0004272, 4.81275, -0.1292114, 4.81275, 1.3129771, 4.81275, 0.2671756, 4.81275, -3.129771
0.567, -0.0135958, 4.8195, -0.1246338, 4.8195, -0.9976807, 4.8195, -0.133728, 4.8195, 1.4427481, 4.8195, 0.4122137, 4.8195, -3.091603
0.5677941, -0.012253, 4.82625, -0.1231689, 4.82625, -0.9963989, 4.82625, -0.1315308, 4.82625, 1.5038168, 4.82625, 0.351145, 4.82625, -3.0229008
0.5685882, -0.0102388, 4.833, -0.1229248, 4.833, -0.9996948, 4.833, -0.1314697, 4.833, 1.3282443, 4.833, 0.351145, 4.833, -3.0610688
0.5693824, -0.0125887, 4.83975, -0.1185913, 4.83975, -1.0003052, 4.83975, -0.1297607, 4.83975, 1.4961832, 4.83975, 0.4274809, 4.83975, -3.2748091
0.5701765, -0.0132601, 4.8465, -0.1219482, 4.8465, -0.9978638, 4.8465, -0.1278687, 4.8465, 1.648855, 4.8465, 0.870229, 4.8465, -3.2748091
0.5709706, -0.0119173, 4.85325, -0.1237793, 4.85325, -0.9963989, 4.85325, -0.130127, 4.85325, 1.5725191, 4.85325, 0.9389313, 4.85325, -3.2824428
0.5717647, -0.0129244, 4.86, -0.1239624, 4.86, -0.994812, 4.86, -0.1326904, 4.86, 1.5343511, 4.86, 0.9541985, 4.86, -3.0992367
0.5725588, -0.0115816, 4.86675, -0.1254272, 4.86675, -0.9981079, 4.86675, -0.128418, 4.86675, 1.5725191, 4.86675, 0.908397, 4.86675, -3.0152671
0.5733529, -0.0132601, 4.8735, -0.1258545, 4.8735, -0.9993896, 4.8735, -0.1265869, 4.8735, 1.5572519, 4.8735, 0.8396947, 4.8735, -3.091603
0.5741471, -0.0152743, 4.88025, -0.124939, 4.88025, -0.9981079, 4.88025, -0.1325073, 4.88025, 1.5343511, 4.88025, 0.9694657, 4.88025, -2.9923663
0.5749412, -0.012253, 4.887, -0.1220703, 4.887, -0.9996948, 4.887, -0.1312256, 4.887, 1.5419847, 4.887, 0.648855, 4.887, -3
0.5757353, -0.0140993, 4.89375, -0.1244507, 4.89375, -0.9993896, 4.89375, -0.1307373, 4.89375, 1.3129771, 4.89375, 0.6793893, 4.89375, -3.0839694
0.5765294, -0.0164492, 4.9005, -0.1206055, 4.9005, -0.9956665, 4.9005, -0.1262817, 4.9005, 1.2748091, 4.9005, 0.5801527, 4.9005, -3.1145039
0.5773235, -0.0135958, 4.90725, -0.1217041, 4.90725, -0.9981689, 4.90725, -0.1254272, 4.90725, 1.3969465, 4.90725, 0.5954198, 4.90725, -3.3969467
0.5781176, -0.0115816, 4.914, -0.1201172, 4.914, -0.9971924, 4.914, -0.1251831, 4.914, 1.4274809, 4.914, 0.7251908, 4.914, -3.1145039
0.5789118, -0.0112459, 4.92075, -0.1236572, 4.92075, -0.9967041, 4.92075, -0.1253662, 4.92075, 1.389313, 4.92075, 0.8396947, 4.92075, -3.1908398
0.5797059, -0.0102388, 4.9275, -0.1196899, 4.9275, -0.9998169, 4.9275, -0.1263428, 4.9275, 1.2366412, 4.9275, 0.5725191, 4.9275, -3.129771
0.5805, -0.0125887, 4.93425, -0.1223755, 4.93425, -0.9995728, 4.93425, -0.1237793, 4.93425, 1.3053435, 4.93425, 0.7709923, 4.93425, -3.129771
0.5812941, -0.0152743, 4.941, -0.1237793, 4.941, -0.9992676, 4.941, -0.1247559, 4.941, 1.519084, 4.941, 0.8549618, 4.941, -3.1984732
0.5820882, -0.0142672, 4.94775, -0.1192627, 4.94775, -1.0018921, 4.94775, -0.1260376, 4.94775, 1.4580153, 4.94775, 0.8854962, 4.94775, -3.0763359
0.5828824, -0.0149386, 4.9545, -0.1253662, 4.9545, -0.9973145, 4.9545, -0.1273804, 4.9545, 1.5267175, 4.9545, 1.0458015, 4.9545, -3.0534351
0.5836765, -0.0176242, 4.96125, -0.1268921, 4.96125, -0.9961548, 4.96125, -0.1278687, 4.96125, 1.4885496, 4.96125, 0.9389313, 4.96125, -2.9465649
0.5844706, -0.0162814, 4.968, -0.1278687, 4.968, -0.9983521, 4.968, -0.1287231, 4.968, 1.3587786, 4.968, 0.9312977, 4.968, -3.1068702
0.5852647, -0.012253, 4.97475, -0.1242065, 4.97475, -1.0003662, 4.97475, -0.1289673, 4.97475, 1.3053435, 4.97475, 0.8015267, 4.97475, -3.2061069
0.5860588, -0.0142672, 4.9815, -0.1226196, 4.9815, -1, 4.9815, -0.1257324, 4.9815, 1.3358779, 4.9815, 0.7022901, 4.9815, -3.1984732
0.5868529, -0.0139315, 4.98825, -0.1210327, 4.98825, -0.9981079, 4.98825, -0.1258545, 4.98825, 1.4656489, 4.98825, 0.6717557, 4.98825, -3.2137403
0.5876471, -0.0125887, 4.995, -0.1212769, 4.995, -0.9994507, 4.995, -0.1276245, 4.995, 1.351145, 4.995, 0.8625954, 4.995, -3.0534351
0.5884412, -0.0135958, 5.00175, -0.1199951, 5.00175, -1.000061, 5.00175, -0.1274414, 5.00175, 1.3587786, 5.00175, 1.038168, 5.00175, -3.3053436
0.5892353, -0.0135958, 5.0085, -0.1256104, 5.0085, -0.9990845, 5.0085, -0.1273193, 5.0085, 1.4961832, 5.0085, 1.1450381, 5.0085, -3.2671757
0.5900294, -0.017792, 5.01525, -0.1309204, 5.01525, -0.9994507, 5.01525, -0.1295166, 5.01525, 1.4656489, 5.01525, 0.8931298, 5.01525, -3.0992367
0.5908235, -0.014435, 5.022, -0.1274414, 5.022, -0.996521, 5.022, -0.130127, 5.022, 1.5114504, 5.022, 0.6870229, 5.022, -3.3816793
0.5916176, -0.0117494, 5.02875, -0.1235962, 5.02875, -0.9956055, 5.02875, -0.130188, 5.02875, 1.519084, 5.02875, 0.519084, 5.02875, -3.3664122
0.5924118, -0.0166171, 5.0355, -0.1242065, 5.0355, -0.994812, 5.0355, -0.1304932, 5.0355, 1.4885496, 5.0355, 0.6641222, 5.0355, -3.221374
0.5932059, -0.0146029, 5.04225, -0.121521, 5.04225, -0.9990234, 5.04225, -0.1315918, 5.04225, 1.4045801, 5.04225, 0.6793893, 5.04225, -3.0992367
0.594, -0.0090639, 5.049, -0.1221313, 5.049, -0.9971313, 5.049, -0.1298218, 5.049, 1.3053435, 5.049, 0.7175573, 5.049, -3.2671757
0.5947941, -0.0102388, 5.05575, -0.1234741, 5.05575, -0.9995728, 5.05575, -0.1286621, 5.05575, 1.3282443, 5.05575, 0.740458, 5.05575, -3.221374
0.5955882, -0.0117494, 5.0625, -0.1222534, 5.0625, -1.0003052, 5.0625, -0.1259766, 5.0625, 1.3358779, 5.0625, 0.8778626, 5.0625, -3.4427481
0.5963824, -0.0142672, 5.06925, -0.1240234, 5.06925, -0.9997559, 5.06925, -0.1248169, 5.06925, 1.4351145, 5.06925, 0.9389313, 5.06925, -3.259542
0.5971765, -0.0149386, 5.076, -0.1248169, 5.076, -0.9977417, 5.076, -0.1283569, 5.076, 1.4503816, 5.076, 0.9541985, 5.076, -3.2290077
0.5979706, -0.0095674, 5.08275, -0.1254883, 5.08275, -0.999939, 5.08275, -0.1246338, 5.08275, 1.4274809, 5.08275, 0.7480916, 5.08275, -3.2137403
0.5987647, -0.0107424, 5.0895, -0.1257935, 5.0895, -0.9994507, 5.0895, -0.1264038, 5.0895, 1.480916, 5.0895, 0.4885496, 5.0895, -3.4198472
0.5995588, -0.0142672, 5.09625, -0.125061, 5.09625, -0.9986572, 5.09625, -0.1273193, 5.09625, 1.3664122, 5.09625, 0.2290076, 5.09625, -3.4351146
0.6003529, -0.0140993, 5.103, -0.1244507, 5.103, -0.996582, 5.103, -0.1312256, 5.103, 1.3587786, 5.103, 0.2671756, 5.103, -3.4732823
0.6011471, -0.0112459, 5.10975, -0.1225586, 5.10975, -0.9990234, 5.10975, -0.1320801, 5.10975, 1.480916, 5.10975, 0.3816794, 5.10975, -3.389313
0.6019412, -0.012253, 5.1165, -0.1238403, 5.1165, -1.0016479, 5.1165, -0.1283569, 5.1165, 1.4274809, 5.1165, 0.3435115, 5.1165, -3.4274809
0.6027353, -0.0135958, 5.12325, -0.1246948, 5.12325, -1.0008545, 5.12325, -0.1331177, 5.12325, 1.4503816, 5.12325, 0.4122137, 5.12325, -3.2442749
0.6035294, -0.0151064, 5.13, -0.1270752, 5.13, -1.0002441, 5.13, -0.1304321, 5.13, 1.6183206, 5.13, 0.4198473, 5.13, -3.3282442
0.6043235, -0.010071, 5.13675, -0.1243286, 5.13675, -0.9989014, 5.13675, -0.1277466, 5.13675, 1.4885496, 5.13675, 0.2366412, 5.13675, -3.3816793
0.6051176, -0.0115816, 5.1435, -0.1223145, 5.1435, -0.9998779, 5.1435, -0.1263428, 5.1435, 1.5725191, 5.1435, 0.3435115, 5.1435, -3.4274809
0.6059118, -0.0142672, 5.15025, -0.1221924, 5.15025, -0.9985962, 5.15025, -0.1281738, 5.15025, 1.480916, 5.15025, 0.3129771, 5.15025, -3.3587787
0.6067059, -0.0129244, 5.157, -0.1221924, 5.157, -0.99646, 5.157, -0.1245728, 5.157, 1.480916, 5.157, 0.3969466, 5.157, -3.3740458
0.6075, -0.0137636, 5.16375, -0.1196899, 5.16375, -0.9962769, 5.16375, -0.1242676, 5.16375, 1.3435115, 5.16375, 0.5114504, 5.16375, -3.4045801
0.6082941, -0.0142672, 5.1705, -0.1213379, 5.1705, -0.9975586, 5.1705, -0.1256104, 5.1705, 1.4503816, 5.1705, 0.6870229, 5.1705, -3.4351146
0.6090882, -0.0125887, 5.17725, -0.1241455, 5.17725, -1.0007324, 5.17725, -0.1256104, 5.17725, 1.4961832, 5.17725, 0.8854962, 5.17725, -3.4580152
0.6098824, -0.0117494, 5.184, -0.1224365, 5.184, -1.0004272, 5.184, -0.1268921, 5.184, 1.4503816, 5.184, 1.0839695, 5.184, -3.4198472
0.6106765, -0.0151064, 5.19075, -0.126709, 5.19075, -0.999939, 5.19075, -0.128479, 5.19075, 1.3969465, 5.19075, 0.9770992, 5.19075, -3.2900763
0.6114706, -0.0109102, 5.1975, -0.1276245, 5.1975, -0.9996948, 5.1975, -0.1298218, 5.1975, 1.5648855, 5.1975, 0.4351145, 5.1975, -3.4961832
0.6122647, -0.0109102, 5.20425, -0.12677, 5.20425, -0.9976807, 5.20425, -0.1293335, 5.20425, 1.5877863, 5.20425, 0.3969466, 5.20425, -3.3664122
0.6130588, -0.0125887, 5.211, -0.12323, 5.211, -1.0024414, 5.211, -0.1286621, 5.211, 1.6793894, 5.211, 0.3129771, 5.211, -3.351145
0.6138529, -0.0142672, 5.21775, -0.1221924, 5.21775, -1.000061, 5.21775, -0.1295166, 5.21775, 1.5572519, 5.21775, 0.1832061, 5.21775, -3.221374
0.6146471, -0.0129244, 5.2245, -0.1224976, 5.2245, -1.0015869, 5.2245, -0.1264038, 5.2245, 1.389313, 5.2245, 0.4503817, 5.2245, -3.3587787
0.6154412, -0.0152743, 5.23125, -0.1263428, 5.23125, -1.0012817, 5.23125, -0.128418, 5.23125, 1.3969465, 5.23125, 0.1450382, 5.23125, -3.3129771
0.6162353, -0.0137636, 5.238, -0.1271362, 5.238, -1.0029907, 5.238, -0.1293335, 5.238, 1.6870229, 5.238, 0.0839695, 5.238, -3.1526718
0.6170294, -0.012253, 5.24475, -0.133728, 5.24475, -0.998291, 5.24475, -0.1323853, 5.24475, 1.4580153, 5.24475, 0.0687023, 5.24475, -3.0076337
0.6178235, -0.0135958, 5.2515, -0.1237183, 5.2515, -0.9992065, 5.2515, -0.1259155, 5.2515, 1.5648855, 5.2515, -0.8396947, 5.2515, -3.1450381
0.6186176, -0.0149386, 5.25825, -0.1131592, 5.25825, -0.9980469, 5.25825, -0.1209106, 5.25825, 1.5877863, 5.25825, -0.9236641, 5.25825, -3.3358779
0.6194118, -0.0149386, 5.265, -0.1126099, 5.265, -0.9996338, 5.265, -0.1248779, 5.265, 1.6870229, 5.265, -0.221374, 5.265, -3.259542
0.6202059, -0.01561, 5.27175, -0.1165161, 5.27175, -0.9959717, 5.27175, -0.128418, 5.27175, 1.7175573, 5.27175, 0.610687, 5.27175, -3.3129771
0.621, -0.0162814, 5.2785, -0.1217651, 5.2785, -0.9980469, 5.2785, -0.1303711, 5.2785, 1.4274809, 5.2785, 0.740458, 5.2785, -3.0534351
0.6217941, -0.014435, 5.28525, -0.1256714, 5.28525, -0.9983521, 5.28525, -0.1233521, 5.28525, 1.648855, 5.28525, 0.5114504, 5.28525, -3.0076337
0.6225882, -0.0169528, 5.292, -0.12677, 5.292, -0.9985352, 5.292, -0.1277466, 5.292, 1.7557251, 5.292, 0.3664122, 5.292, -3.0992367
0.6233824, -0.0176242, 5.29875, -0.1269531, 5.29875, -0.9997559, 5.29875, -0.1306763, 5.29875, 1.8015267, 5.29875, 0.1832061, 5.29875, -3.1526718
0.6241765, -0.0182956, 5.3055, -0.1260986, 5.3055, -0.9981079, 5.3055, -0.1294556, 5.3055, 1.7251909, 5.3055, -0.1068702, 5.3055, -3.1221373
0.6249706, -0.0166171, 5.31225, -0.1229858, 5.31225, -1.0013428, 5.31225, -0.1268311, 5.31225, 1.7557251, 5.31225, -0.6030535, 5.31225, -3.2061069
0.6257647, -0.01561, 5.319, -0.1219482, 5.319, -0.9987793, 5.319, -0.1262817, 5.319, 1.8167939, 5.319, -0.6641222, 5.319, -3.3206108
0.6265588, -0.01561, 5.32575, -0.1177979, 5.32575, -0.9987793, 5.32575, -0.1264038, 5.32575, 1.870229, 5.32575, -0.7633588, 5.32575, -3.091603
0.6273529, -0.0162814, 5.3325, -0.1205444, 5.3325, -0.9973755, 5.3325, -0.1245117, 5.3325, 1.6793894, 5.3325, -0.6793893, 5.3325, -3.0687022
0.6281471, -0.0166171, 5.33925, -0.1217041, 5.33925, -0.9995117, 5.33925, -0.1251831, 5.33925, 1.6259542, 5.33925, -0.6641222, 5.33925, -3.0458016
0.6289412, -0.0193027, 5.346, -0.1189575, 5.346, -0.9976196, 5.346, -0.1224976, 5.346, 1.648855, 5.346, -0.3282443, 5.346, -3.038168
0.6297353, -0.0199741, 5.35275, -0.1196289, 5.35275, -1.0009766, 5.35275, -0.12146, 5.35275, 1.6717557, 5.35275, -0.1679389, 5.35275, -2.9770992
0.6305294, -0.018967, 5.3595, -0.1221924, 5.3595, -0.9989014, 5.3595, -0.1209106, 5.3595, 1.6641221, 5.3595, -0.0916031, 5.3595, -2.8931298
0.6313235, -0.018967, 5.36625, -0.1221924, 5.36625, -0.9994507, 5.36625, -0.1218872, 5.36625, 1.6335878, 5.36625, -0.0305344, 5.36625, -3.1145039
0.6321176, -0.0149386, 5.373, -0.1216431, 5.373, -1.0002441, 5.373, -0.1213379, 5.373, 1.5801526, 5.373, 0.0076336, 5.373, -3.0305343
0.6329118, -0.0142672, 5.37975, -0.1184082, 5.37975, -0.9987183, 5.37975, -0.1221924, 5.37975, 1.5267175, 5.37975, 0.1450382, 5.37975, -2.8854961
0.6337059, -0.0162814, 5.3865, -0.1181641, 5.3865, -1.0031128, 5.3865, -0.1201782, 5.3865, 1.6564885, 5.3865, 0.259542, 5.3865, -2.9541984
0.6345, -0.0142672, 5.39325, -0.1213379, 5.39325, -1.0019531, 5.39325, -0.1223145, 5.39325, 1.5954199, 5.39325, 0.5419847, 5.39325, -3.129771
0.6352941, -0.0169528, 5.4, -0.1286621, 5.4, -1.0013428, 5.4, -0.1243286, 5.4, 1.5877863, 5.4, 0.5954198, 5.4, -2.9312978
0.6360882, -0.0176242, 5.40675, -0.1286621, 5.40675, -0.9984131, 5.40675, -0.128418, 5.40675, 1.4503816, 5.40675, 0.1679389, 5.40675, -2.908397
0.6368824, -0.0162814, 5.4135, -0.1244507, 5.4135, -0.9990845, 5.4135, -0.1288452, 5.4135, 1.3969465, 5.4135, -0.2824427, 5.4135, -3.0534351
0.6376765, -0.0187991, 5.42025, -0.1213379, 5.42025, -1.0001831, 5.42025, -0.1270142, 5.42025, 1.4656489, 5.42025, -0.610687, 5.42025, -2.9541984
0.6384706, -0.0172885, 5.427, -0.1207275, 5.427, -0.9978638, 5.427, -0.1307373, 5.427, 1.4122137, 5.427, -0.6870229, 5.427, -2.9847329
0.6392647, -0.0166171, 5.43375, -0.1223755, 5.43375, -0.9985352, 5.43375, -0.1325684, 5.43375, 1.2671756, 5.43375, -0.6259542, 5.43375, -2.9236641
0.6400588, -0.0146029, 5.4405, -0.1195068, 5.4405, -0.9995728, 5.4405, -0.1326904, 5.4405, 1.2900764, 5.4405, -0.6259542, 5.4405, -2.9389312
0.6408529, -0.0152743, 5.44725, -0.1199951, 5.44725, -0.9996948, 5.44725, -0.1275024, 5.44725, 1.4274809, 5.44725, -0.5114504, 5.44725, -3.0763359
0.6416471, -0.01561, 5.454, -0.1231689, 5.454, -1.0015869, 5.454, -0.1278687, 5.454, 1.4198474, 5.454, -0.519084, 5.454, -3.038168
0.6424412, -0.0152743, 5.46075, -0.1205444, 5.46075, -0.9979858, 5.46075, -0.1264038, 5.46075, 1.6946565, 5.46075, -0.5877863, 5.46075, -3.0305343
0.6432353, -0.0149386, 5.4675, -0.1211548, 5.4675, -0.9990234, 5.4675, -0.1264038, 5.4675, 1.6412214, 5.4675, -0.519084, 5.4675, -2.9541984
0.6440294, -0.0162814, 5.47425, -0.1243286, 5.47425, -0.9974365, 5.47425, -0.124939, 5.47425, 1.610687, 5.47425, -0.6183206, 5.47425, -3.1984732
0.6448235, -0.0112459, 5.481, -0.1261597, 5.481, -0.9967651, 5.481, -0.1245117, 5.481, 1.740458, 5.481, -0.610687, 5.481, -3.1374047
0.6456176, -0.0102388, 5.48775, -0.1258545, 5.48775, -0.9995117, 5.48775, -0.1212158, 5.48775, 1.5877863, 5.48775, -0.6870229, 5.48775, -2.9694657
0.6464118, -0.0102388, 5.4945, -0.1231689, 5.4945, -1.0025635, 5.4945, -0.1211548, 5.4945, 1.6641221, 5.4945, -0.6259542, 5.4945, -2.9160306
0.6472059, -0.0112459, 5.50125, -0.1193237, 5.50125, -1.0043335, 5.50125, -0.121582, 5.50125, 1.648855, 5.50125, -0.5648855, 5.50125, -3.0610688
0.648, -0.0129244, 5.508, -0.1199341, 5.508, -0.9979858, 5.508, -0.12146, 5.508, 1.7328244, 5.508, -0.2061069, 5.508, -3.0076337
0.6487941, -0.0146029, 5.51475, -0.121582, 5.51475, -0.9974365, 5.51475, -0.1193848, 5.51475, 1.480916, 5.51475, -0.0610687, 5.51475, -2.9389312
0.6495882, -0.0105745, 5.5215, -0.1211548, 5.5215, -0.9970093, 5.5215, -0.1218262, 5.5215, 1.4427481, 5.5215, 0.2671756, 5.5215, -2.9923663
0.6503824, -0.012253, 5.52825, -0.1213989, 5.52825, -0.9978027, 5.52825, -0.1242676, 5.52825, 1.3053435, 5.52825, 0.4427481, 5.52825, -2.9694657
0.6511765, -0.0169528, 5.535, -0.1213989, 5.535, -0.9998169, 5.535, -0.1253052, 5.535, 1.4961832, 5.535, 0.5572519, 5.535, -2.7709923
0.6519706, -0.0149386, 5.54175, -0.1231689, 5.54175, -0.9945068, 5.54175, -0.1229248, 5.54175, 1.3282443, 5.54175, 0.3816794, 5.54175, -2.9160306
0.6527647, -0.0115816, 5.5485, -0.1208496, 5.5485, -0.9963989, 5.5485, -0.1237793, 5.5485, 1.351145, 5.5485, 0.2366412, 5.5485, -3.0763359
0.6535588, -0.0102388, 5.55525, -0.119812, 5.55525, -0.9966431, 5.55525, -0.1270752, 5.55525, 1.4427481, 5.55525, 0.2748092, 5.55525, -2.870229
0.6543529, -0.0129244, 5.562, -0.118103, 5.562, -0.9984741, 5.562, -0.1229858, 5.562, 1.5572519, 5.562, 0.2824427, 5.562, -2.870229
0.6551471, -0.0167849, 5.56875, -0.1220703, 5.56875, -0.9971924, 5.56875, -0.1251221, 5.56875, 1.4580153, 5.56875, 0.3740458, 5.56875, -2.9007633
0.6559412, -0.0159457, 5.5755, -0.1257935, 5.5755, -0.996582, 5.5755, -0.1279907, 5.5755, 1.3969465, 5.5755, 0.3740458, 5.5755, -2.9923663
0.6567353, -0.0142672, 5.58225, -0.1253662, 5.58225, -0.9990234, 5.58225, -0.1281128, 5.58225, 1.3435115, 5.58225, 0.0610687, 5.58225, -2.9541984
0.6575294, -0.0137636, 5.589, -0.1228638, 5.589, -1.0013428, 5.589, -0.1237793, 5.589, 1.2671756, 5.589, -0.0687023, 5.589, -2.9312978
0.6583235, -0.0115816, 5.59575, -0.1242676, 5.59575, -0.9997559, 5.59575, -0.1224365, 5.59575, 1.2977099, 5.59575, 0.0763359, 5.59575, -2.9236641
0.6591176, -0.0105745, 5.6025, -0.1234741, 5.6025, -0.9997559, 5.6025, -0.1242676, 5.6025, 1.2977099, 5.6025, 0.1832061, 5.6025, -2.9923663
0.6599118, -0.0109102, 5.60925, -0.1240845, 5.60925, -0.9984131, 5.60925, -0.1262817, 5.60925, 1.4885496, 5.60925, 0.0534351, 5.60925, -2.8854961
0.6607059, -0.0127565, 5.616, -0.1209717, 5.616, -0.9988403, 5.616, -0.1271362, 5.616, 1.2442749, 5.616, 0.221374, 5.616, -2.6946564
0.6615, -0.0109102, 5.62275, -0.1201782, 5.62275, -0.9981689, 5.62275, -0.124939, 5.62275, 1.2442749, 5.62275, 0.2900763, 5.62275, -2.9389312
0.6622941, -0.0105745, 5.6295, -0.1227417, 5.6295, -0.9993286, 5.6295, -0.1231079, 5.6295, 1.3969465, 5.6295, 0.5648855, 5.6295, -2.8473282
0.6630882, -0.0124208, 5.63625, -0.1234131, 5.63625, -0.9967041, 5.63625, -0.1245728, 5.63625, 1.2900764, 5.63625, 0.610687, 5.63625, -2.870229
0.6638824, -0.0137636, 5.643, -0.1223145, 5.643, -0.9979248, 5.643, -0.1288452, 5.643, 1.259542, 5.643, 0.6564885, 5.643, -2.961832
0.6646765, -0.0162814, 5.64975, -0.1217041, 5.64975, -0.9993896, 5.64975, -0.1251221, 5.64975, 1.4427481, 5.64975, 0.480916, 5.64975, -2.9389312
0.6654706, -0.0135958, 5.6565, -0.125061, 5.6565, -0.9990845, 5.6565, -0.12854, 5.6565, 1.5496184, 5.6565, 0.5419847, 5.6565, -2.8320611
0.6662647, -0.0105745, 5.66325, -0.1240234, 5.66325, -0.9979858, 5.66325, -0.1265869, 5.66325, 1.3435115, 5.66325, 0.5114504, 5.66325, -2.8549619
0.6670588, -0.0102388, 5.67, -0.1245728, 5.67, -0.9991455, 5.67, -0.1273193, 5.67, 1.3206106, 5.67, 0.3129771, 5.67, -2.8473282
0.6678529, -0.0166171, 5.67675, -0.1271362, 5.67675, -0.9978027, 5.67675, -0.1275635, 5.67675, 1.2671756, 5.67675, 0.3129771, 5.67675, -2.9847329
0.6686471, -0.0152743, 5.6835, -0.125, 5.6835, -0.9961548, 5.6835, -0.1265869, 5.6835, 1.2977099, 5.6835, 0.2137405, 5.6835, -2.8549619
0.6694412, -0.0112459, 5.69025, -0.125, 5.69025, -0.9971313, 5.69025, -0.1248779, 5.69025, 1.2900764, 5.69025, -0.0839695, 5.69025, -2.9847329
0.6702353, -0.0135958, 5.697, -0.1209717, 5.697, -0.9996338, 5.697, -0.1228638, 5.697, 1.4122137, 5.697, 0.0458015, 5.697, -3.0458016
0.6710294, -0.0172885, 5.70375, -0.1206055, 5.70375, -0.9989014, 5.70375, -0.1219482, 5.70375, 1.389313, 5.70375, 0.129771, 5.70375, -2.9694657
0.6718235, -0.0142672, 5.7105, -0.1213379, 5.7105, -0.9988403, 5.7105, -0.1218262, 5.7105, 1.2977099, 5.7105, 0.5877863, 5.7105, -2.8244274
0.6726176, -0.0149386, 5.71725, -0.1190186, 5.71725, -0.9985352, 5.71725, -0.1230469, 5.71725, 1.3358779, 5.71725, 0.6030535, 5.71725, -3.1679389
0.6734118, -0.0152743, 5.724, -0.1245728, 5.724, -0.9992676, 5.724, -0.1217651, 5.724, 1.3129771, 5.724, 0.9312977, 5.724, -2.9007633
0.6742059, -0.0149386, 5.73075, -0.1277466, 5.73075, -0.9976196, 5.73075, -0.1242065, 5.73075, 1.4656489, 5.73075, 0.9312977, 5.73075, -2.8473282
0.675, -0.0146029, 5.7375, -0.1253052, 5.7375, -0.9998169, 5.7375, -0.1259155, 5.7375, 1.4961832, 5.7375, 0.6335878, 5.7375, -2.8244274
