Application:, Trigno Discover (1.7.0)
Date/Time:, 2026/9/9 上午 11:30:21
Collection Length (seconds):, 39.5685
Avanti Sensor 11 (69574)
sensor mode: 50
EMG 1 Time Series (s), EMG 1 (mV), ACC X Time Series (s), ACC X (G), ACC Y Time Series (s), ACC Y (G), ACC Z Time Series (s), ACC Z (G), GYRO X Time Series (s), GYRO X (deg/s), GYRO Y Time Series (s), GYRO Y (deg/s), GYRO Z Time Series (s), GYRO Z (deg/s)
, 1259.2593 Hz, , 148.1481 Hz, , 148.1481 Hz, , 148.1481 Hz, , 148.1481 Hz, , 148.1481 Hz, , 148.1481 Hz
0, -0.012253, 0, -0.0458984, 0, -0.9984741, 0, -0.1806641, 0, 1.7022901, 0, 1.1526718, 0, -3.7099237
0.0007941, -0.0199741, 0.00675, -0.0460205, 0.00675, -1.0043945, 0.00675, -0.1802979, 0.00675, 1.610687, 0.00675, 1.4274809, 0.00675, -3.7175572
0.0015882, -0.0229953, 0.0135, -0.0455322, 0.0135, -1.0039062, 0.0135, -0.1802368, 0.0135, 1.8015267, 0.0135, 1.4580153, 0.0135, -3.6183207
0.0023824, -0.0243381, 0.02025, -0.0494385, 0.02025, -1.0038452, 0.02025, -0.1813354, 0.02025, 1.7938931, 0.02025, 1.221374, 0.02025, -3.7938931
0.0031765, -0.0260166, 0.027, -0.0523682, 0.027, -1.0006714, 0.027, -0.1758423, 0.027, 1.4961832, 0.027, 0.9923664, 0.027, -3.6564887
0.0039706, -0.024506, 0.03375, -0.0512085, 0.03375, -1.0010376, 0.03375, -0.1801147, 0.03375, 1.6717557, 0.03375, 1.0305344, 0.03375, -3.7557251
0.0047647, -0.026688, 0.0405, -0.0515747, 0.0405, -1.0001221, 0.0405, -0.1801147, 0.0405, 1.5954199, 0.0405, 0.6946565, 0.0405, -3.610687
0.0055588, -0.0270237, 0.04725, -0.0469971, 0.04725, -1.0023193, 0.04725, -0.1783447, 0.04725, 1.4122137, 0.04725, 0.8167939, 0.04725, -3.9236641
0.0063529, -0.0199741, 0.054, -0.046875, 0.054, -1.0045776, 0.054, -0.1789551, 0.054, 1.6030535, 0.054, 0.8244275, 0.054, -3.7709923
0.0071471, -0.0162814, 0.06075, -0.0471802, 0.06075, -1.0009155, 0.06075, -0.1784058, 0.06075, 1.5877863, 0.06075, 1.2061069, 0.06075, -3.8167939
0.0079412, -0.0142672, 0.0675, -0.0488892, 0.0675, -1.0023193, 0.0675, -0.1793823, 0.0675, 1.6412214, 0.0675, 1.1374046, 0.0675, -3.8396947
0.0087353, -0.011078, 0.07425, -0.0462646, 0.07425, -1.0032349, 0.07425, -0.1797485, 0.07425, 1.4045801, 0.07425, 0.7938932, 0.07425, -3.870229
0.0095294, -0.0102388, 0.081, -0.0466309, 0.081, -1.0041504, 0.081, -0.1810913, 0.081, 1.648855, 0.081, 0.5877863, 0.081, -3.740458
0.0103235, -0.0077211, 0.08775, -0.0480957, 0.08775, -1.0036011, 0.08775, -0.1809692, 0.08775, 1.5725191, 0.08775, 0.6412213, 0.08775, -3.8396947
0.0111176, 0.0011749, 0.0945, -0.0473633, 0.0945, -1.001709, 0.0945, -0.178772, 0.0945, 1.7709924, 0.0945, 0.8396947, 0.0945, -3.8396947
0.0119118, 0.0025177, 0.10125, -0.0492554, 0.10125, -1.0002441, 0.10125, -0.1766968, 0.10125, 1.5038168, 0.10125, 0.648855, 0.10125, -3.8549619
0.0127059, 0.0099031, 0.108, -0.0484009, 0.108, -1.0029907, 0.108, -0.1766357, 0.108, 1.2671756, 0.108, 0.3740458, 0.108, -3.8167939
0.0135, 0.0072175, 0.11475, -0.0460815, 0.11475, -1.0054321, 0.11475, -0.1747437, 0.11475, 1.4122137, 0.11475, 0.6412213, 0.11475, -3.610687
0.0142941, -0.0003357, 0.1215, -0.0479736, 0.1215, -1.0029907, 0.1215, -0.1717529, 0.1215, 1.2137405, 0.1215, 0.648855, 0.1215, -3.740458
0.0150882, -0.0045319, 0.12825, -0.0489502, 0.12825, -0.9997559, 0.12825, -0.1708984, 0.12825, 1.259542, 0.12825, 0.4274809, 0.12825, -3.5954199
0.0158824, -0.0119173, 0.135, -0.0457764, 0.135, -1.0065308, 0.135, -0.1716309, 0.135, 1.0534351, 0.135, 0.1145038, 0.135, -3.7175572
0.0166765, -0.0176242, 0.14175, -0.0467529, 0.14175, -1.0061035, 0.14175, -0.1698608, 0.14175, 1.0839695, 0.14175, 0.0534351, 0.14175, -3.8167939
0.0174706, -0.0162814, 0.1485, -0.0495605, 0.1485, -1.001709, 0.1485, -0.1749268, 0.1485, 0.9923664, 0.1485, -0.1145038, 0.1485, -3.9465649
0.0182647, -0.0208133, 0.15525, -0.0448608, 0.15525, -1.0025024, 0.15525, -0.1749268, 0.15525, 1.0305344, 0.15525, -0.1984733, 0.15525, -3.8854961
0.0190588, -0.0219883, 0.162, -0.0428467, 0.162, -1.0041504, 0.162, -0.1768799, 0.162, 0.961832, 0.162, -0.1908397, 0.162, -4.0152674
0.0198529, -0.0253452, 0.16875, -0.0438232, 0.16875, -1.0047607, 0.16875, -0.1751099, 0.16875, 1.1603054, 0.16875, 0.1908397, 0.16875, -3.8473282
0.0206471, -0.0290379, 0.1755, -0.0484009, 0.1755, -1.0026245, 0.1755, -0.1763306, 0.1755, 1.0076336, 0.1755, 0.0992366, 0.1755, -4.0229006
0.0214412, -0.0276951, 0.18225, -0.0455933, 0.18225, -1.0029297, 0.18225, -0.1765137, 0.18225, 1.0839695, 0.18225, 0.1832061, 0.18225, -3.8091602
0.0222353, -0.0270237, 0.189, -0.0463867, 0.189, -1.0021973, 0.189, -0.1798096, 0.189, 1.0229008, 0.189, 0.1832061, 0.189, -3.8625953
0.0230294, -0.0246738, 0.19575, -0.046814, 0.19575, -1.0043945, 0.19575, -0.1769409, 0.19575, 0.9770992, 0.19575, 0.1755725, 0.19575, -3.8473282
0.0238235, -0.0283665, 0.2025, -0.0463257, 0.2025, -1.0040283, 0.2025, -0.1762085, 0.2025, 1.129771, 0.2025, 0.0381679, 0.2025, -3.8778627
0.0246176, -0.0256809, 0.20925, -0.0445557, 0.20925, -1.0039062, 0.20925, -0.177002, 0.20925, 0.9847328, 0.20925, -0.2366412, 0.20925, -3.8625953
0.0254118, -0.0149386, 0.216, -0.0437012, 0.216, -1.00354, 0.216, -0.175293, 0.216, 0.908397, 0.216, -0.0305344, 0.216, -3.8244274
0.0262059, -0.0090639, 0.22275, -0.0437622, 0.22275, -1.0066528, 0.22275, -0.1724854, 0.22275, 0.7862595, 0.22275, 0.0610687, 0.22275, -3.8244274
0.027, -0.0031891, 0.2295, -0.0480347, 0.2295, -1.0042114, 0.2295, -0.1705322, 0.2295, 0.6870229, 0.2295, -0.1221374, 0.2295, -3.7557251
0.0277941, -0.0016785, 0.23625, -0.0482788, 0.23625, -1.0038452, 0.23625, -0.1781006, 0.23625, 0.6793893, 0.23625, -0.0992366, 0.23625, -3.7328243
0.0285882, 0.0005035, 0.243, -0.0502319, 0.243, -1.0042114, 0.243, -0.1765747, 0.243, 0.7328244, 0.243, -0.389313, 0.243, -3.9465649
0.0293824, 0.0045319, 0.24975, -0.046814, 0.24975, -1.0059814, 0.24975, -0.1727905, 0.24975, 0.5954198, 0.24975, -0.6259542, 0.24975, -3.8854961
0.0301765, 0.0011749, 0.2565, -0.0419922, 0.2565, -0.9988403, 0.2565, -0.1776123, 0.2565, 0.6259542, 0.2565, -0.3969466, 0.2565, -3.9160306
0.0309706, -0.0015106, 0.26325, -0.0461426, 0.26325, -1.001709, 0.26325, -0.1755981, 0.26325, 0.8091603, 0.26325, -0.3129771, 0.26325, -3.908397
0.0317647, -0.0075532, 0.27, -0.0423584, 0.27, -1.0019531, 0.27, -0.1821289, 0.27, 0.7480916, 0.27, -0.0152672, 0.27, -3.9007633
0.0325588, -0.0135958, 0.27675, -0.0437012, 0.27675, -1.0023804, 0.27675, -0.1815796, 0.27675, 0.8778626, 0.27675, 0.1221374, 0.27675, -3.908397
0.0333529, -0.0162814, 0.2835, -0.0444946, 0.2835, -1.0009766, 0.2835, -0.1790161, 0.2835, 0.9312977, 0.2835, 0.3053435, 0.2835, -3.6793892
0.0341471, -0.0191348, 0.29025, -0.0440674, 0.29025, -1.003418, 0.29025, -0.1766357, 0.29025, 0.8931298, 0.29025, 0.5648855, 0.29025, -3.7251909
0.0349412, -0.023331, 0.297, -0.0469971, 0.297, -1.0045166, 0.297, -0.1734009, 0.297, 0.8320611, 0.297, 0.3358779, 0.297, -3.7938931
0.0357353, -0.0236667, 0.30375, -0.0493774, 0.30375, -1.0053711, 0.30375, -0.1714478, 0.30375, 0.8015267, 0.30375, 0.1145038, 0.30375, -4.0687022
0.0365294, -0.0209812, 0.3105, -0.0514526, 0.3105, -1.0046997, 0.3105, -0.1692505, 0.3105, 0.8015267, 0.3105, -0.0610687, 0.3105, -3.9160306
0.0373235, -0.0253452, 0.31725, -0.0479126, 0.31725, -1.0028076, 0.31725, -0.1743774, 0.31725, 0.648855, 0.31725, -0.2900763, 0.31725, -3.8778627
0.0381176, -0.0270237, 0.324, -0.0470581, 0.324, -1.0005493, 0.324, -0.1796265, 0.324, 0.5343512, 0.324, -0.3053435, 0.324, -3.9236641
0.0389118, -0.0307164, 0.33075, -0.0471191, 0.33075, -1.0026245, 0.33075, -0.1798706, 0.33075, 0.480916, 0.33075, -0.6412213, 0.33075, -3.7099237
0.0397059, -0.0285344, 0.3375, -0.0440063, 0.3375, -1.0040894, 0.3375, -0.1789551, 0.3375, 0.6641222, 0.3375, -0.6564885, 0.3375, -3.6641221
0.0405, -0.0243381, 0.34425, -0.0401001, 0.34425, -1.0012817, 0.34425, -0.182251, 0.34425, 0.6564885, 0.34425, -0.6259542, 0.34425, -3.7099237
0.0412941, -0.0226596, 0.351, -0.039856, 0.351, -1.0023804, 0.351, -0.1848755, 0.351, 0.7251908, 0.351, -0.3816794, 0.351, -3.6641221
0.0420882, -0.0176242, 0.35775, -0.0414429, 0.35775, -1.003418, 0.35775, -0.1834717, 0.35775, 0.6946565, 0.35775, -0.0152672, 0.35775, -3.8320611
0.0428824, -0.0172885, 0.3645, -0.0428467, 0.3645, -1.0022583, 0.3645, -0.1829834, 0.3645, 0.8396947, 0.3645, 0.2137405, 0.3645, -3.8167939
0.0436765, -0.01561, 0.37125, -0.0454712, 0.37125, -1.0032959, 0.37125, -0.1792603, 0.37125, 0.610687, 0.37125, 0.3816794, 0.37125, -3.7328243
0.0444706, -0.012253, 0.378, -0.0437012, 0.378, -1.0032349, 0.378, -0.1759033, 0.378, 0.7251908, 0.378, 0.1374046, 0.378, -3.870229
0.0452647, -0.0129244, 0.38475, -0.0442505, 0.38475, -1.0027466, 0.38475, -0.180542, 0.38475, 0.8320611, 0.38475, -0.1603053, 0.38475, -3.8091602
0.0460588, -0.012253, 0.3915, -0.0380859, 0.3915, -1.0006714, 0.3915, -0.1760864, 0.3915, 0.778626, 0.3915, -0.0305344, 0.3915, -3.7480917
0.0468529, -0.0085603, 0.39825, -0.0420532, 0.39825, -1.0026855, 0.39825, -0.177063, 0.39825, 0.8473282, 0.39825, 0.4351145, 0.39825, -3.6717558
0.0476471, -0.0062104, 0.405, -0.0463867, 0.405, -1.0048828, 0.405, -0.1801758, 0.405, 0.9160305, 0.405, 0.3587786, 0.405, -3.6030533
0.0484412, -0.012253, 0.41175, -0.0460205, 0.41175, -0.9998169, 0.41175, -0.1817627, 0.41175, 0.9007633, 0.41175, 0.4427481, 0.41175, -3.6793892
0.0492353, -0.0139315, 0.4185, -0.0458984, 0.4185, -0.9998169, 0.4185, -0.1791382, 0.4185, 0.7938932, 0.4185, 0.1221374, 0.4185, -3.6564887
0.0500294, -0.0112459, 0.42525, -0.0444336, 0.42525, -1.0037842, 0.42525, -0.1759644, 0.42525, 0.7938932, 0.42525, -0.3435115, 0.42525, -3.6335878
0.0508235, -0.0152743, 0.432, -0.0452881, 0.432, -0.9992065, 0.432, -0.1863403, 0.432, 0.7251908, 0.432, -0.3587786, 0.432, -3.7938931
0.0516176, -0.0193027, 0.43875, -0.0441284, 0.43875, -0.9998169, 0.43875, -0.1908569, 0.43875, 0.9694657, 0.43875, -0.3282443, 0.43875, -3.5038168
0.0524118, -0.0182956, 0.4455, -0.0415649, 0.4455, -1.0016479, 0.4455, -0.1810303, 0.4455, 1.0076336, 0.4455, -0.1679389, 0.4455, -3.5496182
0.0532059, -0.0193027, 0.45225, -0.0378418, 0.45225, -1.0012817, 0.45225, -0.1835327, 0.45225, 0.9694657, 0.45225, 0.129771, 0.45225, -3.7251909
0.054, -0.0250095, 0.459, -0.0383301, 0.459, -1.0001831, 0.459, -0.1830444, 0.459, 0.8854962, 0.459, 0.1068702, 0.459, -3.5954199
0.0547941, -0.0229953, 0.46575, -0.0443115, 0.46575, -1.0012207, 0.46575, -0.1799316, 0.46575, 0.9236641, 0.46575, 0.221374, 0.46575, -3.6259542
0.0555882, -0.026688, 0.4725, -0.0405273, 0.4725, -1.003479, 0.4725, -0.1836548, 0.4725, 1, 0.4725, 0.1221374, 0.4725, -3.7709923
0.0563824, -0.0236667, 0.47925, -0.0392456, 0.47925, -1.0037842, 0.47925, -0.182373, 0.47925, 0.9923664, 0.47925, 0.2061069, 0.47925, -3.6564887
0.0571765, -0.0172885, 0.486, -0.0386353, 0.486, -1.0031738, 0.486, -0.1785278, 0.486, 1.0763359, 0.486, 0.610687, 0.486, -3.6870229
0.0579706, -0.012253, 0.49275, -0.0404663, 0.49275, -1.0010986, 0.49275, -0.1824341, 0.49275, 0.961832, 0.49275, 0.7251908, 0.49275, -3.5725191
0.0587647, -0.0142672, 0.4995, -0.0430298, 0.4995, -1.0020142, 0.4995, -0.1815186, 0.4995, 0.9694657, 0.4995, 1.1984733, 0.4995, -3.6946564
0.0595588, -0.0129244, 0.50625, -0.0410767, 0.50625, -1.0010376, 0.50625, -0.1815186, 0.50625, 0.9236641, 0.50625, 1.0458015, 0.50625, -3.6412213
0.0603529, -0.0102388, 0.513, -0.0443726, 0.513, -0.9994507, 0.513, -0.1838989, 0.513, 1.0839695, 0.513, 0.9541985, 0.513, -3.4885497
0.0611471, -0.008896, 0.51975, -0.0402832, 0.51975, -0.9995728, 0.51975, -0.1842651, 0.51975, 1.0458015, 0.51975, 1.1908396, 0.51975, -3.4732823
0.0619412, -0.0062104, 0.5265, -0.0396118, 0.5265, -1.0030518, 0.5265, -0.1820068, 0.5265, 1.1374046, 0.5265, 1.221374, 0.5265, -3.4885497
0.0627353, -0.0038605, 0.53325, -0.0402222, 0.53325, -0.9996338, 0.53325, -0.184021, 0.53325, 0.9541985, 0.53325, 1.1221374, 0.53325, -3.6030533
0.0635294, -0.0011749, 0.54, -0.0402222, 0.54, -1.0028076, 0.54, -0.1791992, 0.54, 1.0534351, 0.54, 1, 0.54, -3.5419848
0.0643235, -0.0028534, 0.54675, -0.041626, 0.54675, -1.0016479, 0.54675, -0.1773682, 0.54675, 1.1603054, 0.54675, 0.8549618, 0.54675, -3.4427481
0.0651176, -0.0043641, 0.5535, -0.0429077, 0.5535, -1.003479, 0.5535, -0.1766968, 0.5535, 0.8778626, 0.5535, 0.8015267, 0.5535, -3.4580152
0.0659118, -0.0068818, 0.56025, -0.0426025, 0.56025, -1.0015259, 0.56025, -0.1802979, 0.56025, 1.0229008, 0.56025, 0.8625954, 0.56025, -3.5267177
0.0667059, -0.0058747, 0.567, -0.0424805, 0.567, -1.0018921, 0.567, -0.1833496, 0.567, 1.0534351, 0.567, 0.7022901, 0.567, -3.6183207
0.0675, -0.0082246, 0.57375, -0.0441895, 0.57375, -1.0021973, 0.57375, -0.1757202, 0.57375, 1.2748091, 0.57375, 0.9694657, 0.57375, -3.3816793
0.0682941, -0.0130922, 0.5805, -0.0419312, 0.5805, -1.0009155, 0.5805, -0.1766357, 0.5805, 1.0992366, 0.5805, 1.0229008, 0.5805, -3.5038168
0.0690882, -0.0176242, 0.58725, -0.041626, 0.58725, -1.0015869, 0.58725, -0.1794434, 0.58725, 1.091603, 0.58725, 1.0152671, 0.58725, -3.3435113
0.0698824, -0.023331, 0.594, -0.0438843, 0.594, -1.0042114, 0.594, -0.175293, 0.594, 0.9923664, 0.594, 0.9923664, 0.594, -3.5801528
0.0706765, -0.0226596, 0.60075, -0.0446777, 0.60075, -1.0037842, 0.60075, -0.1794434, 0.60075, 1.0763359, 0.60075, 0.9541985, 0.60075, -3.4351146
0.0714706, -0.023331, 0.6075, -0.043396, 0.6075, -1.0059204, 0.6075, -0.1831055, 0.6075, 1, 0.6075, 1.038168, 0.6075, -3.389313
0.0722647, -0.0253452, 0.61425, -0.043457, 0.61425, -1.0068359, 0.61425, -0.1751709, 0.61425, 1.0763359, 0.61425, 0.8854962, 0.61425, -3.5877862
0.0730588, -0.0256809, 0.621, -0.0457153, 0.621, -1.0008545, 0.621, -0.1802979, 0.621, 1.0458015, 0.621, 0.7633588, 0.621, -3.4656489
0.0738529, -0.0250095, 0.62775, -0.0419312, 0.62775, -1.0029907, 0.62775, -0.1815796, 0.62775, 0.9465649, 0.62775, 0.4351145, 0.62775, -3.5419848
0.0746471, -0.0243381, 0.6345, -0.0432129, 0.6345, -1.0043335, 0.6345, -0.182373, 0.6345, 0.6870229, 0.6345, 0.2061069, 0.6345, -3.6183207
0.0754412, -0.0219883, 0.64125, -0.0421143, 0.64125, -1.00354, 0.64125, -0.180481, 0.64125, 0.908397, 0.64125, 0.3282443, 0.64125, -3.4961832
0.0762353, -0.0149386, 0.648, -0.0438843, 0.648, -1.0039062, 0.648, -0.182251, 0.648, 0.8854962, 0.648, 0.3129771, 0.648, -3.4656489
0.0770294, -0.0090639, 0.65475, -0.0446777, 0.65475, -1.0006714, 0.65475, -0.182251, 0.65475, 1, 0.65475, 0.5954198, 0.65475, -3.4122138
0.0778235, -0.0010071, 0.6615, -0.0454712, 0.6615, -1.0066528, 0.6615, -0.1793213, 0.6615, 1.091603, 0.6615, 0.7175573, 0.6615, -3.3282442
0.0786176, 0.0008392, 0.66825, -0.0437622, 0.66825, -1.0061035, 0.66825, -0.1785889, 0.66825, 0.9312977, 0.66825, 0.7328244, 0.66825, -3.3740458
0.0794118, 0.0025177, 0.675, -0.0422363, 0.675, -1.0028076, 0.675, -0.1789551, 0.675, 1.0458015, 0.675, 0.610687, 0.675, -3.5877862
0.0802059, 0.0050355, 0.68175, -0.0431519, 0.68175, -1.0033569, 0.68175, -0.1830444, 0.68175, 0.8473282, 0.68175, 0.6641222, 0.68175, -3.5343511
0.081, 0.002182, 0.6885, -0.0424805, 0.6885, -0.9992065, 0.6885, -0.1831055, 0.6885, 0.9541985, 0.6885, 0.8549618, 0.6885, -3.2977099
0.0817941, 0.0023499, 0.69525, -0.0404053, 0.69525, -1.0009155, 0.69525, -0.1824341, 0.69525, 1.1450381, 0.69525, 0.9694657, 0.69525, -3.5038168
0.0825882, -0.0028534, 0.702, -0.039917, 0.702, -1.0016479, 0.702, -0.1809082, 0.702, 0.9007633, 0.702, 0.8396947, 0.702, -3.4656489
0.0833824, -0.008896, 0.70875, -0.0429077, 0.70875, -1.0010376, 0.70875, -0.1808472, 0.70875, 0.9847328, 0.70875, 0.8549618, 0.70875, -3.4045801
0.0841765, -0.0097353, 0.7155, -0.0429688, 0.7155, -1.0040894, 0.7155, -0.1773071, 0.7155, 0.8167939, 0.7155, 0.8854962, 0.7155, -3.480916
0.0849706, -0.0152743, 0.72225, -0.0462646, 0.72225, -1.0029297, 0.72225, -0.1752319, 0.72225, 0.908397, 0.72225, 0.8091603, 0.72225, -3.4732823
0.0857647, -0.0263523, 0.729, -0.0410767, 0.729, -1.0062256, 0.729, -0.1749268, 0.729, 1.0305344, 0.729, 0.7938932, 0.729, -3.6030533
0.0865588, -0.0270237, 0.73575, -0.0436401, 0.73575, -1.0026855, 0.73575, -0.1764526, 0.73575, 0.7328244, 0.73575, 0.7328244, 0.73575, -3.5038168
0.0873529, -0.026688, 0.7425, -0.0414429, 0.7425, -1.0036621, 0.7425, -0.1779175, 0.7425, 0.778626, 0.7425, 0.7938932, 0.7425, -3.5572519
0.0881471, -0.0256809, 0.74925, -0.0426025, 0.74925, -1.0083008, 0.74925, -0.1774902, 0.74925, 0.870229, 0.74925, 0.7328244, 0.74925, -3.2442749
0.0889412, -0.0250095, 0.756, -0.0463867, 0.756, -1.0039062, 0.756, -0.1793213, 0.756, 0.7938932, 0.756, 0.5725191, 0.756, -3.4427481
0.0897353, -0.0218204, 0.76275, -0.0427856, 0.76275, -1.0014648, 0.76275, -0.178894, 0.76275, 0.7938932, 0.76275, 0.2671756, 0.76275, -3.4427481
0.0905294, -0.0236667, 0.7695, -0.041748, 0.7695, -1.003418, 0.7695, -0.1836548, 0.7695, 0.9160305, 0.7695, 0.0839695, 0.7695, -3.610687
0.0913235, -0.0214847, 0.77625, -0.0411987, 0.77625, -1.0022583, 0.77625, -0.1765137, 0.77625, 0.7022901, 0.77625, 0.1450382, 0.77625, -3.3816793
0.0921176, -0.0193027, 0.783, -0.0423584, 0.783, -1.0039062, 0.783, -0.1812744, 0.783, 0.7099237, 0.783, 0.3740458, 0.783, -3.4732823
0.0929118, -0.0137636, 0.78975, -0.0404663, 0.78975, -1.0039673, 0.78975, -0.178833, 0.78975, 0.7557252, 0.78975, 0.2137405, 0.78975, -3.4122138
0.0937059, -0.0119173, 0.7965, -0.0396118, 0.7965, -1.0058594, 0.7965, -0.1809692, 0.7965, 0.9465649, 0.7965, 0.2748092, 0.7965, -3.3358779
0.0945, -0.0142672, 0.80325, -0.0425415, 0.80325, -1.0032959, 0.80325, -0.1791382, 0.80325, 0.870229, 0.80325, 0.4732825, 0.80325, -3.3282442
0.0952941, -0.0102388, 0.81, -0.0421753, 0.81, -0.999939, 0.81, -0.1811523, 0.81, 0.778626, 0.81, 0.6870229, 0.81, -3.4427481
0.0960882, -0.0048676, 0.81675, -0.0405884, 0.81675, -1.0002441, 0.81675, -0.1784668, 0.81675, 0.908397, 0.81675, 0.8473282, 0.81675, -3.4351146
0.0968824, 0.0003357, 0.8235, -0.039978, 0.8235, -1.0016479, 0.8235, -0.1828613, 0.8235, 0.9160305, 0.8235, 0.9770992, 0.8235, -3.2671757
0.0976765, 0.0018463, 0.83025, -0.0407104, 0.83025, -1.0005493, 0.83025, -0.1854248, 0.83025, 0.7480916, 0.83025, 1.1908396, 0.83025, -3.4198472
0.0984706, 0.0048676, 0.837, -0.0385742, 0.837, -1.0029907, 0.837, -0.1843262, 0.837, 0.6793893, 0.837, 1.2290076, 0.837, -3.2671757
0.0992647, -0.0052033, 0.84375, -0.0377808, 0.84375, -1.0036621, 0.84375, -0.1834717, 0.84375, 0.8244275, 0.84375, 1.4732825, 0.84375, -3.4656489
0.1000588, -0.0109102, 0.8505, -0.0387573, 0.8505, -1.0020752, 0.8505, -0.185791, 0.8505, 0.8931298, 0.8505, 1.778626, 0.8505, -3.4274809
0.1008529, -0.0082246, 0.85725, -0.0403442, 0.85725, -1.0046997, 0.85725, -0.1834106, 0.85725, 0.9160305, 0.85725, 1.9389313, 0.85725, -3.4045801
0.1016471, -0.0137636, 0.864, -0.0393066, 0.864, -1.005127, 0.864, -0.1850586, 0.864, 0.9770992, 0.864, 1.8167939, 0.864, -3.259542
0.1024412, -0.0229953, 0.87075, -0.0391846, 0.87075, -1.0028076, 0.87075, -0.182251, 0.87075, 0.908397, 0.87075, 1.8320611, 0.87075, -3.2442749
0.1032353, -0.0224918, 0.8775, -0.043457, 0.8775, -1.0053711, 0.8775, -0.1814575, 0.8775, 1.0458015, 0.8775, 1.7557251, 0.8775, -3.4274809
0.1040294, -0.0216526, 0.88425, -0.0445557, 0.88425, -1.0032349, 0.88425, -0.1830444, 0.88425, 1.0458015, 0.88425, 1.5343511, 0.88425, -3.4427481
0.1048235, -0.0250095, 0.891, -0.0418701, 0.891, -1.0030518, 0.891, -0.1819458, 0.891, 0.8015267, 0.891, 1.3206106, 0.891, -3.3053436
0.1056176, -0.0199741, 0.89775, -0.0436401, 0.89775, -1.0028687, 0.89775, -0.1854858, 0.89775, 1.038168, 0.89775, 1.1832061, 0.89775, -3.4732823
0.1064118, -0.0208133, 0.9045, -0.0408936, 0.9045, -1.0013428, 0.9045, -0.1862793, 0.9045, 1.1374046, 0.9045, 1.1908396, 0.9045, -3.3587787
0.1072059, -0.0218204, 0.91125, -0.0396729, 0.91125, -0.999939, 0.91125, -0.1837769, 0.91125, 1.1145039, 0.91125, 1.2824427, 0.91125, -3.5877862
0.108, -0.018967, 0.918, -0.0411987, 0.918, -1.0014038, 0.918, -0.1853027, 0.918, 1.1145039, 0.918, 1.2671756, 0.918, -3.1755726
0.1087941, -0.0203098, 0.92475, -0.0408325, 0.92475, -1.0004272, 0.92475, -0.1893311, 0.92475, 1.1221374, 0.92475, 1.4122137, 0.92475, -3.1450381
0.1095882, -0.0206455, 0.9315, -0.0422363, 0.9315, -0.9998169, 0.9315, -0.1853027, 0.9315, 1.2442749, 0.9315, 1.4351145, 0.9315, -3.2671757
0.1103824, -0.01561, 0.93825, -0.0396729, 0.93825, -1.0001221, 0.93825, -0.1852417, 0.93825, 1.2290076, 0.93825, 1.4122137, 0.93825, -3.4045801
0.1111765, -0.0115816, 0.945, -0.0390625, 0.945, -0.9991455, 0.945, -0.1818237, 0.945, 1.1679389, 0.945, 1.6030535, 0.945, -3.3282442
0.1119706, -0.008896, 0.95175, -0.0401611, 0.95175, -0.9989014, 0.95175, -0.1837158, 0.95175, 1.2290076, 0.95175, 1.9312977, 0.95175, -3.3740458
0.1127647, -0.0036927, 0.9585, -0.0407715, 0.9585, -0.9992676, 0.9585, -0.1817017, 0.9585, 1.1984733, 0.9585, 1.8854961, 0.9585, -3.2366412
0.1135588, -0.0028534, 0.96525, -0.0422363, 0.96525, -1.0015869, 0.96525, -0.182312, 0.96525, 1.2290076, 0.96525, 1.7709924, 0.96525, -3.2137403
0.1143529, -0.0075532, 0.972, -0.0419312, 0.972, -1.0003052, 0.972, -0.1821899, 0.972, 1.221374, 0.972, 1.4351145, 0.972, -3.2061069
0.1151471, -0.0109102, 0.97875, -0.041748, 0.97875, -1.0008545, 0.97875, -0.1810303, 0.97875, 1.1832061, 0.97875, 1.2442749, 0.97875, -3.2900763
0.1159412, -0.0105745, 0.9855, -0.0427246, 0.9855, -1.0028687, 0.9855, -0.1775513, 0.9855, 1, 0.9855, 1.0458015, 0.9855, -3.2900763
0.1167353, -0.0115816, 0.99225, -0.0415649, 0.99225, -1.0020142, 0.99225, -0.180603, 0.99225, 0.961832, 0.99225, 1.0534351, 0.99225, -3.2671757
0.1175294, -0.0099031, 0.999, -0.0422363, 0.999, -1.0012817, 0.999, -0.1854248, 0.999, 1.0229008, 0.999, 0.7251908, 0.999, -3.2748091
0.1183235, -0.012253, 1.00575, -0.0437012, 1.00575, -1.0039673, 1.00575, -0.1796265, 1.00575, 1.1679389, 1.00575, 0.778626, 1.00575, -3.4427481
0.1191176, -0.018967, 1.0125, -0.043457, 1.0125, -1.0060425, 1.0125, -0.1817627, 1.0125, 1.0229008, 1.0125, 0.5343512, 1.0125, -3.3358779
0.1199118, -0.0223239, 1.01925, -0.0432129, 1.01925, -1.0031738, 1.01925, -0.1845093, 1.01925, 1.0534351, 1.01925, 0.4961832, 1.01925, -3.4580152
0.1207059, -0.023331, 1.026, -0.0393677, 1.026, -1.0024414, 1.026, -0.1856689, 1.026, 1.1145039, 1.026, 0.4351145, 1.026, -3.2900763
0.1215, -0.0263523, 1.03275, -0.0380859, 1.03275, -1.0024414, 1.03275, -0.1825562, 1.03275, 1.1221374, 1.03275, 0.6259542, 1.03275, -3.3435113
0.1222941, -0.0273594, 1.0395, -0.0378418, 1.0395, -1.0021973, 1.0395, -0.184082, 1.0395, 1.1832061, 1.0395, 0.8778626, 1.0395, -3.5648854
0.1230882, -0.0287022, 1.04625, -0.039856, 1.04625, -1.0023193, 1.04625, -0.1810303, 1.04625, 1.2671756, 1.04625, 1.0305344, 1.04625, -3.3053436
0.1238824, -0.0253452, 1.053, -0.0424805, 1.053, -1.0010376, 1.053, -0.1784668, 1.053, 1.0839695, 1.053, 0.8625954, 1.053, -3.4351146
0.1246765, -0.024506, 1.05975, -0.0435791, 1.05975, -1.0026855, 1.05975, -0.180481, 1.05975, 1.0992366, 1.05975, 0.7251908, 1.05975, -3.4045801
0.1254706, -0.0270237, 1.0665, -0.0418091, 1.0665, -1.0028076, 1.0665, -0.1806641, 1.0665, 0.8854962, 1.0665, 0.4427481, 1.0665, -3.4122138
0.1262647, -0.018967, 1.07325, -0.0402832, 1.07325, -1.0027466, 1.07325, -0.1814575, 1.07325, 0.9465649, 1.07325, 0.4045801, 1.07325, -3.5419848
0.1270588, -0.0068818, 1.08, -0.0411377, 1.08, -0.9987793, 1.08, -0.185791, 1.08, 1.1984733, 1.08, 0.3587786, 1.08, -3.4045801
0.1278529, -0.002182, 1.08675, -0.0407715, 1.08675, -1.000061, 1.08675, -0.1834106, 1.08675, 1.259542, 1.08675, 0.3969466, 1.08675, -3.480916
0.1286471, -0.0008392, 1.0935, -0.0390015, 1.0935, -1.0041504, 1.0935, -0.1832275, 1.0935, 1.2061069, 1.0935, 0.5267175, 1.0935, -3.4503818
0.1294412, 0.0015106, 1.10025, -0.0379639, 1.10025, -1.0046387, 1.10025, -0.1828613, 1.10025, 1.0229008, 1.10025, 0.7557252, 1.10025, -3.351145
0.1302353, 0.003357, 1.107, -0.0379639, 1.107, -1.0018311, 1.107, -0.178833, 1.107, 1.0763359, 1.107, 0.9236641, 1.107, -3.389313
0.1310294, 0.0018463, 1.11375, -0.0430908, 1.11375, -1.0010376, 1.11375, -0.1812134, 1.11375, 1.2061069, 1.11375, 0.9160305, 1.11375, -3.3664122
0.1318235, -0.0028534, 1.1205, -0.0396729, 1.1205, -1.0029907, 1.1205, -0.1803589, 1.1205, 1.1908396, 1.1205, 0.9694657, 1.1205, -3.1832061
0.1326176, -0.0077211, 1.12725, -0.0402222, 1.12725, -1.0042725, 1.12725, -0.1815186, 1.12725, 1, 1.12725, 0.8549618, 1.12725, -3.4427481
0.1334118, -0.0105745, 1.134, -0.0418091, 1.134, -1.0024414, 1.134, -0.1771851, 1.134, 1.129771, 1.134, 0.7099237, 1.134, -3.3358779
0.1342059, -0.0139315, 1.14075, -0.0424194, 1.14075, -1.0027466, 1.14075, -0.1782837, 1.14075, 0.9923664, 1.14075, 0.3740458, 1.14075, -3.480916
0.135, -0.0203098, 1.1475, -0.0429688, 1.1475, -1.0047607, 1.1475, -0.1769409, 1.1475, 0.7938932, 1.1475, 0.2748092, 1.1475, -3.2061069
0.1357941, -0.0191348, 1.15425, -0.0376587, 1.15425, -1.0027466, 1.15425, -0.1809692, 1.15425, 0.9541985, 1.15425, 0.2671756, 1.15425, -3.3206108
0.1365882, -0.0236667, 1.161, -0.0413818, 1.161, -1.0021973, 1.161, -0.1796265, 1.161, 0.8473282, 1.161, 0.2137405, 1.161, -3.4122138
0.1373824, -0.027863, 1.16775, -0.0419922, 1.16775, -1.0025024, 1.16775, -0.1851807, 1.16775, 0.9160305, 1.16775, 0.5267175, 1.16775, -3.3053436
0.1381765, -0.026688, 1.1745, -0.0438843, 1.1745, -1.0032959, 1.1745, -0.182251, 1.1745, 0.9465649, 1.1745, 0.4732825, 1.1745, -3.1755726
0.1389706, -0.0250095, 1.18125, -0.045105, 1.18125, -1.001709, 1.18125, -0.1830444, 1.18125, 1, 1.18125, 0.648855, 1.18125, -3.2290077
0.1397647, -0.0303807, 1.188, -0.0400391, 1.188, -1.0033569, 1.188, -0.1832275, 1.188, 1, 1.188, 0.8167939, 1.188, -3.2824428
0.1405588, -0.0317235, 1.19475, -0.0375977, 1.19475, -1.0004272, 1.19475, -0.1816406, 1.19475, 1.091603, 1.19475, 0.9389313, 1.19475, -3.2748091
0.1413529, -0.0263523, 1.2015, -0.0426636, 1.2015, -1.0031738, 1.2015, -0.1841431, 1.2015, 1.0229008, 1.2015, 0.8625954, 1.2015, -3.1908398
0.1421471, -0.0199741, 1.20825, -0.0420532, 1.20825, -1.0036621, 1.20825, -0.1794434, 1.20825, 0.8931298, 1.20825, 0.5343512, 1.20825, -3.2366412
0.1429412, -0.0162814, 1.215, -0.0422363, 1.215, -1.0065308, 1.215, -0.1814575, 1.215, 1.038168, 1.215, 0.4961832, 1.215, -3.1984732
0.1437353, -0.0124208, 1.22175, -0.0406494, 1.22175, -1.0060425, 1.22175, -0.1834106, 1.22175, 1.1603054, 1.22175, 0.2290076, 1.22175, -3.259542
0.1445294, -0.0062104, 1.2285, -0.0439453, 1.2285, -1.0031128, 1.2285, -0.178894, 1.2285, 1.0992366, 1.2285, 0.0076336, 1.2285, -3.3587787
0.1453235, -0.0043641, 1.23525, -0.0391846, 1.23525, -1.0058594, 1.23525, -0.1815796, 1.23525, 0.9694657, 1.23525, -0.1603053, 1.23525, -3.2977099
0.1461176, -0.0028534, 1.242, -0.0394287, 1.242, -1.0045776, 1.242, -0.1819458, 1.242, 0.908397, 1.242, -0.1603053, 1.242, -3.351145
0.1469118, 0.0018463, 1.24875, -0.0372925, 1.24875, -1.0023193, 1.24875, -0.1793213, 1.24875, 1.0305344, 1.24875, -0.1526718, 1.24875, -3.3587787
0.1477059, 0.0025177, 1.2555, -0.0370483, 1.2555, -1.0057983, 1.2555, -0.1821289, 1.2555, 1.1068702, 1.2555, 0.1679389, 1.2555, -3.259542
0.1485, -0.0001678, 1.26225, -0.0427246, 1.26225, -0.9996338, 1.26225, -0.1835327, 1.26225, 1.0687023, 1.26225, 0.0458015, 1.26225, -3.2442749
0.1492941, -0.0023499, 1.269, -0.0405884, 1.269, -1.0003052, 1.269, -0.1878052, 1.269, 1.1908396, 1.269, 0.3664122, 1.269, -3.2977099
0.1500882, -0.0095674, 1.27575, -0.039978, 1.27575, -1.0014038, 1.27575, -0.182373, 1.27575, 1.1984733, 1.27575, 0.3206107, 1.27575, -3.1068702
0.1508824, -0.012253, 1.2825, -0.0424194, 1.2825, -1.0043335, 1.2825, -0.1804199, 1.2825, 1.2748091, 1.2825, 0.2137405, 1.2825, -3.2748091
0.1516765, -0.01561, 1.28925, -0.0388184, 1.28925, -1.0009155, 1.28925, -0.1880493, 1.28925, 1.2290076, 1.28925, 0.4427481, 1.28925, -3.1679389
0.1524706, -0.0186313, 1.296, -0.0359497, 1.296, -0.9966431, 1.296, -0.1831665, 1.296, 1.259542, 1.296, 0.4580153, 1.296, -3.2900763
0.1532647, -0.0243381, 1.30275, -0.0365601, 1.30275, -0.9979858, 1.30275, -0.18573, 1.30275, 1.4045801, 1.30275, 0.8015267, 1.30275, -3.1145039
0.1540588, -0.0297093, 1.3095, -0.0391235, 1.3095, -0.9963989, 1.3095, -0.1898193, 1.3095, 1.480916, 1.3095, 0.7633588, 1.3095, -3.1221373
0.1548529, -0.0297093, 1.31625, -0.0389404, 1.31625, -1.0009766, 1.31625, -0.1869507, 1.31625, 1.4045801, 1.31625, 0.9770992, 1.31625, -3.3053436
0.1556471, -0.0270237, 1.323, -0.0380249, 1.323, -1.0018921, 1.323, -0.1887207, 1.323, 1.4961832, 1.323, 1.1221374, 1.323, -3.2061069
0.1564412, -0.0256809, 1.32975, -0.039856, 1.32975, -1.0001221, 1.32975, -0.1844482, 1.32975, 1.5114504, 1.32975, 1.1603054, 1.32975, -3.1221373
0.1572353, -0.0285344, 1.3365, -0.0396729, 1.3365, -0.9997559, 1.3365, -0.1835938, 1.3365, 1.6564885, 1.3365, 1.1755725, 1.3365, -3.2290077
0.1580294, -0.0251774, 1.34325, -0.0368042, 1.34325, -1.0001831, 1.34325, -0.18927, 1.34325, 1.7099236, 1.34325, 1.4961832, 1.34325, -3.1374047
0.1588235, -0.0186313, 1.35, -0.0376587, 1.35, -1.0001831, 1.35, -0.1875, 1.35, 1.7328244, 1.35, 1.5877863, 1.35, -2.8931298
0.1596176, -0.0194705, 1.35675, -0.034729, 1.35675, -1.0003662, 1.35675, -0.1831055, 1.35675, 1.740458, 1.35675, 1.8854961, 1.35675, -2.6946564
0.1604118, -0.0159457, 1.3635, -0.0325928, 1.3635, -0.9969482, 1.3635, -0.1868896, 1.3635, 1.740458, 1.3635, 1.4122137, 1.3635, -2.778626
0.1612059, -0.0092317, 1.37025, -0.0345459, 1.37025, -1.0036011, 1.37025, -0.1931152, 1.37025, 1.8473282, 1.37025, 1.5114504, 1.37025, -2.908397
0.162, -0.0031891, 1.377, -0.0368042, 1.377, -1.0065918, 1.377, -0.1902466, 1.377, 2.2824428, 1.377, 2.0534351, 1.377, -2.9236641
0.1627941, -0.0048676, 1.38375, -0.0366821, 1.38375, -1.0057373, 1.38375, -0.1877441, 1.38375, 2.3816793, 1.38375, 2.2061069, 1.38375, -2.7938931
0.1635882, -0.0045319, 1.3905, -0.0411987, 1.3905, -1.00354, 1.3905, -0.1889648, 1.3905, 2.2671757, 1.3905, 2.3435113, 1.3905, -2.8015268
0.1643824, -0.0025177, 1.39725, -0.0405884, 1.39725, -1.0014648, 1.39725, -0.1882324, 1.39725, 2.3282442, 1.39725, 2.4427481, 1.39725, -2.6793892
0.1651765, -0.0015106, 1.404, -0.0410156, 1.404, -1.003479, 1.404, -0.1834717, 1.404, 2.3358779, 1.404, 2.3435113, 1.404, -2.8549619
0.1659706, -0.0013428, 1.41075, -0.0413208, 1.41075, -1.0023193, 1.41075, -0.1818848, 1.41075, 2.4274809, 1.41075, 2.3587787, 1.41075, -2.8396947
0.1667647, -0.0018463, 1.4175, -0.0380859, 1.4175, -1.0023804, 1.4175, -0.1789551, 1.4175, 2.3282442, 1.4175, 2.2977099, 1.4175, -2.8244274
0.1675588, -0.0063783, 1.42425, -0.0435791, 1.42425, -1.003418, 1.42425, -0.1761475, 1.42425, 2.2824428, 1.42425, 2.351145, 1.42425, -2.7251909
0.1683529, -0.0085603, 1.431, -0.0471191, 1.431, -1.0015869, 1.431, -0.1757812, 1.431, 2.259542, 1.431, 2.221374, 1.431, -2.7938931
0.1691471, -0.0129244, 1.43775, -0.0481567, 1.43775, -1.0021973, 1.43775, -0.1692505, 1.43775, 2.1603053, 1.43775, 1.9541985, 1.43775, -2.9236641
0.1699412, -0.0176242, 1.4445, -0.0455322, 1.4445, -1.0057983, 1.4445, -0.1692505, 1.4445, 1.8778626, 1.4445, 1.6259542, 1.4445, -3.0076337
0.1707353, -0.0199741, 1.45125, -0.0462036, 1.45125, -1.0006104, 1.45125, -0.1721191, 1.45125, 1.7709924, 1.45125, 1.5496184, 1.45125, -2.9007633
0.1715294, -0.0229953, 1.458, -0.0476685, 1.458, -1.0013428, 1.458, -0.1677856, 1.458, 1.4122137, 1.458, 1.4198474, 1.458, -2.9923663
0.1723235, -0.0236667, 1.46475, -0.0459595, 1.46475, -1.0025635, 1.46475, -0.1671143, 1.46475, 1.3206106, 1.46475, 1.259542, 1.46475, -3.1145039
0.1731176, -0.0253452, 1.4715, -0.0463257, 1.4715, -1.00354, 1.4715, -0.1645508, 1.4715, 0.9847328, 1.4715, 1.0305344, 1.4715, -3.0610688
0.1739118, -0.0263523, 1.47825, -0.0491333, 1.47825, -1.0003662, 1.47825, -0.1689453, 1.47825, 0.9694657, 1.47825, 0.8244275, 1.47825, -3.0763359
0.1747059, -0.0221561, 1.485, -0.0460205, 1.485, -1.0023804, 1.485, -0.1668701, 1.485, 0.7709923, 1.485, 0.3435115, 1.485, -3.351145
0.1755, -0.0240024, 1.49175, -0.043396, 1.49175, -1.0005493, 1.49175, -0.1693115, 1.49175, 0.5725191, 1.49175, 0.0763359, 1.49175, -3.4351146
0.1762941, -0.0179599, 1.4985, -0.0429688, 1.4985, -0.9981689, 1.4985, -0.1740723, 1.4985, 0.5267175, 1.4985, -0.1145038, 1.4985, -3.2137403
0.1770882, -0.0119173, 1.50525, -0.0440063, 1.50525, -1.003479, 1.50525, -0.1763916, 1.50525, 0.3816794, 1.50525, -0.0687023, 1.50525, -3.1679389
0.1778824, -0.0105745, 1.512, -0.041748, 1.512, -1.0029907, 1.512, -0.1786499, 1.512, 0.3053435, 1.512, 0.0534351, 1.512, -3.0687022
0.1786765, -0.0068818, 1.51875, -0.0421143, 1.51875, -1.0036011, 1.51875, -0.1828613, 1.51875, 0.221374, 1.51875, 0.3206107, 1.51875, -3.0687022
0.1794706, -0.0043641, 1.5255, -0.039978, 1.5255, -1.0036011, 1.5255, -0.1873779, 1.5255, 0.1450382, 1.5255, 0.3206107, 1.5255, -3.1450381
0.1802647, -0.0028534, 1.53225, -0.0410156, 1.53225, -1.0043335, 1.53225, -0.1848145, 1.53225, 0.2900763, 1.53225, 0.4122137, 1.53225, -3.259542
0.1810588, -0.002182, 1.539, -0.0368652, 1.539, -1.0054321, 1.539, -0.1850586, 1.539, 0.4656489, 1.539, 0.5038168, 1.539, -3.1526718
0.1818529, -0.002182, 1.54575, -0.0372314, 1.54575, -1.0058594, 1.54575, -0.1852417, 1.54575, 0.5114504, 1.54575, 0.4885496, 1.54575, -3.259542
0.1826471, -0.0082246, 1.5525, -0.0377808, 1.5525, -1.0047607, 1.5525, -0.1864014, 1.5525, 0.4656489, 1.5525, 0.2748092, 1.5525, -3.1832061
0.1834412, -0.0125887, 1.55925, -0.0388794, 1.55925, -1.0042725, 1.55925, -0.1873779, 1.55925, 0.3969466, 1.55925, 0.1755725, 1.55925, -3.2442749
0.1842353, -0.0135958, 1.566, -0.0393677, 1.566, -1.0058594, 1.566, -0.1854248, 1.566, 0.7633588, 1.566, 0.0534351, 1.566, -3.2290077
0.1850294, -0.0102388, 1.57275, -0.0362549, 1.57275, -1.005188, 1.57275, -0.1864624, 1.57275, 0.9541985, 1.57275, -0.1908397, 1.57275, -3.3816793
0.1858235, -0.0162814, 1.5795, -0.0337524, 1.5795, -1.0040894, 1.5795, -0.1885376, 1.5795, 0.778626, 1.5795, -0.1832061, 1.5795, -3.0534351
0.1866176, -0.023331, 1.58625, -0.0341797, 1.58625, -1.0028687, 1.58625, -0.1867676, 1.58625, 0.870229, 1.58625, -0.1221374, 1.58625, -3.1679389
0.1874118, -0.0243381, 1.593, -0.0372314, 1.593, -1.0010376, 1.593, -0.1869507, 1.593, 1.0839695, 1.593, 0.1068702, 1.593, -3.1145039
0.1882059, -0.0229953, 1.59975, -0.0377197, 1.59975, -1.0025024, 1.59975, -0.1854858, 1.59975, 1.0152671, 1.59975, 0.389313, 1.59975, -3.0152671
0.189, -0.018967, 1.6065, -0.0372314, 1.6065, -1.0021973, 1.6065, -0.1882935, 1.6065, 1.0992366, 1.6065, 0.2824427, 1.6065, -2.9694657
0.1897941, -0.0206455, 1.61325, -0.0394897, 1.61325, -1.0018311, 1.61325, -0.1860962, 1.61325, 1.3129771, 1.61325, 0.2977099, 1.61325, -3.0305343
0.1905882, -0.0203098, 1.62, -0.0400391, 1.62, -1.0001831, 1.62, -0.1868286, 1.62, 1.2290076, 1.62, 0.4503817, 1.62, -3.0763359
0.1913824, -0.0199741, 1.62675, -0.0437012, 1.62675, -1.0018311, 1.62675, -0.1833496, 1.62675, 1.3206106, 1.62675, 0.3587786, 1.62675, -2.9236641
0.1921765, -0.0179599, 1.6335, -0.0419922, 1.6335, -1.0029297, 1.6335, -0.1829224, 1.6335, 1.2137405, 1.6335, 0.259542, 1.6335, -2.8091602
0.1929706, -0.012253, 1.64025, -0.0401001, 1.64025, -1.0050659, 1.64025, -0.1783447, 1.64025, 1.3206106, 1.64025, -0.0992366, 1.64025, -2.9770992
0.1937647, -0.0172885, 1.647, -0.0390625, 1.647, -1.00354, 1.647, -0.1789551, 1.647, 1.3129771, 1.647, -0.3664122, 1.647, -3.0305343
0.1945588, -0.0162814, 1.65375, -0.0414429, 1.65375, -1.0001221, 1.65375, -0.1799316, 1.65375, 1.3664122, 1.65375, -0.1603053, 1.65375, -2.9007633
0.1953529, -0.0125887, 1.6605, -0.039978, 1.6605, -1.000061, 1.6605, -0.1827393, 1.6605, 1.4503816, 1.6605, 0.0992366, 1.6605, -2.8244274
0.1961471, -0.0115816, 1.66725, -0.0404663, 1.66725, -1.0031128, 1.66725, -0.1843262, 1.66725, 1.4122137, 1.66725, 0.0534351, 1.66725, -2.908397
0.1969412, -0.0109102, 1.674, -0.0386353, 1.674, -1.0028687, 1.674, -0.1845703, 1.674, 1.6030535, 1.674, 0.0305344, 1.674, -2.8778627
0.1977353, -0.0068818, 1.68075, -0.0410156, 1.68075, -1.0008545, 1.68075, -0.1809692, 1.68075, 1.4198474, 1.68075, 0.3129771, 1.68075, -2.9541984
0.1985294, -0.0048676, 1.6875, -0.0421143, 1.6875, -1.0029297, 1.6875, -0.1806641, 1.6875, 1.4503816, 1.6875, 0.4045801, 1.6875, -2.8015268
0.1993235, -0.0092317, 1.69425, -0.0418701, 1.69425, -1.0006104, 1.69425, -0.1776733, 1.69425, 1.6030535, 1.69425, 0.3816794, 1.69425, -2.908397
0.2001176, -0.0125887, 1.701, -0.0450439, 1.701, -1.0042725, 1.701, -0.1800537, 1.701, 1.4885496, 1.701, 0.0076336, 1.701, -3.129771
0.2009118, -0.01561, 1.70775, -0.043335, 1.70775, -1.0040283, 1.70775, -0.1774292, 1.70775, 1.5801526, 1.70775, -0.0229008, 1.70775, -3.1450381
0.2017059, -0.01561, 1.7145, -0.0443726, 1.7145, -1.0059204, 1.7145, -0.1813965, 1.7145, 1.5572519, 1.7145, -0.1221374, 1.7145, -3.0687022
0.2025, -0.0208133, 1.72125, -0.0446777, 1.72125, -1.0041504, 1.72125, -0.1834106, 1.72125, 1.5267175, 1.72125, -0.0305344, 1.72125, -2.9312978
0.2032941, -0.0253452, 1.728, -0.0426636, 1.728, -1.0021973, 1.728, -0.1887207, 1.728, 1.6564885, 1.728, -0.0534351, 1.728, -3.0687022
0.2040882, -0.0250095, 1.73475, -0.0418091, 1.73475, -0.9997559, 1.73475, -0.1889038, 1.73475, 1.648855, 1.73475, 0.221374, 1.73475, -2.9923663
0.2048824, -0.017792, 1.7415, -0.0396118, 1.7415, -1.0025635, 1.7415, -0.1879272, 1.7415, 1.8549619, 1.7415, 0.4503817, 1.7415, -2.9923663
0.2056765, -0.0199741, 1.74825, -0.039978, 1.74825, -1.0023804, 1.74825, -0.1867065, 1.74825, 1.7480916, 1.74825, 0.4351145, 1.74825, -2.8167939
0.2064706, -0.0231632, 1.755, -0.0422974, 1.755, -0.99823, 1.755, -0.1859131, 1.755, 1.7480916, 1.755, 0.5572519, 1.755, -2.8320611
0.2072647, -0.0223239, 1.76175, -0.0409546, 1.76175, -1.0001221, 1.76175, -0.1856689, 1.76175, 1.8473282, 1.76175, 0.4274809, 1.76175, -3.1603053
0.2080588, -0.0199741, 1.7685, -0.0435181, 1.7685, -1.00177, 1.7685, -0.1859131, 1.7685, 2.1526718, 1.7685, 0.3664122, 1.7685, -3.129771
0.2088529, -0.0135958, 1.77525, -0.0424805, 1.77525, -0.9995117, 1.77525, -0.1860352, 1.77525, 2.2290077, 1.77525, 0.5725191, 1.77525, -3
0.2096471, -0.0065461, 1.782, -0.0414429, 1.782, -1.0007935, 1.782, -0.1845703, 1.782, 2.1679389, 1.782, 0.8167939, 1.782, -3.0229008
0.2104412, -0.0090639, 1.78875, -0.0438843, 1.78875, -0.9995728, 1.78875, -0.1832275, 1.78875, 2.1984732, 1.78875, 1.0458015, 1.78875, -3.0152671
0.2112353, -0.0065461, 1.7955, -0.039917, 1.7955, -1.0006714, 1.7955, -0.1830444, 1.7955, 2.0458016, 1.7955, 1, 1.7955, -2.8396947
0.2120294, -0.0010071, 1.80225, -0.0412598, 1.80225, -1.0016479, 1.80225, -0.1843262, 1.80225, 2.3358779, 1.80225, 0.9770992, 1.80225, -2.9847329
0.2128235, 0.0045319, 1.809, -0.0400391, 1.809, -1.0029297, 1.809, -0.1798706, 1.809, 2.2824428, 1.809, 1.0687023, 1.809, -2.8167939
0.2136176, 0.0035248, 1.81575, -0.0425415, 1.81575, -1.0049438, 1.81575, -0.177063, 1.81575, 2.2977099, 1.81575, 1.0763359, 1.81575, -2.9923663
0.2144118, -0.0036927, 1.8225, -0.0437012, 1.8225, -1.0013428, 1.8225, -0.1762695, 1.8225, 2.3664122, 1.8225, 0.8854962, 1.8225, -3.0610688
0.2152059, -0.0095674, 1.82925, -0.045105, 1.82925, -1.0013428, 1.82925, -0.1734619, 1.82925, 2.1908398, 1.82925, 0.3740458, 1.82925, -2.8549619
0.216, -0.0119173, 1.836, -0.0456543, 1.836, -1.0003662, 1.836, -0.1746216, 1.836, 2.0839694, 1.836, 0.2519084, 1.836, -3.0992367
0.2167941, -0.0125887, 1.84275, -0.0476074, 1.84275, -1.0036011, 1.84275, -0.1738892, 1.84275, 2.038168, 1.84275, 0.0610687, 1.84275, -3.0152671
0.2175882, -0.0159457, 1.8495, -0.0484619, 1.8495, -1.0048218, 1.8495, -0.1744385, 1.8495, 1.908397, 1.8495, -0.2137405, 1.8495, -3.2137403
0.2183824, -0.0203098, 1.85625, -0.0477295, 1.85625, -1.0040894, 1.85625, -0.1837769, 1.85625, 1.9770992, 1.85625, -0.2748092, 1.85625, -3.2519083
0.2191765, -0.0231632, 1.863, -0.0422363, 1.863, -1.0057983, 1.863, -0.1776123, 1.863, 1.9541985, 1.863, -0.1068702, 1.863, -3.2366412
0.2199706, -0.0224918, 1.86975, -0.0414429, 1.86975, -1.0050659, 1.86975, -0.1810913, 1.86975, 2.0458016, 1.86975, -0.0763359, 1.86975, -3.0687022
0.2207647, -0.0193027, 1.8765, -0.0403442, 1.8765, -1.0078735, 1.8765, -0.1796875, 1.8765, 2.0687022, 1.8765, -0.0458015, 1.8765, -3.2061069
0.2215588, -0.0184634, 1.88325, -0.0339355, 1.88325, -1.005188, 1.88325, -0.1844482, 1.88325, 2.3435113, 1.88325, 0.0305344, 1.88325, -3.1145039
0.2223529, -0.0182956, 1.89, -0.0367432, 1.89, -1.0056152, 1.89, -0.1802979, 1.89, 2.1450381, 1.89, 0.4885496, 1.89, -3.1755726
0.2231471, -0.0179599, 1.89675, -0.0383301, 1.89675, -1.0056152, 1.89675, -0.1759033, 1.89675, 2.3740458, 1.89675, 0.6870229, 1.89675, -3.0687022
0.2239412, -0.018967, 1.9035, -0.0407715, 1.9035, -1.0041504, 1.9035, -0.1801147, 1.9035, 2.1908398, 1.9035, 0.6717557, 1.9035, -3.2137403
0.2247353, -0.0182956, 1.91025, -0.0483398, 1.91025, -1.0041504, 1.91025, -0.1812744, 1.91025, 2.3358779, 1.91025, 0.2061069, 1.91025, -3.2061069
0.2255294, -0.018967, 1.917, -0.0469971, 1.917, -1.0012817, 1.917, -0.1833496, 1.917, 2.3816793, 1.917, 0.1755725, 1.917, -3.1068702
0.2263235, -0.0149386, 1.92375, -0.0429688, 1.92375, -0.9998169, 1.92375, -0.1779175, 1.92375, 2.3129771, 1.92375, 0.1832061, 1.92375, -3.1221373
0.2271176, -0.0095674, 1.9305, -0.0386963, 1.9305, -1.0009766, 1.9305, -0.1832886, 1.9305, 2.1145039, 1.9305, 0.2671756, 1.9305, -3.1374047
0.2279118, -0.0082246, 1.93725, -0.0396729, 1.93725, -1.0020752, 1.93725, -0.178833, 1.93725, 2.1832061, 1.93725, 0.5114504, 1.93725, -3.0152671
0.2287059, -0.0045319, 1.944, -0.038269, 1.944, -1, 1.944, -0.1796875, 1.944, 2.1679389, 1.944, 0.9465649, 1.944, -3.0534351
0.2295, -0.002182, 1.95075, -0.0394897, 1.95075, -1.0026855, 1.95075, -0.1806641, 1.95075, 2.4122138, 1.95075, 1.2366412, 1.95075, -3.0992367
0.2302941, -0.0018463, 1.9575, -0.0360718, 1.9575, -1.0014038, 1.9575, -0.1802979, 1.9575, 2.4580152, 1.9575, 1.3740458, 1.9575, -2.908397
0.2310882, -0.0015106, 1.96425, -0.0415649, 1.96425, -0.9996338, 1.96425, -0.1834717, 1.96425, 2.4351146, 1.96425, 1.4427481, 1.96425, -2.8549619
0.2318824, -0.0072175, 1.971, -0.0396729, 1.971, -0.9997559, 1.971, -0.1792603, 1.971, 2.4198472, 1.971, 1.6870229, 1.971, -2.7251909
0.2326765, -0.0092317, 1.97775, -0.0355225, 1.97775, -1.0010986, 1.97775, -0.1818848, 1.97775, 2.5801528, 1.97775, 1.5648855, 1.97775, -2.8396947
0.2334706, -0.0117494, 1.9845, -0.041626, 1.9845, -1.0027466, 1.9845, -0.1855469, 1.9845, 2.778626, 1.9845, 1.6259542, 1.9845, -2.8320611
0.2342647, -0.018967, 1.99125, -0.0397339, 1.99125, -1.0060425, 1.99125, -0.1865234, 1.99125, 2.8854961, 1.99125, 1.4580153, 1.99125, -2.8167939
0.2350588, -0.0172885, 1.998, -0.0351562, 1.998, -1.0009766, 1.998, -0.1815186, 1.998, 2.908397, 1.998, 1.6870229, 1.998, -2.7938931
0.2358529, -0.0223239, 2.00475, -0.03302, 2.00475, -1.0015869, 2.00475, -0.1831055, 2.00475, 3, 2.00475, 2.2900763, 2.00475, -2.6183207
0.2366471, -0.0240024, 2.0115, -0.0390625, 2.0115, -1.0078735, 2.0115, -0.1850586, 2.0115, 3.1908398, 2.0115, 2.7022901, 2.0115, -2.5877862
0.2374412, -0.0236667, 2.01825, -0.0393677, 2.01825, -1.0056152, 2.01825, -0.1871948, 2.01825, 3.351145, 2.01825, 2.8244274, 2.01825, -2.6412213
0.2382353, -0.026688, 2.025, -0.0388184, 2.025, -1.0033569, 2.025, -0.1829834, 2.025, 3.3129771, 2.025, 2.9923663, 2.025, -2.519084
0.2390294, -0.0290379, 2.03175, -0.0397949, 2.03175, -1.0008545, 2.03175, -0.1803589, 2.03175, 3.389313, 2.03175, 3.0229008, 2.03175, -2.4503818
0.2398235, -0.0280308, 2.0385, -0.0414429, 2.0385, -1.0040283, 2.0385, -0.1828003, 2.0385, 3.519084, 2.0385, 3.1526718, 2.0385, -2.480916
0.2406176, -0.0270237, 2.04525, -0.0401611, 2.04525, -1.005127, 2.04525, -0.1832275, 2.04525, 3.7099237, 2.04525, 3.3282442, 2.04525, -2.3969467
0.2414118, -0.0206455, 2.052, -0.0392456, 2.052, -1.005127, 2.052, -0.1838379, 2.052, 3.8473282, 2.052, 3.4580152, 2.052, -2.4732823
0.2422059, -0.0169528, 2.05875, -0.0400391, 2.05875, -1.0048828, 2.05875, -0.1834106, 2.05875, 4.1068702, 2.05875, 3.6335878, 2.05875, -2.5496182
0.243, -0.018967, 2.0655, -0.0401001, 2.0655, -1.001709, 2.0655, -0.182373, 2.0655, 4.1526718, 2.0655, 4.0687022, 2.0655, -2.5343511
0.2437941, -0.0182956, 2.07225, -0.0402832, 2.07225, -1.0022583, 2.07225, -0.1791382, 2.07225, 4.0992365, 2.07225, 4.2290077, 2.07225, -2.3816793
0.2445882, -0.0157778, 2.079, -0.0454102, 2.079, -1.0032959, 2.079, -0.1747437, 2.079, 4.3664122, 2.079, 4.3053436, 2.079, -2.259542
0.2453824, -0.0099031, 2.08575, -0.0458984, 2.08575, -1.0028687, 2.08575, -0.1674194, 2.08575, 4.2824426, 2.08575, 4.2900763, 2.08575, -2.4961832
0.2461765, -0.002182, 2.0925, -0.0419312, 2.0925, -1.0009155, 2.0925, -0.166687, 2.0925, 4.4045801, 2.0925, 3.9847329, 2.0925, -2.4885497
0.2469706, -0.0028534, 2.09925, -0.0425415, 2.09925, -1.0045776, 2.09925, -0.1653442, 2.09925, 4.3053436, 2.09925, 4.0992365, 2.09925, -2.5496182
0.2477647, -0.0068818, 2.106, -0.0478516, 2.106, -1.0044556, 2.106, -0.163269, 2.106, 4.0839696, 2.106, 4.4351144, 2.106, -2.5725191
0.2485588, -0.0082246, 2.11275, -0.048645, 2.11275, -1.0029907, 2.11275, -0.1655884, 2.11275, 3.9465649, 2.11275, 3.9847329, 2.11275, -2.610687
0.2493529, -0.0097353, 2.1195, -0.0469971, 2.1195, -1.0009766, 2.1195, -0.1643066, 2.1195, 3.7633588, 2.1195, 4.0152674, 2.1195, -2.5725191
0.2501471, -0.0085603, 2.12625, -0.0438843, 2.12625, -1.0044556, 2.12625, -0.1593628, 2.12625, 3.8854961, 2.12625, 3.5648854, 2.12625, -2.4732823
0.2509412, -0.0152743, 2.133, -0.0450439, 2.133, -1.0009155, 2.133, -0.1590576, 2.133, 3.5114503, 2.133, 3.7557251, 2.133, -2.6335878
0.2517353, -0.0166171, 2.13975, -0.0460815, 2.13975, -1.0009155, 2.13975, -0.1578979, 2.13975, 3.6946564, 2.13975, 3.5725191, 2.13975, -2.519084
0.2525294, -0.0129244, 2.1465, -0.0514526, 2.1465, -1.0040894, 2.1465, -0.1524048, 2.1465, 3.3358779, 2.1465, 3.2977099, 2.1465, -2.6183207
0.2533235, -0.0172885, 2.15325, -0.0483398, 2.15325, -1.0028687, 2.15325, -0.1558228, 2.15325, 3.1221373, 2.15325, 3.1145039, 2.15325, -2.6259542
0.2541176, -0.0251774, 2.16, -0.0483398, 2.16, -1.0012207, 2.16, -0.1531372, 2.16, 3.1068702, 2.16, 2.8167939, 2.16, -2.6259542
0.2549118, -0.0280308, 2.16675, -0.0494995, 2.16675, -1.0007324, 2.16675, -0.1539917, 2.16675, 2.7633588, 2.16675, 2.5496182, 2.16675, -2.6641221
0.2557059, -0.0243381, 2.1735, -0.0479126, 2.1735, -1.0024414, 2.1735, -0.1572876, 2.1735, 2.5343511, 2.1735, 2.3587787, 2.1735, -2.5496182
0.2565, -0.0193027, 2.18025, -0.0426025, 2.18025, -1.00177, 2.18025, -0.1600342, 2.18025, 2.5114503, 2.18025, 2.5038168, 2.18025, -2.5648854
0.2572941, -0.0219883, 2.187, -0.0440063, 2.187, -1.00177, 2.187, -0.1608887, 2.187, 2.3816793, 2.187, 2.4961832, 2.187, -2.5877862
0.2580882, -0.0223239, 2.19375, -0.0498047, 2.19375, -1.00177, 2.19375, -0.1611328, 2.19375, 2.0992367, 2.19375, 2.5114503, 2.19375, -2.4961832
0.2588824, -0.017792, 2.2005, -0.048584, 2.2005, -1.0014038, 2.2005, -0.1582031, 2.2005, 1.9847329, 2.2005, 2.1603053, 2.2005, -2.6183207
0.2596765, -0.0119173, 2.20725, -0.0467529, 2.20725, -1.0050049, 2.20725, -0.1604614, 2.20725, 1.7328244, 2.20725, 1.4961832, 2.20725, -2.8167939
0.2604706, -0.0082246, 2.214, -0.0432739, 2.214, -1.0026245, 2.214, -0.1615601, 2.214, 1.9160305, 2.214, 1.3129771, 2.214, -2.6030533
0.2612647, -0.0028534, 2.22075, -0.0419922, 2.22075, -1.0028687, 2.22075, -0.1655884, 2.22075, 1.6412214, 2.22075, 1.2442749, 2.22075, -2.5725191
0.2620588, -0.0018463, 2.2275, -0.0397339, 2.2275, -1.0049438, 2.2275, -0.1610107, 2.2275, 1.6412214, 2.2275, 1.1603054, 2.2275, -2.7251909
0.2628529, 0.0018463, 2.23425, -0.0411987, 2.23425, -1.0018311, 2.23425, -0.1700439, 2.23425, 1.4732825, 2.23425, 1.0763359, 2.23425, -2.7175572
0.2636471, 0.0048676, 2.241, -0.045105, 2.241, -1.001709, 2.241, -0.1697388, 2.241, 1.519084, 2.241, 1, 2.241, -2.6793892
0.2644412, 0.0025177, 2.24775, -0.0435791, 2.24775, -0.9998169, 2.24775, -0.1699829, 2.24775, 1.6030535, 2.24775, 1.1145039, 2.24775, -2.7938931
0.2652353, -0.0003357, 2.2545, -0.0455322, 2.2545, -1.005127, 2.2545, -0.164978, 2.2545, 1.5496184, 2.2545, 0.9389313, 2.2545, -2.7557251
0.2660294, -0.0035248, 2.26125, -0.046936, 2.26125, -1.0050049, 2.26125, -0.1640625, 2.26125, 1.3969465, 2.26125, 0.8931298, 2.26125, -2.6412213
0.2668235, -0.0135958, 2.268, -0.0482788, 2.268, -1.0056763, 2.268, -0.1638184, 2.268, 1.2519084, 2.268, 0.8091603, 2.268, -2.6564887
0.2676176, -0.0149386, 2.27475, -0.0470581, 2.27475, -1.00354, 2.27475, -0.163147, 2.27475, 1.259542, 2.27475, 0.4885496, 2.27475, -2.6259542
0.2684118, -0.0162814, 2.2815, -0.0446777, 2.2815, -1.0044556, 2.2815, -0.1598511, 2.2815, 1.0152671, 2.2815, 0.5267175, 2.2815, -2.6259542
0.2692059, -0.0209812, 2.28825, -0.0430298, 2.28825, -1.0036011, 2.28825, -0.1572266, 2.28825, 1.0687023, 2.28825, 0.3816794, 2.28825, -2.6641221
0.27, -0.0260166, 2.295, -0.0438843, 2.295, -1.003418, 2.295, -0.163269, 2.295, 0.870229, 2.295, 0.5114504, 2.295, -2.6870229
0.2707941, -0.0270237, 2.30175, -0.0469971, 2.30175, -1.0026245, 2.30175, -0.1599731, 2.30175, 0.8396947, 2.30175, 0.5038168, 2.30175, -2.6030533
0.2715882, -0.0280308, 2.3085, -0.0447998, 2.3085, -1.003418, 2.3085, -0.1618652, 2.3085, 0.908397, 2.3085, 0.6183206, 2.3085, -2.7251909
0.2723824, -0.0246738, 2.31525, -0.0443726, 2.31525, -1.0025024, 2.31525, -0.1655273, 2.31525, 0.8015267, 2.31525, 0.610687, 2.31525, -2.7862597
0.2731765, -0.0206455, 2.322, -0.045166, 2.322, -1.0015259, 2.322, -0.1665649, 2.322, 0.6030535, 2.322, 0.6259542, 2.322, -2.6717558
0.2739706, -0.01561, 2.32875, -0.0449219, 2.32875, -0.9990845, 2.32875, -0.1638184, 2.32875, 0.5038168, 2.32875, 0.8167939, 2.32875, -2.5801528
0.2747647, -0.0146029, 2.3355, -0.0504761, 2.3355, -1.0002441, 2.3355, -0.1615601, 2.3355, 0.5343512, 2.3355, 0.9541985, 2.3355, -2.6946564
0.2755588, -0.0157778, 2.34225, -0.0527344, 2.34225, -0.9996338, 2.34225, -0.1610107, 2.34225, 0.2671756, 2.34225, 0.8167939, 2.34225, -2.9007633
0.2763529, -0.0146029, 2.349, -0.0551147, 2.349, -0.9992676, 2.349, -0.1607056, 2.349, 0.2061069, 2.349, 0.2519084, 2.349, -2.7862597
0.2771471, -0.0102388, 2.35575, -0.055542, 2.35575, -1.0004883, 2.35575, -0.1633301, 2.35575, 0.0839695, 2.35575, -0.0229008, 2.35575, -2.7175572
0.2779412, -0.005539, 2.3625, -0.0524292, 2.3625, -0.9981689, 2.3625, -0.1624146, 2.3625, -0.0687023, 2.3625, -0.2366412, 2.3625, -2.8778627
0.2787353, -0.0041962, 2.36925, -0.0460205, 2.36925, -1.0027466, 2.36925, -0.1628418, 2.36925, -0.2290076, 2.36925, -0.3664122, 2.36925, -2.7480917
0.2795294, -0.0020142, 2.376, -0.0477905, 2.376, -1.0021362, 2.376, -0.1640015, 2.376, -0.1526718, 2.376, -0.0381679, 2.376, -2.9312978
0.2803235, -0.0045319, 2.38275, -0.0465698, 2.38275, -1.0062256, 2.38275, -0.1645508, 2.38275, -0.259542, 2.38275, -0.0992366, 2.38275, -2.648855
0.2811176, -0.0038605, 2.3895, -0.0481567, 2.3895, -1.0078125, 2.3895, -0.1636963, 2.3895, -0.3206107, 2.3895, -0.2748092, 2.3895, -2.9541984
0.2819118, -0.0078889, 2.39625, -0.0460815, 2.39625, -1.0048218, 2.39625, -0.1696167, 2.39625, -0.5419847, 2.39625, -0.5648855, 2.39625, -3
0.2827059, -0.0109102, 2.403, -0.0430298, 2.403, -1.0055542, 2.403, -0.1690674, 2.403, -0.4656489, 2.403, -0.7099237, 2.403, -2.9465649
0.2835, -0.0146029, 2.40975, -0.0449219, 2.40975, -1.0059204, 2.40975, -0.1690674, 2.40975, -0.480916, 2.40975, -0.9312977, 2.40975, -2.8473282
0.2842941, -0.0166171, 2.4165, -0.0427856, 2.4165, -1.0070801, 2.4165, -0.1702881, 2.4165, -0.6183206, 2.4165, -1.0305344, 2.4165, -2.9694657
0.2850882, -0.0182956, 2.42325, -0.0444946, 2.42325, -1.0031128, 2.42325, -0.1715088, 2.42325, -0.6564885, 2.42325, -1.0610687, 2.42325, -3
0.2858824, -0.0199741, 2.43, -0.0478516, 2.43, -1.0050049, 2.43, -0.1705933, 2.43, -0.7251908, 2.43, -0.9923664, 2.43, -3.0992367
0.2866765, -0.01561, 2.43675, -0.0493774, 2.43675, -1.0023804, 2.43675, -0.1711426, 2.43675, -0.870229, 2.43675, -1.0076336, 2.43675, -3.0534351
0.2874706, -0.0209812, 2.4435, -0.050293, 2.4435, -1.0006714, 2.4435, -0.1719971, 2.4435, -0.6564885, 2.4435, -0.9007633, 2.4435, -3.1679389
0.2882647, -0.0236667, 2.45025, -0.0476074, 2.45025, -1.0019531, 2.45025, -0.1710815, 2.45025, -0.6717557, 2.45025, -0.6335878, 2.45025, -2.9236641
0.2890588, -0.0240024, 2.457, -0.0532227, 2.457, -1.0003662, 2.457, -0.1678467, 2.457, -0.6946565, 2.457, -0.480916, 2.457, -2.9770992
0.2898529, -0.0219883, 2.46375, -0.052124, 2.46375, -1.0028076, 2.46375, -0.1671753, 2.46375, -0.740458, 2.46375, -0.4580153, 2.46375, -2.8167939
0.2906471, -0.018967, 2.4705, -0.0479126, 2.4705, -1.0026245, 2.4705, -0.1707764, 2.4705, -0.6412213, 2.4705, -0.3206107, 2.4705, -2.9160306
0.2914412, -0.0129244, 2.47725, -0.0490723, 2.47725, -1.0031128, 2.47725, -0.1697388, 2.47725, -0.8931298, 2.47725, -0.6030535, 2.47725, -2.908397
0.2922353, -0.0119173, 2.484, -0.0489502, 2.484, -1.0040283, 2.484, -0.1654663, 2.484, -0.9770992, 2.484, -0.6183206, 2.484, -2.7862597
0.2930294, -0.0063783, 2.49075, -0.0490112, 2.49075, -1.0061035, 2.49075, -0.1717529, 2.49075, -1.0763359, 2.49075, -0.7328244, 2.49075, -2.9160306
0.2938235, -0.005539, 2.4975, -0.0463257, 2.4975, -1.0054932, 2.4975, -0.1716309, 2.4975, -0.9007633, 2.4975, -0.9770992, 2.4975, -3.0076337
0.2946176, -0.0072175, 2.50425, -0.0460205, 2.50425, -1.0020142, 2.50425, -0.1741943, 2.50425, -0.8244275, 2.50425, -1.2824427, 2.50425, -2.9694657
0.2954118, -0.0082246, 2.511, -0.0458374, 2.511, -1.0042114, 2.511, -0.1739502, 2.511, -0.7862595, 2.511, -1.221374, 2.511, -3.1221373
0.2962059, -0.005539, 2.51775, -0.0471802, 2.51775, -1.0027466, 2.51775, -0.1759033, 2.51775, -0.6564885, 2.51775, -1.129771, 2.51775, -3.0839694
0.297, -0.0085603, 2.5245, -0.0498657, 2.5245, -1.0045166, 2.5245, -0.177124, 2.5245, -0.7175573, 2.5245, -1.2442749, 2.5245, -3.091603
0.2977941, -0.0065461, 2.53125, -0.0496216, 2.53125, -1.0020142, 2.53125, -0.1813354, 2.53125, -0.6183206, 2.53125, -1.648855, 2.53125, -3.1221373
0.2985882, -0.0077211, 2.538, -0.0444946, 2.538, -1.0046997, 2.538, -0.1807251, 2.538, -0.6564885, 2.538, -1.2900764, 2.538, -3.1145039
0.2993824, -0.0119173, 2.54475, -0.0422363, 2.54475, -1.0011597, 2.54475, -0.1826172, 2.54475, -0.5038168, 2.54475, -0.7099237, 2.54475, -3.0534351
0.3001765, -0.0151064, 2.5515, -0.0446167, 2.5515, -1.0018921, 2.5515, -0.1810303, 2.5515, -0.4961832, 2.5515, 0.0152672, 2.5515, -3.0534351
0.3009706, -0.0213169, 2.55825, -0.0492554, 2.55825, -1.0028076, 2.55825, -0.1785278, 2.55825, -0.4351145, 2.55825, 0.1603053, 2.55825, -3.0458016
0.3017647, -0.0218204, 2.565, -0.0537109, 2.565, -1.0026855, 2.565, -0.1781006, 2.565, -0.3816794, 2.565, 0.1603053, 2.565, -3.1145039
0.3025588, -0.0193027, 2.57175, -0.0558472, 2.57175, -1.0010376, 2.57175, -0.1734009, 2.57175, -0.2519084, 2.57175, -0.0229008, 2.57175, -3.1221373
0.3033529, -0.0139315, 2.5785, -0.0551758, 2.5785, -1.0009155, 2.5785, -0.171814, 2.5785, -0.2519084, 2.5785, -0.3282443, 2.5785, -3.091603
0.3041471, -0.0181277, 2.58525, -0.053833, 2.58525, -1.0032959, 2.58525, -0.1688232, 2.58525, -0.4351145, 2.58525, -0.7557252, 2.58525, -3.0534351
0.3049412, -0.0226596, 2.592, -0.0518188, 2.592, -1.0027466, 2.592, -0.1744995, 2.592, -0.4427481, 2.592, -1, 2.592, -3.0610688
0.3057353, -0.0236667, 2.59875, -0.0472412, 2.59875, -1.0001831, 2.59875, -0.1768799, 2.59875, -0.3816794, 2.59875, -1.4198474, 2.59875, -3.1068702
0.3065294, -0.0276951, 2.6055, -0.0413818, 2.6055, -1.0025635, 2.6055, -0.1760864, 2.6055, -0.351145, 2.6055, -1.259542, 2.6055, -3.0992367
0.3073235, -0.0305486, 2.61225, -0.0341797, 2.61225, -1.0030518, 2.61225, -0.1781616, 2.61225, -0.2977099, 2.61225, -0.610687, 2.61225, -2.9694657
0.3081176, -0.0270237, 2.619, -0.0411377, 2.619, -1.0028076, 2.619, -0.177002, 2.619, -0.2366412, 2.619, 0.0381679, 2.619, -2.961832
0.3089118, -0.023331, 2.62575, -0.0430298, 2.62575, -1.0013428, 2.62575, -0.1759033, 2.62575, -0.2900763, 2.62575, 0.5572519, 2.62575, -3.0687022
0.3097059, -0.0216526, 2.6325, -0.0477905, 2.6325, -0.999939, 2.6325, -0.1725464, 2.6325, -0.4580153, 2.6325, 0.4045801, 2.6325, -3.0076337
0.3105, -0.018967, 2.63925, -0.048645, 2.63925, -1.0001221, 2.63925, -0.1716309, 2.63925, -0.4198473, 2.63925, -0.0229008, 2.63925, -2.908397
0.3112941, -0.0109102, 2.646, -0.0474243, 2.646, -1.001709, 2.646, -0.1692505, 2.646, -0.5038168, 2.646, -0.221374, 2.646, -3
0.3120882, -0.0043641, 2.65275, -0.0439453, 2.65275, -1.0024414, 2.65275, -0.1724854, 2.65275, -0.5114504, 2.65275, -0.3740458, 2.65275, -2.870229
0.3128824, 0.0011749, 2.6595, -0.0371704, 2.6595, -0.9984741, 2.6595, -0.1708374, 2.6595, -0.3740458, 2.6595, -0.2977099, 2.6595, -2.908397
0.3136765, 0.0010071, 2.66625, -0.0307617, 2.66625, -0.99646, 2.66625, -0.1773071, 2.66625, -0.648855, 2.66625, -0.1450382, 2.66625, -2.7709923
0.3144706, -0.0043641, 2.673, -0.02771, 2.673, -0.9974976, 2.673, -0.177063, 2.673, -0.5954198, 2.673, 0.8931298, 2.673, -2.6335878
0.3152647, -0.005539, 2.67975, -0.0377197, 2.67975, -0.9980469, 2.67975, -0.1820068, 2.67975, -0.6870229, 2.67975, 1.2900764, 2.67975, -2.5572519
0.3160588, -0.0063783, 2.6865, -0.0462646, 2.6865, -0.9979248, 2.6865, -0.170105, 2.6865, -0.8320611, 2.6865, 1.8854961, 2.6865, -2.5954199
0.3168529, -0.005539, 2.69325, -0.039978, 2.69325, -0.9972534, 2.69325, -0.1784668, 2.69325, -0.6717557, 2.69325, 0.9694657, 2.69325, -2.3358779
0.3176471, -0.0062104, 2.7, -0.0340576, 2.7, -0.9956665, 2.7, -0.1825562, 2.7, -0.5343512, 2.7, 0.5496183, 2.7, -2.3435113
0.3184412, -0.0085603, 2.70675, -0.0341797, 2.70675, -0.9996948, 2.70675, -0.1816406, 2.70675, -0.6335878, 2.70675, 1.4198474, 2.70675, -2.4351146
0.3192353, -0.012253, 2.7135, -0.0472412, 2.7135, -1.0002441, 2.7135, -0.1763916, 2.7135, -0.9389313, 2.7135, 1.908397, 2.7135, -2.5114503
0.3200294, -0.0196384, 2.72025, -0.0649414, 2.72025, -1.0027466, 2.72025, -0.1801147, 2.72025, -0.9847328, 2.72025, 1.5801526, 2.72025, -2.6870229
0.3208235, -0.0229953, 2.727, -0.0725098, 2.727, -1.0100708, 2.727, -0.1760864, 2.727, -0.908397, 2.727, 0.6259542, 2.727, -2.5648854
0.3216176, -0.0196384, 2.73375, -0.0683594, 2.73375, -1.008667, 2.73375, -0.1738892, 2.73375, -0.8320611, 2.73375, -0.4198473, 2.73375, -2.7633588
0.3224118, -0.0216526, 2.7405, -0.065979, 2.7405, -1.0036621, 2.7405, -0.175293, 2.7405, -1.0076336, 2.7405, -0.5114504, 2.7405, -3.0229008
0.3232059, -0.0206455, 2.74725, -0.0585327, 2.74725, -1.0047607, 2.74725, -0.1789551, 2.74725, -1.0458015, 2.74725, -0.1221374, 2.74725, -2.8167939
0.324, -0.0199741, 2.754, -0.0584106, 2.754, -1.0047607, 2.754, -0.1803589, 2.754, -1.221374, 2.754, 0.6870229, 2.754, -2.8549619
0.3247941, -0.0182956, 2.76075, -0.057312, 2.76075, -1.0093994, 2.76075, -0.1715698, 2.76075, -1.1984733, 2.76075, 1.8473282, 2.76075, -2.8396947
0.3255882, -0.018967, 2.7675, -0.0532227, 2.7675, -1.0039062, 2.7675, -0.1768188, 2.7675, -1.3358779, 2.7675, 1.9847329, 2.7675, -2.6564887
0.3263824, -0.0179599, 2.77425, -0.0548706, 2.77425, -1.0007935, 2.77425, -0.1750488, 2.77425, -1.2748091, 2.77425, 2.1068702, 2.77425, -2.7862597
0.3271765, -0.012253, 2.781, -0.0601807, 2.781, -1.006958, 2.781, -0.1680298, 2.781, -1.2900764, 2.781, 2.0229008, 2.781, -3.259542
0.3279706, -0.0099031, 2.78775, -0.062561, 2.78775, -1.007019, 2.78775, -0.1710815, 2.78775, -1.648855, 2.78775, 0.7022901, 2.78775, -3.3816793
0.3287647, -0.0083925, 2.7945, -0.0609131, 2.7945, -0.9987183, 2.7945, -0.1777954, 2.7945, -1.7251909, 2.7945, -1.0076336, 2.7945, -3.5114503
0.3295588, -0.0045319, 2.80125, -0.0528564, 2.80125, -1.0014038, 2.80125, -0.178833, 2.80125, -1.6717557, 2.80125, -1.1984733, 2.80125, -3.5114503
0.3303529, -0.0028534, 2.808, -0.0494995, 2.808, -0.9998779, 2.808, -0.1760254, 2.808, -1.9007634, 2.808, -1.7862595, 2.808, -3.9236641
0.3311471, -0.0028534, 2.81475, -0.0552368, 2.81475, -1.0003052, 2.81475, -0.1761475, 2.81475, -2.0229008, 2.81475, -2.4274809, 2.81475, -4.1297708
0.3319412, -0.0023499, 2.8215, -0.0523071, 2.8215, -1.0021973, 2.8215, -0.1832275, 2.8215, -2.091603, 2.8215, -2.4122138, 2.8215, -4.2671757
0.3327353, -0.0062104, 2.82825, -0.0535889, 2.82825, -1.0077515, 2.82825, -0.1828613, 2.82825, -2.1450381, 2.82825, -2.5648854, 2.82825, -4.221374
0.3335294, -0.0142672, 2.835, -0.0545654, 2.835, -1.007019, 2.835, -0.1842651, 2.835, -2.1603053, 2.835, -2.3664122, 2.835, -4.1984735
0.3343235, -0.021149, 2.84175, -0.0514526, 2.84175, -1.0042114, 2.84175, -0.1846924, 2.84175, -2.2137403, 2.84175, -1.6946565, 2.84175, -4.3435116
0.3351176, -0.0280308, 2.8485, -0.0547485, 2.8485, -1.0043945, 2.8485, -0.1888428, 2.8485, -2.1984732, 2.8485, -0.8396947, 2.8485, -4.3206105
0.3359118, -0.0270237, 2.85525, -0.0559692, 2.85525, -1.0049438, 2.85525, -0.190979, 2.85525, -2.259542, 2.85525, -0.3740458, 2.85525, -4.3282442
0.3367059, -0.0251774, 2.862, -0.0559082, 2.862, -1.0027466, 2.862, -0.1893311, 2.862, -2.1374047, 2.862, 0.1603053, 2.862, -4.6106873
0.3375, -0.0310521, 2.86875, -0.0547485, 2.86875, -1.00177, 2.86875, -0.1912842, 2.86875, -1.9770992, 2.86875, 0.2290076, 2.86875, -4.6412215
0.3382941, -0.0280308, 2.8755, -0.0551758, 2.8755, -1.0028687, 2.8755, -0.1928101, 2.8755, -2.1068702, 2.8755, 0.351145, 2.8755, -4.6488547
0.3390882, -0.0263523, 2.88225, -0.0507202, 2.88225, -1.0013428, 2.88225, -0.201416, 2.88225, -2.0229008, 2.88225, 0.3206107, 2.88225, -4.8091602
0.3398824, -0.0276951, 2.889, -0.0499878, 2.889, -0.9996338, 2.889, -0.2005005, 2.889, -1.7022901, 2.889, 0.2061069, 2.889, -4.9847326
0.3406765, -0.0236667, 2.89575, -0.0504761, 2.89575, -1.0031128, 2.89575, -0.2003174, 2.89575, -1.7328244, 2.89575, 0.6412213, 2.89575, -5.0839696
0.3414706, -0.021149, 2.9025, -0.055542, 2.9025, -1.0056763, 2.9025, -0.2015381, 2.9025, -1.7099236, 2.9025, 1.0229008, 2.9025, -5.3206105
0.3422647, -0.0179599, 2.90925, -0.057312, 2.90925, -1.0084839, 2.90925, -0.206665, 2.90925, -1.3282443, 2.90925, 1.2290076, 2.90925, -5.4656487
0.3430588, -0.0176242, 2.916, -0.0526123, 2.916, -1.0098267, 2.916, -0.2080688, 2.916, -1.1068702, 2.916, 1.7709924, 2.916, -5.5343513
0.3438529, -0.0149386, 2.92275, -0.0515137, 2.92275, -1.0098267, 2.92275, -0.2049561, 2.92275, -0.778626, 2.92275, 2.1679389, 2.92275, -5.7251906
0.3446471, -0.0068818, 2.9295, -0.0531616, 2.9295, -1.0128784, 2.9295, -0.2039185, 2.9295, -0.5801527, 2.9295, 2.6946564, 2.9295, -5.7938933
0.3454412, -0.0011749, 2.93625, -0.0571289, 2.93625, -1.0092163, 2.93625, -0.2071533, 2.93625, -0.2977099, 2.93625, 3.3435113, 2.93625, -5.9694657
0.3462353, 0.0052033, 2.943, -0.057251, 2.943, -1.0115356, 2.943, -0.2092285, 2.943, -0.1068702, 2.943, 3.2442749, 2.943, -6.038168
0.3470294, 0.0099031, 2.94975, -0.0551758, 2.94975, -1.0030518, 2.94975, -0.203186, 2.94975, 0.1450382, 2.94975, 3.0839694, 2.94975, -6.6259542
0.3478235, 0.0058747, 2.9565, -0.0545654, 2.9565, -1.0028687, 2.9565, -0.210022, 2.9565, 0.1374046, 2.9565, 3.0839694, 2.9565, -6.6106873
0.3486176, -0.0015106, 2.96325, -0.0536499, 2.96325, -1.0036621, 2.96325, -0.2110596, 2.96325, 0.6335878, 2.96325, 3.5343511, 2.96325, -6.7709923
0.3494118, -0.0038605, 2.97, -0.0552368, 2.97, -1.0042725, 2.97, -0.2007446, 2.97, 0.9465649, 2.97, 3.7175572, 2.97, -6.7480917
0.3502059, -0.008896, 2.97675, -0.0537109, 2.97675, -1.0059814, 2.97675, -0.1991577, 2.97675, 1.0839695, 2.97675, 3.5648854, 2.97675, -6.961832
0.351, -0.0171206, 2.9835, -0.0529785, 2.9835, -1.0061035, 2.9835, -0.2014771, 2.9835, 1.221374, 2.9835, 3.6412213, 2.9835, -7.4045801
0.3517941, -0.0206455, 2.99025, -0.0498047, 2.99025, -1.0070801, 2.99025, -0.2041626, 2.99025, 1.6793894, 2.99025, 3.8167939, 2.99025, -7.4503818
0.3525882, -0.0206455, 2.997, -0.048584, 2.997, -1.0055542, 2.997, -0.1968994, 2.997, 1.8854961, 2.997, 4.0534353, 2.997, -7.4122138
0.3533824, -0.0253452, 3.00375, -0.0439453, 3.00375, -1.0032349, 3.00375, -0.1938477, 3.00375, 1.9770992, 3.00375, 3.908397, 3.00375, -7.3664122
0.3541765, -0.0287022, 3.0105, -0.0430908, 3.0105, -1.0015869, 3.0105, -0.1946411, 3.0105, 2.0534351, 3.0105, 4.0305343, 3.0105, -7.7709923
0.3549706, -0.0285344, 3.01725, -0.0460815, 3.01725, -0.9997559, 3.01725, -0.1904907, 3.01725, 2.0305343, 3.01725, 3.5038168, 3.01725, -7.9083967
0.3557647, -0.0263523, 3.024, -0.0412598, 3.024, -0.9972534, 3.024, -0.1921997, 3.024, 2.0610688, 3.024, 2.7709923, 3.024, -8.1526718
0.3565588, -0.030045, 3.03075, -0.0356445, 3.03075, -1.0001831, 3.03075, -0.1903687, 3.03075, 2.0610688, 3.03075, 2.5419848, 3.03075, -8.0763359
0.3573529, -0.0263523, 3.0375, -0.0371704, 3.0375, -1.0008545, 3.0375, -0.1893311, 3.0375, 2.0763359, 3.0375, 2.9160306, 3.0375, -8.1832066
0.3581471, -0.0265202, 3.04425, -0.0413208, 3.04425, -1.0020142, 3.04425, -0.1890869, 3.04425, 2.0305343, 3.04425, 2.7709923, 3.04425, -8.6106873
0.3589412, -0.0229953, 3.051, -0.0450439, 3.051, -1.0007935, 3.051, -0.1907349, 3.051, 2.2519083, 3.051, 2.1374047, 3.051, -8.3816795
0.3597353, -0.0169528, 3.05775, -0.0482788, 3.05775, -1.00177, 3.05775, -0.1934814, 3.05775, 2.0992367, 3.05775, 1.8396946, 3.05775, -8.519084
0.3605294, -0.0152743, 3.0645, -0.0474854, 3.0645, -1.0023193, 3.0645, -0.194397, 3.0645, 2.1221373, 3.0645, 1.5801526, 3.0645, -8.8549614
0.3613235, -0.0127565, 3.07125, -0.0472412, 3.07125, -0.9990845, 3.07125, -0.1954956, 3.07125, 2.2061069, 3.07125, 1.1221374, 3.07125, -8.9541988
0.3621176, -0.012253, 3.078, -0.0410767, 3.078, -0.9989624, 3.078, -0.2015991, 3.078, 2.3282442, 3.078, 0.9694657, 3.078, -9.2671757
0.3629118, -0.0087282, 3.08475, -0.0316162, 3.08475, -0.9996338, 3.08475, -0.2081909, 3.08475, 2.351145, 3.08475, 1.6717557, 3.08475, -9.4045801
0.3637059, -0.0050355, 3.0915, -0.0232544, 3.0915, -1.0011597, 3.0915, -0.2059937, 3.0915, 2.8320611, 3.0915, 2.7633588, 3.0915, -9.2137403
0.3645, -0.0058747, 3.09825, -0.0258179, 3.09825, -1.0036011, 3.09825, -0.2094116, 3.09825, 2.9160306, 3.09825, 4.1374044, 3.09825, -9.3435116
0.3652941, -0.0003357, 3.105, -0.0280151, 3.105, -1.0020752, 3.105, -0.2089233, 3.105, 3.2366412, 3.105, 4.6793895, 3.105, -9.0763359
0.3660882, -0.0028534, 3.11175, -0.0298462, 3.11175, -1.0030518, 3.11175, -0.2084351, 3.11175, 3.2977099, 3.11175, 4.7862597, 3.11175, -9.1221371
0.3668824, -0.0082246, 3.1185, -0.0305786, 3.1185, -1.0046387, 3.1185, -0.2091675, 3.1185, 3.3358779, 3.1185, 4.8320613, 3.1185, -9.480916
0.3676765, -0.0102388, 3.12525, -0.0280762, 3.12525, -1.0055542, 3.12525, -0.2087402, 3.12525, 3.8244274, 3.12525, 4.6412215, 3.12525, -9.5038166
0.3684706, -0.0182956, 3.132, -0.0253296, 3.132, -1.0058594, 3.132, -0.2056274, 3.132, 4.2442746, 3.132, 4.6412215, 3.132, -9.7099237
0.3692647, -0.024506, 3.13875, -0.0231934, 3.13875, -1.0067139, 3.13875, -0.2039185, 3.13875, 4.4427481, 3.13875, 4.7175574, 3.13875, -9.9007635
0.3700588, -0.0216526, 3.1455, -0.0228882, 3.1455, -1.0014038, 3.1455, -0.2049561, 3.1455, 4.6793895, 3.1455, 4.8473282, 3.1455, -9.8473282
0.3708529, -0.0184634, 3.15225, -0.0233154, 3.15225, -1.0031738, 3.15225, -0.1977539, 3.15225, 4.9847326, 3.15225, 5.2137403, 3.15225, -9.7251911
0.3716471, -0.0159457, 3.159, -0.0199585, 3.159, -1.0022583, 3.159, -0.1882324, 3.159, 5.3129773, 3.159, 5.9847326, 3.159, -9.4580154
0.3724412, -0.0236667, 3.16575, -0.0183105, 3.16575, -1.0040283, 3.16575, -0.1810913, 3.16575, 5.3893127, 3.16575, 6.3053436, 3.16575, -9.3893127
0.3732353, -0.0260166, 3.1725, -0.0247192, 3.1725, -1.0026855, 3.1725, -0.1786499, 3.1725, 5.5725193, 3.1725, 6.0763359, 3.1725, -9.1908398
0.3740294, -0.0179599, 3.17925, -0.0265503, 3.17925, -1.0067139, 3.17925, -0.1676025, 3.17925, 5.6106873, 3.17925, 5.0916033, 3.17925, -9.480916
0.3748235, -0.0142672, 3.186, -0.024353, 3.186, -1.0063477, 3.186, -0.1675415, 3.186, 5.4732823, 3.186, 4.7022901, 3.186, -9.4885492
0.3756176, -0.0132601, 3.19275, -0.0215454, 3.19275, -1.0089722, 3.19275, -0.1693726, 3.19275, 5.5648856, 3.19275, 4.0534353, 3.19275, -9.6106873
0.3764118, -0.0105745, 3.1995, -0.0228882, 3.1995, -1.0125122, 3.1995, -0.1661377, 3.1995, 5.4656487, 3.1995, 4.0687022, 3.1995, -9.6106873
0.3772059, -0.0109102, 3.20625, -0.0310669, 3.20625, -1.0095825, 3.20625, -0.1575928, 3.20625, 4.9847326, 3.20625, 3.4503818, 3.20625, -9.5801525
0.378, -0.0058747, 3.213, -0.0344238, 3.213, -1.0048828, 3.213, -0.1599121, 3.213, 4.7709923, 3.213, 2.610687, 3.213, -9.7862597
0.3787941, -0.0008392, 3.21975, -0.0360107, 3.21975, -1.0053711, 3.21975, -0.159668, 3.21975, 4.4656487, 3.21975, 1.5267175, 3.21975, -9.8549614
0.3795882, 0.0005035, 3.2265, -0.031189, 3.2265, -1.0002441, 3.2265, -0.1618652, 3.2265, 4.3282442, 3.2265, 1.2290076, 3.2265, -9.8244276
0.3803824, -0.0043641, 3.23325, -0.0307007, 3.23325, -0.998291, 3.23325, -0.1611938, 3.23325, 4.0229006, 3.23325, 0.2977099, 3.23325, -10.038168
0.3811765, -0.0035248, 3.24, -0.0246582, 3.24, -0.9972534, 3.24, -0.1621094, 3.24, 3.4198472, 3.24, 0.5114504, 3.24, -10.160305
0.3819706, -0.0028534, 3.24675, -0.0203247, 3.24675, -0.9978638, 3.24675, -0.1693726, 3.24675, 3.3435113, 3.24675, -0.2900763, 3.24675, -10.2519083
0.3827647, -0.0083925, 3.2535, -0.0162964, 3.2535, -0.9981079, 3.2535, -0.1762085, 3.2535, 3.1526718, 3.2535, -0.2977099, 3.2535, -10.198473
0.3835588, -0.0149386, 3.26025, -0.008667, 3.26025, -0.9989014, 3.26025, -0.1732788, 3.26025, 2.8931298, 3.26025, 0.6335878, 3.26025, -10.2061071
0.3843529, -0.0203098, 3.267, -0.0056152, 3.267, -1.0037231, 3.267, -0.1767578, 3.267, 2.7709923, 3.267, 0.740458, 3.267, -10.1297712
0.3851471, -0.0218204, 3.27375, -0.007019, 3.27375, -1.0060425, 3.27375, -0.1799927, 3.27375, 2.6946564, 3.27375, 1.1908396, 3.27375, -10.0229006
0.3859412, -0.0209812, 3.2805, -0.0053101, 3.2805, -1.0001221, 3.2805, -0.1791992, 3.2805, 2.9541984, 3.2805, 2.2366412, 3.2805, -10.0152674
0.3867353, -0.0166171, 3.28725, -0.0076294, 3.28725, -1.0007935, 3.28725, -0.1849365, 3.28725, 2.9923663, 3.28725, 2.129771, 3.28725, -9.8931293
0.3875294, -0.0193027, 3.294, -0.0054321, 3.294, -0.9988403, 3.294, -0.1837769, 3.294, 2.9007633, 3.294, 2.038168, 3.294, -9.9160309
0.3883235, -0.0179599, 3.30075, -0.0054321, 3.30075, -1.0025024, 3.30075, -0.1842651, 3.30075, 2.908397, 3.30075, 2.1374047, 3.30075, -9.9389315
0.3891176, -0.0198062, 3.3075, -0.0033569, 3.3075, -1.0067749, 3.3075, -0.1843872, 3.3075, 3.129771, 3.3075, 1.5572519, 3.3075, -9.8931293
0.3899118, -0.0256809, 3.31425, 0.0032349, 3.31425, -1.0076904, 3.31425, -0.1763916, 3.31425, 3, 3.31425, 1.7862595, 3.31425, -9.9465647
0.3907059, -0.0219883, 3.321, 0.0053101, 3.321, -1.0075684, 3.321, -0.1737671, 3.321, 3.1832061, 3.321, 1.8244275, 3.321, -9.8549614
0.3915, -0.0223239, 3.32775, 0.0053711, 3.32775, -1.0040894, 3.32775, -0.1696777, 3.32775, 3.0687022, 3.32775, 1.6335878, 3.32775, -9.6488552
0.3922941, -0.0159457, 3.3345, 0.0037842, 3.3345, -1.0045166, 3.3345, -0.1676636, 3.3345, 3.2442749, 3.3345, 1.1984733, 3.3345, -9.641221
0.3930882, -0.0135958, 3.34125, 0.0063477, 3.34125, -1.0029907, 3.34125, -0.1644897, 3.34125, 3.2748091, 3.34125, 1.1068702, 3.34125, -9.6641226
0.3938824, -0.0095674, 3.348, 0.0049438, 3.348, -0.9957886, 3.348, -0.159668, 3.348, 2.9770992, 3.348, 0.4885496, 3.348, -9.6183205
0.3946765, 0.002182, 3.35475, 0.0014648, 3.35475, -0.9958496, 3.35475, -0.1619873, 3.35475, 2.6412213, 3.35475, 0.0229008, 3.35475, -9.6335878
0.3954706, 0.0035248, 3.3615, -0.0024414, 3.3615, -0.9971313, 3.3615, -0.1619873, 3.3615, 2.6183207, 3.3615, -0.0839695, 3.3615, -9.4351149
0.3962647, 0.0011749, 3.36825, -0.0050659, 3.36825, -0.9995728, 3.36825, -0.1624756, 3.36825, 2.5496182, 3.36825, -0.5419847, 3.36825, -9.4732828
0.3970588, 0.0028534, 3.375, -0.0077515, 3.375, -1.0045166, 3.375, -0.1543579, 3.375, 2.129771, 3.375, -1.351145, 3.375, -9.5038166
0.3978529, -0.0001678, 3.38175, 0.0006714, 3.38175, -1.0036011, 3.38175, -0.1636353, 3.38175, 2.0152671, 3.38175, -1.7557251, 3.38175, -9.4961834
0.3986471, -0.0082246, 3.3885, 0.0043945, 3.3885, -1.0007935, 3.3885, -0.164856, 3.3885, 1.7099236, 3.3885, -1.7251909, 3.3885, -9.3893127
0.3994412, -0.0152743, 3.39525, 0.0115967, 3.39525, -0.999939, 3.39525, -0.1643066, 3.39525, 1.6030535, 3.39525, -1.6335878, 3.39525, -9.3358774
0.4002353, -0.0130922, 3.402, 0.0132446, 3.402, -1.0007324, 3.402, -0.1707153, 3.402, 1.4961832, 3.402, -1.2900764, 3.402, -9.0305347
0.4010294, -0.011078, 3.40875, 0.0155029, 3.40875, -0.9987183, 3.40875, -0.1696167, 3.40875, 1.389313, 3.40875, -0.5496183, 3.40875, -9.0839691
0.4018235, -0.0166171, 3.4155, 0.0158081, 3.4155, -0.99823, 3.4155, -0.168457, 3.4155, 1.351145, 3.4155, -0.2900763, 3.4155, -8.9083967
0.4026176, -0.024506, 3.42225, 0.015625, 3.42225, -0.996582, 3.42225, -0.1712646, 3.42225, 1.3053435, 3.42225, -0.0458015, 3.42225, -8.6335878
0.4034118, -0.0258488, 3.429, 0.0175781, 3.429, -0.9945068, 3.429, -0.1725464, 3.429, 1.0687023, 3.429, -0.0534351, 3.429, -8.519084
0.4042059, -0.0250095, 3.43575, 0.0137329, 3.43575, -0.9968262, 3.43575, -0.1732178, 3.43575, 0.8931298, 3.43575, 0.1374046, 3.43575, -8.3435116
0.405, -0.0265202, 3.4425, 0.010376, 3.4425, -1.0004883, 3.4425, -0.1691284, 3.4425, 0.961832, 3.4425, 0.5038168, 3.4425, -8.282443
0.4057941, -0.0238346, 3.44925, 0.0095825, 3.44925, -0.9998779, 3.44925, -0.1680298, 3.44925, 0.5954198, 3.44925, 0.6717557, 3.44925, -8.1374044
0.4065882, -0.0229953, 3.456, 0.0097656, 3.456, -1.0075684, 3.456, -0.1633301, 3.456, 0.3740458, 3.456, 0.6641222, 3.456, -8.038168
0.4073824, -0.0260166, 3.46275, 0.0115967, 3.46275, -1.0092773, 3.46275, -0.1678467, 3.46275, 0.389313, 3.46275, 0.0305344, 3.46275, -8
0.4081765, -0.0216526, 3.4695, 0.0126343, 3.4695, -1.0026855, 3.4695, -0.1688232, 3.4695, 0.3358779, 3.4695, 0.2519084, 3.4695, -7.6717558
0.4089706, -0.0193027, 3.47625, 0.015625, 3.47625, -1.0073242, 3.47625, -0.168457, 3.47625, 0.1679389, 3.47625, 0.1068702, 3.47625, -7.4885497
0.4097647, -0.018967, 3.483, 0.0198364, 3.483, -1.0076294, 3.483, -0.1730957, 3.483, -0.0534351, 3.483, 0.2366412, 3.483, -7.6564884
0.4105588, -0.01561, 3.48975, 0.0214844, 3.48975, -1.0142212, 3.48975, -0.1726685, 3.48975, 0.0076336, 3.48975, -0.3206107, 3.48975, -7.3740458
0.4113529, -0.0045319, 3.4965, 0.0253906, 3.4965, -1.005249, 3.4965, -0.1748047, 3.4965, 0.2061069, 3.4965, -0.1984733, 3.4965, -7.3664122
0.4121471, -0.0031891, 3.50325, 0.026062, 3.50325, -1.0039062, 3.50325, -0.1713867, 3.50325, 0.0992366, 3.50325, -0.0534351, 3.50325, -7.259542
0.4129412, -0.0058747, 3.51, 0.0247803, 3.51, -1.0048218, 3.51, -0.1757812, 3.51, -0.0381679, 3.51, -0.2061069, 3.51, -7.2748094
0.4137353, -0.0048676, 3.51675, 0.0237427, 3.51675, -1.0023804, 3.51675, -0.1797485, 3.51675, 0.0458015, 3.51675, -0.2977099, 3.51675, -7.2519083
0.4145294, -0.0018463, 3.5235, 0.0254517, 3.5235, -0.9993896, 3.5235, -0.1801758, 3.5235, 0.0229008, 3.5235, -0.0839695, 3.5235, -7.0610685
0.4153235, -0.0018463, 3.53025, 0.0220337, 3.53025, -1.0014648, 3.53025, -0.1803589, 3.53025, 0.2137405, 3.53025, -0.6564885, 3.53025, -6.8244276
0.4161176, -0.0028534, 3.537, 0.0219116, 3.537, -0.9986572, 3.537, -0.1851196, 3.537, 0.2900763, 3.537, -0.7938932, 3.537, -6.740458
0.4169118, -0.0102388, 3.54375, 0.0202026, 3.54375, -1.0002441, 3.54375, -0.1865234, 3.54375, 0.2748092, 3.54375, -0.4427481, 3.54375, -6.6106873
0.4177059, -0.0109102, 3.5505, 0.0249634, 3.5505, -1.0009155, 3.5505, -0.1919556, 3.5505, 0.5877863, 3.5505, -0.8091603, 3.5505, -6.2900763
0.4185, -0.0105745, 3.55725, 0.0281982, 3.55725, -0.9994507, 3.55725, -0.189209, 3.55725, 0.7099237, 3.55725, -0.2519084, 3.55725, -6.2519083
0.4192941, -0.0095674, 3.564, 0.0311279, 3.564, -0.9973755, 3.564, -0.1901855, 3.564, 0.6946565, 3.564, -0.1145038, 3.564, -6.1450381
0.4200882, -0.0193027, 3.57075, 0.0342407, 3.57075, -0.9978027, 3.57075, -0.1914673, 3.57075, 0.6793893, 3.57075, 0.0916031, 3.57075, -5.7099237
0.4208824, -0.0206455, 3.5775, 0.0357056, 3.5775, -1.0001831, 3.5775, -0.1923218, 3.5775, 0.8167939, 3.5775, 0.3053435, 3.5775, -5.6488547
0.4216765, -0.0231632, 3.58425, 0.0357666, 3.58425, -1.001709, 3.58425, -0.1911621, 3.58425, 1.038168, 3.58425, 0.8167939, 3.58425, -5.6946564
0.4224706, -0.0280308, 3.591, 0.0344238, 3.591, -1.0008545, 3.591, -0.1877441, 3.591, 1.3053435, 3.591, 1.2442749, 3.591, -5.5267177
0.4232647, -0.0285344, 3.59775, 0.0324097, 3.59775, -1.0014038, 3.59775, -0.1865234, 3.59775, 1.4427481, 3.59775, 1.389313, 3.59775, -5.2748094
0.4240588, -0.024506, 3.6045, 0.0272827, 3.6045, -1.0020752, 3.6045, -0.1876221, 3.6045, 1.5343511, 3.6045, 1.221374, 3.6045, -5.1755724
0.4248529, -0.0263523, 3.61125, 0.0231934, 3.61125, -1.0036011, 3.61125, -0.1881104, 3.61125, 1.5877863, 3.61125, 1.4274809, 3.61125, -5.1679387
0.4256471, -0.0290379, 3.618, 0.0219727, 3.618, -1.0064697, 3.618, -0.1865234, 3.618, 1.7175573, 3.618, 1.2977099, 3.618, -5.0458016
0.4264412, -0.0240024, 3.62475, 0.0205688, 3.62475, -1.0085449, 3.62475, -0.1907349, 3.62475, 1.9465649, 3.62475, 1.3816794, 3.62475, -4.9923663
0.4272353, -0.0146029, 3.6315, 0.0193481, 3.6315, -1.0094604, 3.6315, -0.1879272, 3.6315, 2.038168, 3.6315, 1.3664122, 3.6315, -5.0992365
0.4280294, -0.0050355, 3.63825, 0.0272217, 3.63825, -1.0080566, 3.63825, -0.1905518, 3.63825, 2.2977099, 3.63825, 1.740458, 3.63825, -4.8625956
0.4288235, -0.0028534, 3.645, 0.0324097, 3.645, -1.0111694, 3.645, -0.194458, 3.645, 2.480916, 3.645, 2.3587787, 3.645, -4.8473282
0.4296176, -0.0045319, 3.65175, 0.0334473, 3.65175, -1.0056763, 3.65175, -0.1937256, 3.65175, 2.6564887, 3.65175, 2.6946564, 3.65175, -4.6870227
0.4304118, -0.0062104, 3.6585, 0.0321655, 3.6585, -1.0037842, 3.6585, -0.1973267, 3.6585, 2.8396947, 3.6585, 3.6946564, 3.6585, -4.6870227
0.4312059, -0.0099031, 3.66525, 0.0305176, 3.66525, -1.0050049, 3.66525, -0.1968994, 3.66525, 3.1068702, 3.66525, 4.5419846, 3.66525, -4.3816795
0.432, -0.0119173, 3.672, 0.0255737, 3.672, -1.0041504, 3.672, -0.1914673, 3.672, 3.2900763, 3.672, 5.2748094, 3.672, -4.5648856
0.4327941, -0.0115816, 3.67875, 0.017395, 3.67875, -1.0068359, 3.67875, -0.1920166, 3.67875, 3.4656489, 3.67875, 4.9847326, 3.67875, -4.6946564
0.4335882, -0.011078, 3.6855, 0.0132446, 3.6855, -1.0093384, 3.6855, -0.190979, 3.6855, 3.6564887, 3.6855, 4.5801525, 3.6855, -4.6412215
0.4343824, -0.0154421, 3.69225, 0.0143433, 3.69225, -1.0070801, 3.69225, -0.1859741, 3.69225, 3.9847329, 3.69225, 4.0687022, 3.69225, -4.8091602
0.4351765, -0.0172885, 3.699, 0.0158691, 3.699, -1.0057983, 3.699, -0.1865234, 3.699, 3.9007633, 3.699, 3.5801528, 3.699, -4.6870227
0.4359706, -0.0246738, 3.70575, 0.0159302, 3.70575, -1.0048218, 3.70575, -0.1880493, 3.70575, 3.9007633, 3.70575, 3.2290077, 3.70575, -4.8396945
0.4367647, -0.0273594, 3.7125, 0.0212402, 3.7125, -1.0015869, 3.7125, -0.184082, 3.7125, 4.0916033, 3.7125, 3.091603, 3.7125, -4.9541984
0.4375588, -0.0258488, 3.71925, 0.0237427, 3.71925, -1.0011597, 3.71925, -0.1828003, 3.71925, 4.038168, 3.71925, 3.2061069, 3.71925, -5.1603055
0.4383529, -0.0297093, 3.726, 0.0255737, 3.726, -0.9990234, 3.726, -0.1781616, 3.726, 4.221374, 3.726, 3.129771, 3.726, -5.2290077
0.4391471, -0.0337377, 3.73275, 0.020752, 3.73275, -0.9994507, 3.73275, -0.1798096, 3.73275, 4.0916033, 3.73275, 3.1068702, 3.73275, -5.2671757
0.4399412, -0.0283665, 3.7395, 0.017334, 3.7395, -0.9973755, 3.7395, -0.1728516, 3.7395, 3.9160306, 3.7395, 3.3435113, 3.7395, -5.1755724
0.4407353, -0.0203098, 3.74625, 0.0183105, 3.74625, -0.9972534, 3.74625, -0.1719971, 3.74625, 3.8854961, 3.74625, 3.3282442, 3.74625, -5.1908398
0.4415294, -0.0151064, 3.753, 0.0179443, 3.753, -0.9993896, 3.753, -0.1729736, 3.753, 3.7938931, 3.753, 3.0152671, 3.753, -5.4732823
0.4423235, -0.0095674, 3.75975, 0.0106201, 3.75975, -1.0008545, 3.75975, -0.1672974, 3.75975, 3.6030533, 3.75975, 2.6870229, 3.75975, -5.5725193
0.4431176, -0.0050355, 3.7665, 0.0090332, 3.7665, -1.0021973, 3.7665, -0.1627197, 3.7665, 3.5954199, 3.7665, 2.1679389, 3.7665, -5.6412215
0.4439118, -0.0048676, 3.77325, 0.0117798, 3.77325, -1.0039062, 3.77325, -0.1621704, 3.77325, 3.5648854, 3.77325, 1.8931298, 3.77325, -5.6641221
0.4447059, 0.0038605, 3.78, 0.0153198, 3.78, -1.0009766, 3.78, -0.1583252, 3.78, 3.3053436, 3.78, 1.5038168, 3.78, -5.778626
0.4455, 0.0063783, 3.78675, 0.0174561, 3.78675, -0.9996338, 3.78675, -0.1585693, 3.78675, 3.1145039, 3.78675, 1.3740458, 3.78675, -5.8167939
0.4462941, 0.0078889, 3.7935, 0.0217285, 3.7935, -1.0028076, 3.7935, -0.1595459, 3.7935, 2.8625953, 3.7935, 1.2137405, 3.7935, -5.5725193
0.4470882, 0.0045319, 3.80025, 0.0188599, 3.80025, -1.0027466, 3.80025, -0.1606445, 3.80025, 2.8625953, 3.80025, 1.1984733, 3.80025, -5.9083967
0.4478824, 0.0036927, 3.807, 0.0234375, 3.807, -1.0040894, 3.807, -0.159729, 3.807, 2.7709923, 3.807, 1.2442749, 3.807, -6
0.4486765, 0.0038605, 3.81375, 0.0200806, 3.81375, -1.0045776, 3.81375, -0.1619873, 3.81375, 2.6564887, 3.81375, 1.4274809, 3.81375, -5.8320613
0.4494706, -0.002182, 3.8205, 0.0195923, 3.8205, -1.0065918, 3.8205, -0.1620483, 3.8205, 2.3358779, 3.8205, 1.3282443, 3.8205, -6.0458016
0.4502647, -0.0115816, 3.82725, 0.017395, 3.82725, -1.0090942, 3.82725, -0.1609497, 3.82725, 2.5419848, 3.82725, 1, 3.82725, -5.9160304
0.4510588, -0.0159457, 3.834, 0.0230103, 3.834, -1.0134277, 3.834, -0.1654663, 3.834, 2.4427481, 3.834, 0.610687, 3.834, -5.7480917
0.4518529, -0.0213169, 3.84075, 0.0271606, 3.84075, -1.012146, 3.84075, -0.1681519, 3.84075, 2.3282442, 3.84075, 0.4885496, 3.84075, -5.8167939
0.4526471, -0.0297093, 3.8475, 0.0301514, 3.8475, -1.0095825, 3.8475, -0.1677246, 3.8475, 2.3129771, 3.8475, 0.7709923, 3.8475, -5.8091602
0.4534412, -0.0293736, 3.85425, 0.0344238, 3.85425, -1.0044556, 3.85425, -0.1660767, 3.85425, 2.3740458, 3.85425, 1.3053435, 3.85425, -5.7557254
0.4542353, -0.0270237, 3.861, 0.0341797, 3.861, -1.005188, 3.861, -0.1654663, 3.861, 2.2061069, 3.861, 1.5801526, 3.861, -5.7251906
0.4550294, -0.023331, 3.86775, 0.031189, 3.86775, -1.0045776, 3.86775, -0.1651001, 3.86775, 2.0763359, 3.86775, 1.7022901, 3.86775, -5.8931298
0.4558235, -0.023331, 3.8745, 0.0302734, 3.8745, -1.0045776, 3.8745, -0.161438, 3.8745, 2.091603, 3.8745, 1.7328244, 3.8745, -5.6717558
0.4566176, -0.0276951, 3.88125, 0.0247803, 3.88125, -1.0003662, 3.88125, -0.1572266, 3.88125, 1.9694656, 3.88125, 1.6335878, 3.88125, -5.5496182
0.4574118, -0.0273594, 3.888, 0.0244141, 3.888, -1.0004883, 3.888, -0.1565552, 3.888, 2.0076337, 3.888, 1.5038168, 3.888, -5.6259542
0.4582059, -0.0253452, 3.89475, 0.0251465, 3.89475, -0.996521, 3.89475, -0.1565552, 3.89475, 2, 3.89475, 1.4885496, 3.89475, -5.5572519
0.459, -0.0206455, 3.9015, 0.0267334, 3.9015, -0.9988403, 3.9015, -0.1542969, 3.9015, 1.9160305, 3.9015, 1.3053435, 3.9015, -5.519084
0.4597941, -0.0166171, 3.90825, 0.0268555, 3.90825, -0.9987183, 3.90825, -0.1541748, 3.90825, 1.648855, 3.90825, 0.8854962, 3.90825, -5.6106873
0.4605882, -0.0125887, 3.915, 0.0285645, 3.915, -0.9985962, 3.915, -0.1568604, 3.915, 1.6641221, 3.915, 0.4274809, 3.915, -5.4732823
0.4613824, -0.0085603, 3.92175, 0.0294189, 3.92175, -0.9968872, 3.92175, -0.1577148, 3.92175, 1.6183206, 3.92175, 0.3435115, 3.92175, -5.5267177
0.4621765, -0.0050355, 3.9285, 0.0316772, 3.9285, -1.0024414, 3.9285, -0.1629639, 3.9285, 1.7557251, 3.9285, 0.1068702, 3.9285, -5.5419846
0.4629706, -0.0025177, 3.93525, 0.0333862, 3.93525, -1.0054321, 3.93525, -0.1657104, 3.93525, 1.6030535, 3.93525, 0.0229008, 3.93525, -5.480916
0.4637647, -0.0025177, 3.942, 0.0360718, 3.942, -1.0030518, 3.942, -0.1685791, 3.942, 1.6870229, 3.942, 0.1832061, 3.942, -5.259542
0.4645588, -0.0038605, 3.94875, 0.0373535, 3.94875, -1.0037842, 3.94875, -0.1763916, 3.94875, 1.7251909, 3.94875, 0.4198473, 3.94875, -5.1984735
0.4653529, -0.0018463, 3.9555, 0.038269, 3.9555, -1.0055542, 3.9555, -0.1721191, 3.9555, 1.648855, 3.9555, 0.7175573, 3.9555, -5.2137403
0.4661471, -0.0082246, 3.96225, 0.0397949, 3.96225, -1.0040283, 3.96225, -0.1734009, 3.96225, 1.7328244, 3.96225, 0.9007633, 3.96225, -5.2519083
0.4669412, -0.0124208, 3.969, 0.0379639, 3.969, -1.0042725, 3.969, -0.1704102, 3.969, 1.7328244, 3.969, 1.3664122, 3.969, -5.0458016
0.4677353, -0.0125887, 3.97575, 0.0378418, 3.97575, -1.0049438, 3.97575, -0.1726685, 3.97575, 1.9541985, 3.97575, 1.8473282, 3.97575, -5.0229006
0.4685294, -0.0193027, 3.9825, 0.0372925, 3.9825, -1.0075684, 3.9825, -0.1733398, 3.9825, 1.9236641, 3.9825, 2.3129771, 3.9825, -4.8167939
0.4693235, -0.0236667, 3.98925, 0.0393677, 3.98925, -1.007019, 3.98925, -0.1679077, 3.98925, 2, 3.98925, 2.7938931, 3.98925, -4.5572519
0.4701176, -0.0229953, 3.996, 0.0429077, 3.996, -1.0059814, 3.996, -0.1724854, 3.996, 1.9389313, 3.996, 3.2061069, 3.996, -4.5267177
0.4709118, -0.0218204, 4.00275, 0.0427856, 4.00275, -1.0028076, 4.00275, -0.1671143, 4.00275, 1.9465649, 4.00275, 3.6946564, 4.00275, -4.4961834
0.4717059, -0.0224918, 4.0095, 0.0442505, 4.0095, -1.0045776, 4.0095, -0.1678467, 4.0095, 1.9847329, 4.0095, 3.9923663, 4.0095, -4.2519083
0.4725, -0.0276951, 4.01625, 0.0444336, 4.01625, -1.0062866, 4.01625, -0.1659546, 4.01625, 1.9236641, 4.01625, 4.4122138, 4.01625, -4.4122138
0.4732941, -0.0292058, 4.023, 0.0430908, 4.023, -1.0062866, 4.023, -0.1673584, 4.023, 1.8167939, 4.023, 4.3816795, 4.023, -4.0992365
0.4740882, -0.0256809, 4.02975, 0.0408325, 4.02975, -1.0031738, 4.02975, -0.166687, 4.02975, 1.8625954, 4.02975, 4.2977099, 4.02975, -3.9847329
0.4748824, -0.0253452, 4.0365, 0.0411377, 4.0365, -1.00354, 4.0365, -0.1672363, 4.0365, 1.9847329, 4.0365, 4.3053436, 4.0365, -3.8854961
0.4756765, -0.0203098, 4.04325, 0.039856, 4.04325, -1.0040894, 4.04325, -0.1691284, 4.04325, 1.8473282, 4.04325, 4.1297708, 4.04325, -3.740458
0.4764706, -0.0129244, 4.05, 0.038147, 4.05, -1.0014038, 4.05, -0.1653442, 4.05, 1.908397, 4.05, 4.0992365, 4.05, -3.6564887
0.4772647, -0.0115816, 4.05675, 0.0388794, 4.05675, -1.0042114, 4.05675, -0.1654663, 4.05675, 1.8854961, 4.05675, 4.1603055, 4.05675, -3.5725191
0.4780588, -0.0068818, 4.0635, 0.0360718, 4.0635, -1.0053101, 4.0635, -0.1676636, 4.0635, 2.0458016, 4.0635, 3.9007633, 4.0635, -3.5954199
0.4788529, -0.0058747, 4.07025, 0.0316162, 4.07025, -1.0037231, 4.07025, -0.1639404, 4.07025, 1.9694656, 4.07025, 3.4122138, 4.07025, -3.610687
0.4796471, -0.0045319, 4.077, 0.0304565, 4.077, -1.0043945, 4.077, -0.1673584, 4.077, 1.9389313, 4.077, 3.1450381, 4.077, -3.6183207
0.4804412, -0.0016785, 4.08375, 0.0339355, 4.08375, -1.0028687, 4.08375, -0.168457, 4.08375, 2.0076337, 4.08375, 2.7251909, 4.08375, -3.7099237
0.4812353, -0.0048676, 4.0905, 0.0355835, 4.0905, -1.0032349, 4.0905, -0.1680908, 4.0905, 1.8396946, 4.0905, 2.610687, 4.0905, -3.6946564
0.4820294, -0.0070497, 4.09725, 0.0339355, 4.09725, -1.0001221, 4.09725, -0.1686401, 4.09725, 1.9236641, 4.09725, 2.4580152, 4.09725, -3.5496182
0.4828235, -0.0075532, 4.104, 0.0328369, 4.104, -1.0023193, 4.104, -0.1702271, 4.104, 1.9541985, 4.104, 2.610687, 4.104, -3.519084
0.4836176, -0.0095674, 4.11075, 0.0320435, 4.11075, -0.9987793, 4.11075, -0.1686401, 4.11075, 2.0076337, 4.11075, 2.6335878, 4.11075, -3.351145
0.4844118, -0.008896, 4.1175, 0.0357666, 4.1175, -1.0027466, 4.1175, -0.1732178, 4.1175, 2.0152671, 4.1175, 2.5954199, 4.1175, -3.5038168
0.4852059, -0.0082246, 4.12425, 0.0369873, 4.12425, -1.005249, 4.12425, -0.1674194, 4.12425, 2.0610688, 4.12425, 2.740458, 4.12425, -3.5496182
0.486, -0.0176242, 4.131, 0.0385742, 4.131, -1.0047607, 4.131, -0.1657104, 4.131, 1.9312977, 4.131, 2.8320611, 4.131, -3.4885497
0.4867941, -0.0199741, 4.13775, 0.0343018, 4.13775, -1.0090332, 4.13775, -0.1652832, 4.13775, 2.091603, 4.13775, 3.1068702, 4.13775, -3.6183207
0.4875882, -0.0203098, 4.1445, 0.0335083, 4.1445, -1.0067139, 4.1445, -0.1617432, 4.1445, 2, 4.1445, 2.9465649, 4.1445, -3.5572519
0.4883824, -0.0236667, 4.15125, 0.0330811, 4.15125, -1.0090332, 4.15125, -0.1585083, 4.15125, 2, 4.15125, 2.7175572, 4.15125, -3.519084
0.4891765, -0.023331, 4.158, 0.0327148, 4.158, -1.0091553, 4.158, -0.1598511, 4.158, 1.9541985, 4.158, 2.1450381, 4.158, -3.6259542
0.4899706, -0.0260166, 4.16475, 0.0322266, 4.16475, -1.0076904, 4.16475, -0.1607666, 4.16475, 1.7480916, 4.16475, 1.8931298, 4.16475, -3.740458
0.4907647, -0.0263523, 4.1715, 0.0321045, 4.1715, -1.0021362, 4.1715, -0.1552734, 4.1715, 1.7251909, 4.1715, 1.5954199, 4.1715, -3.6030533
0.4915588, -0.018967, 4.17825, 0.0308228, 4.17825, -1.005127, 4.17825, -0.1557007, 4.17825, 1.6335878, 4.17825, 1.129771, 4.17825, -3.5725191
0.4923529, -0.0112459, 4.185, 0.0303955, 4.185, -1.0045166, 4.185, -0.1557617, 4.185, 1.4961832, 4.185, 0.9770992, 4.185, -3.6030533
0.4931471, -0.0063783, 4.19175, 0.0323486, 4.19175, -1.0076294, 4.19175, -0.1535645, 4.19175, 1.2442749, 4.19175, 1.038168, 4.19175, -3.7099237
0.4939412, -0.0068818, 4.1985, 0.0320435, 4.1985, -1.0062866, 4.1985, -0.1567993, 4.1985, 1.1755725, 4.1985, 0.9465649, 4.1985, -3.6870229
0.4947353, -0.002182, 4.20525, 0.0318604, 4.20525, -1.0057983, 4.20525, -0.1542969, 4.20525, 1.1908396, 4.20525, 0.7099237, 4.20525, -3.7175572
0.4955294, 0.0005035, 4.212, 0.03302, 4.212, -1.0045776, 4.212, -0.1574097, 4.212, 1.0687023, 4.212, 0.6412213, 4.212, -3.5725191
0.4963235, -0.0008392, 4.21875, 0.0325928, 4.21875, -1.0059204, 4.21875, -0.1605835, 4.21875, 0.908397, 4.21875, 0.5343512, 4.21875, -3.7557251
0.4971176, 0.0008392, 4.2255, 0.0308228, 4.2255, -1.0048828, 4.2255, -0.1610718, 4.2255, 1.1755725, 4.2255, 0.4427481, 4.2255, -3.7022901
0.4979118, 0.0005035, 4.23225, 0.031311, 4.23225, -1.005188, 4.23225, -0.1574707, 4.23225, 1.0534351, 4.23225, 0.1755725, 4.23225, -3.7099237
0.4987059, 0, 4.239, 0.0318604, 4.239, -1.0042114, 4.239, -0.1613159, 4.239, 1.038168, 4.239, 0.129771, 4.239, -3.6564887
0.4995, -0.0015106, 4.24575, 0.0326538, 4.24575, -1.003479, 4.24575, -0.1607666, 4.24575, 0.908397, 4.24575, -0.1832061, 4.24575, -3.6335878
0.5002941, -0.0083925, 4.2525, 0.0358887, 4.2525, -1.0028687, 4.2525, -0.1612549, 4.2525, 1.0687023, 4.2525, -0.6183206, 4.2525, -3.8244274
0.5010882, -0.0142672, 4.25925, 0.0349121, 4.25925, -1.0031128, 4.25925, -0.1671143, 4.25925, 0.908397, 4.25925, -1.1221374, 4.25925, -3.740458
0.5018824, -0.0196384, 4.266, 0.0391846, 4.266, -1.0003052, 4.266, -0.1658936, 4.266, 1.0992366, 4.266, -1.4427481, 4.266, -3.870229
0.5026765, -0.0186313, 4.27275, 0.0406494, 4.27275, -1.0031128, 4.27275, -0.1657104, 4.27275, 1.129771, 4.27275, -1.4427481, 4.27275, -3.6870229
0.5034706, -0.0216526, 4.2795, 0.0367432, 4.2795, -1.0024414, 4.2795, -0.1657104, 4.2795, 1.0839695, 4.2795, -1.2748091, 4.2795, -3.8854961
0.5042647, -0.0283665, 4.28625, 0.0371704, 4.28625, -1.0028076, 4.28625, -0.1652832, 4.28625, 1.0610687, 4.28625, -1.3664122, 4.28625, -3.8625953
0.5050588, -0.0310521, 4.293, 0.0374756, 4.293, -1.0076294, 4.293, -0.1672363, 4.293, 0.9770992, 4.293, -1.3282443, 4.293, -3.9160306
0.5058529, -0.0313878, 4.29975, 0.0339355, 4.29975, -1.0060425, 4.29975, -0.1698608, 4.29975, 1.0229008, 4.29975, -1.4961832, 4.29975, -3.870229
0.5066471, -0.0290379, 4.3065, 0.034729, 4.3065, -1.0066528, 4.3065, -0.1682739, 4.3065, 1.2824427, 4.3065, -1.648855, 4.3065, -3.870229
0.5074412, -0.0276951, 4.31325, 0.0375366, 4.31325, -1.0093384, 4.31325, -0.1707764, 4.31325, 1.1755725, 4.31325, -1.4961832, 4.31325, -3.8167939
0.5082353, -0.0258488, 4.32, 0.0406494, 4.32, -1.0097046, 4.32, -0.1691284, 4.32, 1.1679389, 4.32, -1.4503816, 4.32, -3.740458
0.5090294, -0.0186313, 4.32675, 0.0386353, 4.32675, -1.0065918, 4.32675, -0.1707153, 4.32675, 1.2519084, 4.32675, -1.1679389, 4.32675, -3.8320611
0.5098235, -0.018967, 4.3335, 0.0380859, 4.3335, -1.0063477, 4.3335, -0.1663818, 4.3335, 1.4198474, 4.3335, -0.9465649, 4.3335, -3.519084
0.5106176, -0.0204776, 4.34025, 0.0388794, 4.34025, -1.0033569, 4.34025, -0.1604004, 4.34025, 1.3053435, 4.34025, -0.519084, 4.34025, -3.6564887
0.5114118, -0.0139315, 4.347, 0.0410156, 4.347, -1.0058594, 4.347, -0.1602783, 4.347, 1.221374, 4.347, -0.6564885, 4.347, -3.6335878
0.5122059, -0.0068818, 4.35375, 0.0391846, 4.35375, -1.0065308, 4.35375, -0.1621704, 4.35375, 1.2900764, 4.35375, -0.5343512, 4.35375, -3.6335878
0.513, -0.0070497, 4.3605, 0.0361938, 4.3605, -1.0053101, 4.3605, -0.1612549, 4.3605, 1.259542, 4.3605, -0.5343512, 4.3605, -3.7328243
0.5137941, -0.0048676, 4.36725, 0.0356445, 4.36725, -1.0043335, 4.36725, -0.1604004, 4.36725, 1.1374046, 4.36725, -0.7022901, 4.36725, -3.6870229
0.5145882, -0.0041962, 4.374, 0.0336304, 4.374, -1.0032349, 4.374, -0.1607666, 4.374, 1.129771, 4.374, -0.8549618, 4.374, -3.5877862
0.5153824, -0.0099031, 4.38075, 0.0346069, 4.38075, -1.0046387, 4.38075, -0.1645508, 4.38075, 1.1068702, 4.38075, -0.961832, 4.38075, -3.610687
0.5161765, -0.008896, 4.3875, 0.0355835, 4.3875, -1.0020752, 4.3875, -0.1640625, 4.3875, 1.1908396, 4.3875, -0.908397, 4.3875, -3.5801528
0.5169706, -0.0135958, 4.39425, 0.0386353, 4.39425, -1.0020752, 4.39425, -0.1653442, 4.39425, 1.0076336, 4.39425, -1.0992366, 4.39425, -3.7328243
0.5177647, -0.0179599, 4.401, 0.0388184, 4.401, -1.0033569, 4.401, -0.1693115, 4.401, 1.0534351, 4.401, -0.9541985, 4.401, -3.7175572
0.5185588, -0.0159457, 4.40775, 0.0393677, 4.40775, -1.0026855, 4.40775, -0.1693115, 4.40775, 1.2290076, 4.40775, -0.9007633, 4.40775, -3.480916
0.5193529, -0.0199741, 4.4145, 0.0423584, 4.4145, -1.0018311, 4.4145, -0.1677246, 4.4145, 1.1374046, 4.4145, -0.4961832, 4.4145, -3.6564887
0.5201471, -0.0209812, 4.42125, 0.0407715, 4.42125, -1.0037231, 4.42125, -0.1691895, 4.42125, 1.2290076, 4.42125, -0.4503817, 4.42125, -3.5572519
0.5209412, -0.0216526, 4.428, 0.0426636, 4.428, -1.0045776, 4.428, -0.1709595, 4.428, 1.1221374, 4.428, -0.259542, 4.428, -3.5801528
0.5217353, -0.0231632, 4.43475, 0.0405884, 4.43475, -1.0027466, 4.43475, -0.1733398, 4.43475, 1.2137405, 4.43475, -0.0916031, 4.43475, -3.3587787
0.5225294, -0.0226596, 4.4415, 0.0422363, 4.4415, -1.0020142, 4.4415, -0.1729126, 4.4415, 1.3969465, 4.4415, 0.0381679, 4.4415, -3.4732823
0.5233235, -0.0236667, 4.44825, 0.0389404, 4.44825, -1.0072632, 4.44825, -0.1762085, 4.44825, 1.6259542, 4.44825, 0.3282443, 4.44825, -3.5038168
0.5241176, -0.0198062, 4.455, 0.0435181, 4.455, -1.0042114, 4.455, -0.1730957, 4.455, 1.5801526, 4.455, 0.6870229, 4.455, -3.4580152
0.5249118, -0.0169528, 4.46175, 0.0396729, 4.46175, -0.9992065, 4.46175, -0.1720581, 4.46175, 1.6946565, 4.46175, 0.7862595, 4.46175, -3.2977099
0.5257059, -0.0105745, 4.4685, 0.0420532, 4.4685, -1.0043335, 4.4685, -0.1731567, 4.4685, 1.6717557, 4.4685, 0.8931298, 4.4685, -3.4656489
0.5265, -0.0095674, 4.47525, 0.0410767, 4.47525, -1.005249, 4.47525, -0.1738892, 4.47525, 1.7328244, 4.47525, 1.1603054, 4.47525, -3.3129771
0.5272941, -0.0075532, 4.482, 0.0414429, 4.482, -1.0020752, 4.482, -0.1716919, 4.482, 1.870229, 4.482, 1.2519084, 4.482, -3.1679389
0.5280882, -0.005539, 4.48875, 0.0411377, 4.48875, -1.0026855, 4.48875, -0.1685181, 4.48875, 2.0610688, 4.48875, 1.4122137, 4.48875, -3.1526718
0.5288824, -0.0035248, 4.4955, 0.0375366, 4.4955, -1.0039062, 4.4955, -0.1672363, 4.4955, 2.0992367, 4.4955, 1.4580153, 4.4955, -3.1221373
0.5296765, 0.0057069, 4.50225, 0.0386353, 4.50225, -1.0058594, 4.50225, -0.164978, 4.50225, 1.9770992, 4.50225, 1.3740458, 4.50225, -3.2977099
0.5304706, 0.0058747, 4.509, 0.0376587, 4.509, -1.0032959, 4.509, -0.1669922, 4.509, 1.9770992, 4.509, 1.2824427, 4.509, -3.1145039
0.5312647, 0.0038605, 4.51575, 0.0354004, 4.51575, -1.0029297, 4.51575, -0.166687, 4.51575, 2.0076337, 4.51575, 1.2900764, 4.51575, -3.2366412
0.5320588, 0.0031891, 4.5225, 0.0366821, 4.5225, -1.005127, 4.5225, -0.1640625, 4.5225, 2.0076337, 4.5225, 1.2671756, 4.5225, -3.3282442
0.5328529, 0.0001678, 4.52925, 0.0389404, 4.52925, -1.0061035, 4.52925, -0.1622925, 4.52925, 1.9160305, 4.52925, 1.2061069, 4.52925, -3.3740458
0.5336471, -0.0085603, 4.536, 0.0408325, 4.536, -1.0018311, 4.536, -0.1602783, 4.536, 1.9770992, 4.536, 1.259542, 4.536, -3.1450381
0.5344412, -0.0209812, 4.54275, 0.0367432, 4.54275, -1.0026855, 4.54275, -0.1581421, 4.54275, 1.8015267, 4.54275, 1.2977099, 4.54275, -3.2900763
0.5352353, -0.0229953, 4.5495, 0.0366821, 4.5495, -1.0007935, 4.5495, -0.1578979, 4.5495, 1.778626, 4.5495, 1.3969465, 4.5495, -3.4427481
0.5360294, -0.0273594, 4.55625, 0.0316772, 4.55625, -1.0012207, 4.55625, -0.1582642, 4.55625, 1.6183206, 4.55625, 1.2061069, 4.55625, -3.4274809
0.5368235, -0.0293736, 4.563, 0.0298462, 4.563, -1.001709, 4.563, -0.1552734, 4.563, 1.5801526, 4.563, 1.129771, 4.563, -3.610687
0.5376176, -0.0270237, 4.56975, 0.0263062, 4.56975, -0.9994507, 4.56975, -0.1556396, 4.56975, 1.5496184, 4.56975, 0.9312977, 4.56975, -3.5648854
0.5384118, -0.0270237, 4.5765, 0.0296631, 4.5765, -1.001709, 4.5765, -0.1531982, 4.5765, 1.389313, 4.5765, 0.7175573, 4.5765, -3.5572519
0.5392059, -0.026688, 4.58325, 0.0310669, 4.58325, -1.00354, 4.58325, -0.1523438, 4.58325, 1.1679389, 4.58325, 0.6870229, 4.58325, -3.6412213
0.54, -0.0290379, 4.59, 0.0314331, 4.59, -1.0043335, 4.59, -0.1535034, 4.59, 1.2748091, 4.59, 0.7862595, 4.59, -3.6030533
0.5407941, -0.023331, 4.59675, 0.029541, 4.59675, -1.0074463, 4.59675, -0.1551514, 4.59675, 1.1832061, 4.59675, 0.7709923, 4.59675, -3.7099237
0.5415882, -0.0224918, 4.6035, 0.0335083, 4.6035, -1.0053711, 4.6035, -0.1543579, 4.6035, 1.129771, 4.6035, 0.8549618, 4.6035, -3.7175572
0.5423824, -0.0182956, 4.61025, 0.0373535, 4.61025, -1.0056152, 4.61025, -0.1591187, 4.61025, 1.0534351, 4.61025, 1.1374046, 4.61025, -3.6335878
0.5431765, -0.008896, 4.617, 0.032959, 4.617, -1.0078125, 4.617, -0.1586914, 4.617, 1.091603, 4.617, 0.9923664, 4.617, -3.7099237
0.5439706, -0.0075532, 4.62375, 0.0355225, 4.62375, -1.0078735, 4.62375, -0.1588745, 4.62375, 0.908397, 4.62375, 1.2442749, 4.62375, -3.7709923
0.5447647, -0.0082246, 4.6305, 0.0371094, 4.6305, -1.0081177, 4.6305, -0.1623535, 4.6305, 1.0610687, 4.6305, 0.9923664, 4.6305, -4.0305343
0.5455588, -0.0050355, 4.63725, 0.0380859, 4.63725, -1.0077515, 4.63725, -0.161499, 4.63725, 1.0076336, 4.63725, 1.038168, 4.63725, -3.7557251
0.5463529, -0.0008392, 4.644, 0.0393677, 4.644, -1.006897, 4.644, -0.1622925, 4.644, 1.0763359, 4.644, 1.0458015, 4.644, -3.7938931
0.5471471, 0.0003357, 4.65075, 0.0372925, 4.65075, -1.0042114, 4.65075, -0.1608887, 4.65075, 0.9770992, 4.65075, 1, 4.65075, -3.8244274
0.5479412, -0.0015106, 4.6575, 0.0355225, 4.6575, -1.0028687, 4.6575, -0.1669312, 4.6575, 0.8625954, 4.6575, 0.9236641, 4.6575, -3.8854961
0.5487353, -0.0048676, 4.66425, 0.0391846, 4.66425, -1.0038452, 4.66425, -0.1678467, 4.66425, 0.908397, 4.66425, 0.8625954, 4.66425, -3.7480917
0.5495294, -0.0095674, 4.671, 0.0404053, 4.671, -1.0026245, 4.671, -0.1680908, 4.671, 0.7938932, 4.671, 0.6641222, 4.671, -3.9160306
0.5503235, -0.0182956, 4.67775, 0.0386353, 4.67775, -1.003479, 4.67775, -0.1679688, 4.67775, 0.8625954, 4.67775, 0.7633588, 4.67775, -3.9007633
0.5511176, -0.023331, 4.6845, 0.039978, 4.6845, -1.0020752, 4.6845, -0.1658936, 4.6845, 0.908397, 4.6845, 0.8015267, 4.6845, -3.7099237
0.5519118, -0.024506, 4.69125, 0.0389404, 4.69125, -1.0003662, 4.69125, -0.1673584, 4.69125, 0.9770992, 4.69125, 0.7480916, 4.69125, -3.6793892
0.5527059, -0.0226596, 4.698, 0.036377, 4.698, -1.0003662, 4.698, -0.1633911, 4.698, 1.0458015, 4.698, 0.7709923, 4.698, -3.9389312
0.5535, -0.0213169, 4.70475, 0.0362549, 4.70475, -1.0012207, 4.70475, -0.1660156, 4.70475, 0.9541985, 4.70475, 0.8091603, 4.70475, -3.8396947
0.5542941, -0.024506, 4.7115, 0.038147, 4.7115, -0.9976807, 4.7115, -0.1623535, 4.7115, 1.1374046, 4.7115, 0.8167939, 4.7115, -4.0152674
0.5550882, -0.0280308, 4.71825, 0.0373535, 4.71825, -1.0016479, 4.71825, -0.1643677, 4.71825, 1.1374046, 4.71825, 0.6717557, 4.71825, -3.8244274
0.5558824, -0.0318914, 4.725, 0.0390625, 4.725, -1.0012817, 4.725, -0.163147, 4.725, 1.0687023, 4.725, 0.7480916, 4.725, -3.7938931
0.5566765, -0.0243381, 4.73175, 0.0444946, 4.73175, -1.0032349, 4.73175, -0.1647339, 4.73175, 1.2977099, 4.73175, 1.0305344, 4.73175, -3.5954199
0.5574706, -0.0176242, 4.7385, 0.0425415, 4.7385, -1.0009155, 4.7385, -0.1688232, 4.7385, 1.1603054, 4.7385, 1.0687023, 4.7385, -3.6259542
0.5582647, -0.0169528, 4.74525, 0.0415649, 4.74525, -0.9996948, 4.74525, -0.1628418, 4.74525, 1.1679389, 4.74525, 1.4045801, 4.74525, -3.6335878
0.5590588, -0.0139315, 4.752, 0.0415649, 4.752, -1.0031128, 4.752, -0.166626, 4.752, 1.2290076, 4.752, 1.6259542, 4.752, -3.6564887
0.5598529, -0.008896, 4.75875, 0.0389404, 4.75875, -1.007019, 4.75875, -0.1664429, 4.75875, 1.3435115, 4.75875, 1.4427481, 4.75875, -3.6793892
0.5606471, -0.0087282, 4.7655, 0.038147, 4.7655, -1.0098267, 4.7655, -0.1671753, 4.7655, 1.2519084, 4.7655, 1.6183206, 4.7655, -3.5801528
0.5614412, -0.0102388, 4.77225, 0.0411377, 4.77225, -1.0099487, 4.77225, -0.1653442, 4.77225, 1.3206106, 4.77225, 1.7099236, 4.77225, -3.6793892
0.5622353, -0.0018463, 4.779, 0.0432129, 4.779, -1.0080566, 4.779, -0.1652832, 4.779, 1.1908396, 4.779, 1.5419847, 4.779, -3.8320611
0.5630294, 0.0008392, 4.78575, 0.0429688, 4.78575, -1.0078735, 4.78575, -0.1652222, 4.78575, 1.221374, 4.78575, 1.6870229, 4.78575, -3.6793892
0.5638235, -0.0008392, 4.7925, 0.0407715, 4.7925, -1.0075684, 4.7925, -0.164856, 4.7925, 1.351145, 4.7925, 1.9389313, 4.7925, -3.6641221
0.5646176, 0.0008392, 4.79925, 0.0407104, 4.79925, -1.005249, 4.79925, -0.1627197, 4.79925, 1.221374, 4.79925, 1.9007634, 4.79925, -3.740458
0.5654118, -0.0005035, 4.806, 0.039978, 4.806, -1.0042114, 4.806, -0.163269, 4.806, 1.1755725, 4.806, 1.8854961, 4.806, -3.5419848
0.5662059, -0.0016785, 4.81275, 0.0401001, 4.81275, -1.0056152, 4.81275, -0.1589966, 4.81275, 1.0229008, 4.81275, 1.9007634, 4.81275, -3.4580152
0.567, -0.0060426, 4.8195, 0.0395508, 4.8195, -1.0073853, 4.8195, -0.1610107, 4.8195, 1.0534351, 4.8195, 1.9770992, 4.8195, -3.4274809
0.5677941, -0.0119173, 4.82625, 0.0407104, 4.82625, -1.0059204, 4.82625, -0.1617432, 4.82625, 1.1145039, 4.82625, 2.0076337, 4.82625, -3.4961832
0.5685882, -0.0226596, 4.833, 0.0411987, 4.833, -1.0043945, 4.833, -0.1611328, 4.833, 1.1603054, 4.833, 1.740458, 4.833, -3.4122138
0.5693824, -0.0280308, 4.83975, 0.0403442, 4.83975, -1.0043335, 4.83975, -0.1589355, 4.83975, 0.9160305, 4.83975, 1.908397, 4.83975, -3.6870229
0.5701765, -0.0302129, 4.8465, 0.0400391, 4.8465, -1.0029907, 4.8465, -0.1607056, 4.8465, 0.9694657, 4.8465, 1.7099236, 4.8465, -3.5954199
0.5709706, -0.0290379, 4.85325, 0.0388794, 4.85325, -1.0025635, 4.85325, -0.1619263, 4.85325, 0.8549618, 4.85325, 1.6259542, 4.85325, -3.648855
0.5717647, -0.0255131, 4.86, 0.0429077, 4.86, -1.0039062, 4.86, -0.1616211, 4.86, 0.6946565, 4.86, 1.6793894, 4.86, -3.6030533
0.5725588, -0.0273594, 4.86675, 0.0391846, 4.86675, -1.0020142, 4.86675, -0.1618042, 4.86675, 0.8778626, 4.86675, 1.7022901, 4.86675, -3.870229
0.5733529, -0.026688, 4.8735, 0.0405884, 4.8735, -1.0023193, 4.8735, -0.1615601, 4.8735, 0.740458, 4.8735, 1.519084, 4.8735, -3.7862597
0.5741471, -0.0238346, 4.88025, 0.0405273, 4.88025, -1.0059204, 4.88025, -0.1639404, 4.88025, 0.8091603, 4.88025, 1.3206106, 4.88025, -3.7175572
0.5749412, -0.0213169, 4.887, 0.0394897, 4.887, -1.0059814, 4.887, -0.1602783, 4.887, 0.6335878, 4.887, 1.221374, 4.887, -3.6183207
0.5757353, -0.0162814, 4.89375, 0.0395508, 4.89375, -1.0084229, 4.89375, -0.1609497, 4.89375, 0.8320611, 4.89375, 1.221374, 4.89375, -3.7557251
0.5765294, -0.0119173, 4.9005, 0.0391846, 4.9005, -1.0059204, 4.9005, -0.1605225, 4.9005, 0.7328244, 4.9005, 0.961832, 4.9005, -3.7175572
0.5773235, -0.0077211, 4.90725, 0.0375977, 4.90725, -1.0072632, 4.90725, -0.1625366, 4.90725, 0.9236641, 4.90725, 1.0687023, 4.90725, -3.7862597
0.5781176, -0.0035248, 4.914, 0.0366211, 4.914, -1.0064697, 4.914, -0.1633911, 4.914, 0.8549618, 4.914, 0.9847328, 4.914, -3.9389312
0.5789118, 0.0008392, 4.92075, 0.0362549, 4.92075, -1.0044556, 4.92075, -0.1640015, 4.92075, 0.7557252, 4.92075, 0.870229, 4.92075, -3.7251909
0.5797059, 0.0018463, 4.9275, 0.0375366, 4.9275, -1.0026855, 4.9275, -0.1633911, 4.9275, 0.7709923, 4.9275, 0.6717557, 4.9275, -3.6870229
0.5805, -0.0035248, 4.93425, 0.0377197, 4.93425, -1.006958, 4.93425, -0.1622314, 4.93425, 0.8625954, 4.93425, 0.6564885, 4.93425, -3.6641221
0.5812941, -0.0068818, 4.941, 0.0415649, 4.941, -1.0075073, 4.941, -0.1633911, 4.941, 0.8167939, 4.941, 0.8244275, 4.941, -3.9694657
0.5820882, -0.0078889, 4.94775, 0.0425415, 4.94775, -1.0062866, 4.94775, -0.1642456, 4.94775, 0.8625954, 4.94775, 0.7022901, 4.94775, -3.9236641
0.5828824, -0.0085603, 4.9545, 0.0432739, 4.9545, -1.0058594, 4.9545, -0.1647949, 4.9545, 0.7938932, 4.9545, 1.0458015, 4.9545, -3.9007633
0.5836765, -0.0109102, 4.96125, 0.0427246, 4.96125, -1.0032959, 4.96125, -0.1633301, 4.96125, 0.7938932, 4.96125, 0.9236641, 4.96125, -3.8473282
0.5844706, -0.0157778, 4.968, 0.0391235, 4.968, -1.0048828, 4.968, -0.1635132, 4.968, 0.740458, 4.968, 0.9465649, 4.968, -3.8549619
0.5852647, -0.0152743, 4.97475, 0.038147, 4.97475, -1.0033569, 4.97475, -0.1638794, 4.97475, 0.610687, 4.97475, 0.870229, 4.97475, -3.9694657
0.5860588, -0.0181277, 4.9815, 0.0415039, 4.9815, -1.0023804, 4.9815, -0.1629639, 4.9815, 0.740458, 4.9815, 0.6717557, 4.9815, -3.9236641
0.5868529, -0.0219883, 4.98825, 0.0401611, 4.98825, -1.0026245, 4.98825, -0.1620483, 4.98825, 0.740458, 4.98825, 0.5572519, 4.98825, -3.6870229
0.5876471, -0.0219883, 4.995, 0.0371704, 4.995, -1.0028076, 4.995, -0.163269, 4.995, 0.5572519, 4.995, 0.389313, 4.995, -3.6030533
0.5884412, -0.0209812, 5.00175, 0.0412598, 5.00175, -1.003479, 5.00175, -0.1600342, 5.00175, 0.648855, 5.00175, 0.3206107, 5.00175, -3.7709923
0.5892353, -0.0186313, 5.0085, 0.0435791, 5.0085, -1.00354, 5.0085, -0.1620483, 5.0085, 0.6412213, 5.0085, 0.2824427, 5.0085, -3.8931298
0.5900294, -0.0216526, 5.01525, 0.0426636, 5.01525, -1.0033569, 5.01525, -0.163147, 5.01525, 0.6564885, 5.01525, 0.2290076, 5.01525, -3.7328243
0.5908235, -0.023331, 5.022, 0.0477295, 5.022, -1.0007935, 5.022, -0.1633301, 5.022, 0.4656489, 5.022, 0.0229008, 5.022, -3.7633588
0.5916176, -0.0164492, 5.02875, 0.0444336, 5.02875, -1.0015259, 5.02875, -0.1643677, 5.02875, 0.5725191, 5.02875, 0.2137405, 5.02875, -3.908397
0.5924118, -0.0109102, 5.0355, 0.0460205, 5.0355, -1.0026855, 5.0355, -0.1641235, 5.0355, 0.5801527, 5.0355, 0.3664122, 5.0355, -3.9160306
0.5932059, -0.0095674, 5.04225, 0.0438843, 5.04225, -1.0030518, 5.04225, -0.1672974, 5.04225, 0.4732825, 5.04225, 0.3969466, 5.04225, -3.8091602
0.594, -0.0072175, 5.049, 0.0467529, 5.049, -1.0036621, 5.049, -0.1690063, 5.049, 0.6183206, 5.049, 0.2748092, 5.049, -3.7480917
0.5947941, -0.0031891, 5.05575, 0.0458984, 5.05575, -1.0042725, 5.05575, -0.1691284, 5.05575, 0.6335878, 5.05575, 0.351145, 5.05575, -3.7862597
0.5955882, -0.0050355, 5.0625, 0.045105, 5.0625, -1.0071411, 5.0625, -0.1691895, 5.0625, 0.7175573, 5.0625, 0.519084, 5.0625, -3.8320611
0.5963824, -0.005539, 5.06925, 0.043396, 5.06925, -1.0036011, 5.06925, -0.1704712, 5.06925, 0.8167939, 5.06925, 0.3358779, 5.06925, -3.7175572
0.5971765, -0.0070497, 5.076, 0.0440063, 5.076, -1.0046997, 5.076, -0.1674805, 5.076, 0.6793893, 5.076, 0.5267175, 5.076, -3.8625953
0.5979706, -0.0075532, 5.08275, 0.0419312, 5.08275, -1.0042725, 5.08275, -0.1676636, 5.08275, 0.7251908, 5.08275, 0.5343512, 5.08275, -3.6870229
0.5987647, -0.008896, 5.0895, 0.043396, 5.0895, -1.003418, 5.0895, -0.1668701, 5.0895, 0.870229, 5.0895, 0.351145, 5.0895, -3.648855
0.5995588, -0.0135958, 5.09625, 0.0443115, 5.09625, -1.003479, 5.09625, -0.1681519, 5.09625, 0.7709923, 5.09625, 0.4580153, 5.09625, -3.8167939
0.6003529, -0.0142672, 5.103, 0.0472412, 5.103, -1.0028687, 5.103, -0.170105, 5.103, 0.7175573, 5.103, 0.480916, 5.103, -3.7862597
0.6011471, -0.018967, 5.10975, 0.0437012, 5.10975, -1.0025635, 5.10975, -0.1687622, 5.10975, 0.908397, 5.10975, 0.7557252, 5.10975, -3.6183207
0.6019412, -0.018967, 5.1165, 0.0423584, 5.1165, -1.0070801, 5.1165, -0.1642456, 5.1165, 0.9007633, 5.1165, 0.7175573, 5.1165, -3.6946564
0.6027353, -0.0176242, 5.12325, 0.0440674, 5.12325, -1.007019, 5.12325, -0.1668091, 5.12325, 1.0534351, 5.12325, 0.7709923, 5.12325, -3.5419848
0.6035294, -0.0182956, 5.13, 0.0439453, 5.13, -1.0054932, 5.13, -0.1690063, 5.13, 1.1068702, 5.13, 0.6412213, 5.13, -3.5877862
0.6043235, -0.0240024, 5.13675, 0.0463867, 5.13675, -1.0042725, 5.13675, -0.1682129, 5.13675, 1.1221374, 5.13675, 0.610687, 5.13675, -3.5801528
0.6051176, -0.0250095, 5.1435, 0.0458374, 5.1435, -1.0025024, 5.1435, -0.1685791, 5.1435, 1.1908396, 5.1435, 0.7175573, 5.1435, -3.5572519
0.6059118, -0.0285344, 5.15025, 0.0460815, 5.15025, -1.0011597, 5.15025, -0.166748, 5.15025, 1.1450381, 5.15025, 0.7862595, 5.15025, -3.6335878
0.6067059, -0.0265202, 5.157, 0.0440674, 5.157, -1.0001221, 5.157, -0.1669312, 5.157, 1.0534351, 5.157, 0.9007633, 5.157, -3.5572519
0.6075, -0.018967, 5.16375, 0.043457, 5.16375, -1.0027466, 5.16375, -0.1668701, 5.16375, 1.091603, 5.16375, 0.8854962, 5.16375, -3.5114503
0.6082941, -0.0182956, 5.1705, 0.0418091, 5.1705, -1.0041504, 5.1705, -0.1657715, 5.1705, 1.1221374, 5.1705, 0.8015267, 5.1705, -3.6335878
0.6090882, -0.0179599, 5.17725, 0.0421143, 5.17725, -1.0011597, 5.17725, -0.164917, 5.17725, 1.2290076, 5.17725, 0.6183206, 5.17725, -3.7557251
0.6098824, -0.0149386, 5.184, 0.0424805, 5.184, -1.0045776, 5.184, -0.1653442, 5.184, 1.1908396, 5.184, 0.5725191, 5.184, -3.5114503
0.6106765, -0.0068818, 5.19075, 0.0419922, 5.19075, -1.0037231, 5.19075, -0.1669922, 5.19075, 1.1755725, 5.19075, 0.5038168, 5.19075, -3.7251909
0.6114706, 0.0025177, 5.1975, 0.0426025, 5.1975, -1.0054932, 5.1975, -0.1689453, 5.1975, 1.1374046, 5.1975, 0.4198473, 5.1975, -3.6335878
0.6122647, 0.0008392, 5.20425, 0.0441284, 5.20425, -1.0048218, 5.20425, -0.164856, 5.20425, 1.038168, 5.20425, 0.4198473, 5.20425, -3.7099237
0.6130588, 0.0028534, 5.211, 0.046936, 5.211, -1.0046387, 5.211, -0.1676025, 5.211, 1.1450381, 5.211, 0.4580153, 5.211, -3.7709923
0.6138529, 0.0043641, 5.21775, 0.0459595, 5.21775, -1.0039673, 5.21775, -0.166748, 5.21775, 1.129771, 5.21775, 0.5114504, 5.21775, -3.778626
0.6146471, -0.002182, 5.2245, 0.0460815, 5.2245, -1.0041504, 5.2245, -0.1678467, 5.2245, 1.1908396, 5.2245, 0.7328244, 5.2245, -3.740458
0.6154412, -0.0015106, 5.23125, 0.0422363, 5.23125, -1.0043945, 5.23125, -0.1650391, 5.23125, 1.1832061, 5.23125, 0.8854962, 5.23125, -3.7022901
0.6162353, 0.0001678, 5.238, 0.0457153, 5.238, -1.0026245, 5.238, -0.1660156, 5.238, 1.2824427, 5.238, 0.8396947, 5.238, -3.648855
0.6170294, -0.0048676, 5.24475, 0.0413818, 5.24475, -1.0030518, 5.24475, -0.1634521, 5.24475, 1.0763359, 5.24475, 0.8549618, 5.24475, -3.6259542
0.6178235, -0.0166171, 5.2515, 0.0390015, 5.2515, -1.00354, 5.2515, -0.1640015, 5.2515, 1.091603, 5.2515, 0.6946565, 5.2515, -3.5496182
0.6186176, -0.0219883, 5.25825, 0.0397339, 5.25825, -1.0029297, 5.25825, -0.1634521, 5.25825, 0.9923664, 5.25825, 0.6946565, 5.25825, -3.8320611
0.6194118, -0.0206455, 5.265, 0.0408325, 5.265, -1.0008545, 5.265, -0.163269, 5.265, 0.961832, 5.265, 0.4961832, 5.265, -3.8396947
0.6202059, -0.0216526, 5.27175, 0.0432129, 5.27175, -1.0044556, 5.27175, -0.1643066, 5.27175, 0.8549618, 5.27175, 0.6412213, 5.27175, -3.6564887
0.621, -0.0219883, 5.2785, 0.0452881, 5.2785, -1.0028687, 5.2785, -0.164917, 5.2785, 0.9389313, 5.2785, 0.4961832, 5.2785, -3.5801528
0.6217941, -0.0250095, 5.28525, 0.0447388, 5.28525, -1.0046997, 5.28525, -0.1652832, 5.28525, 0.7862595, 5.28525, 0.5419847, 5.28525, -3.6717558
0.6225882, -0.0310521, 5.292, 0.0456543, 5.292, -1.0007324, 5.292, -0.1654663, 5.292, 1.0458015, 5.292, 0.5038168, 5.292, -3.6412213
0.6233824, -0.0290379, 5.29875, 0.0466309, 5.29875, -1.0025024, 5.29875, -0.1660156, 5.29875, 0.961832, 5.29875, 0.7328244, 5.29875, -3.6717558
0.6241765, -0.0270237, 5.3055, 0.0457153, 5.3055, -1.00354, 5.3055, -0.1685791, 5.3055, 0.961832, 5.3055, 0.740458, 5.3055, -3.5114503
0.6249706, -0.0287022, 5.31225, 0.0447388, 5.31225, -1.0032959, 5.31225, -0.1645508, 5.31225, 1.0839695, 5.31225, 0.648855, 5.31225, -3.6183207
0.6257647, -0.0251774, 5.319, 0.0441895, 5.319, -1.0003052, 5.319, -0.166687, 5.319, 1.0534351, 5.319, 0.740458, 5.319, -3.5801528
0.6265588, -0.0182956, 5.32575, 0.0443115, 5.32575, -1.0023193, 5.32575, -0.1659546, 5.32575, 1.0610687, 5.32575, 0.5877863, 5.32575, -3.7099237
0.6273529, -0.0139315, 5.3325, 0.0461426, 5.3325, -1.001709, 5.3325, -0.1644897, 5.3325, 1.0839695, 5.3325, 0.5801527, 5.3325, -3.6259542
0.6281471, -0.0112459, 5.33925, 0.045166, 5.33925, -1.0037842, 5.33925, -0.1655884, 5.33925, 1.0229008, 5.33925, 0.5877863, 5.33925, -3.5954199
0.6289412, -0.0102388, 5.346, 0.0436401, 5.346, -1.0033569, 5.346, -0.1671143, 5.346, 0.908397, 5.346, 0.5496183, 5.346, -3.6335878
0.6297353, -0.0095674, 5.35275, 0.0429688, 5.35275, -1.005188, 5.35275, -0.1660767, 5.35275, 1.0229008, 5.35275, 0.5343512, 5.35275, -3.648855
0.6305294, -0.0075532, 5.3595, 0.0443726, 5.3595, -1.0054932, 5.3595, -0.166748, 5.3595, 1.1145039, 5.3595, 0.648855, 5.3595, -3.7251909
0.6313235, -0.0085603, 5.36625, 0.045105, 5.36625, -1.0064697, 5.36625, -0.1665039, 5.36625, 1.1450381, 5.36625, 0.5496183, 5.36625, -3.5572519
0.6321176, -0.0105745, 5.373, 0.0450439, 5.373, -1.0033569, 5.373, -0.1651001, 5.373, 1.038168, 5.373, 0.5267175, 5.373, -3.480916
0.6329118, -0.0130922, 5.37975, 0.0455322, 5.37975, -1.005188, 5.37975, -0.1668091, 5.37975, 1.0229008, 5.37975, 0.6870229, 5.37975, -3.5648854
0.6337059, -0.0139315, 5.3865, 0.0447998, 5.3865, -1.0061646, 5.3865, -0.1638794, 5.3865, 0.908397, 5.3865, 0.6641222, 5.3865, -3.3358779
0.6345, -0.0112459, 5.39325, 0.0463867, 5.39325, -1.0023193, 5.39325, -0.1669312, 5.39325, 1.1068702, 5.39325, 0.9389313, 5.39325, -3.4427481
0.6352941, -0.01561, 5.4, 0.0470581, 5.4, -1.0042725, 5.4, -0.1663208, 5.4, 0.8854962, 5.4, 0.9847328, 5.4, -3.5038168
0.6360882, -0.0169528, 5.40675, 0.0484009, 5.40675, -1.0023804, 5.40675, -0.1705322, 5.40675, 1, 5.40675, 1.1832061, 5.40675, -3.5648854
0.6368824, -0.0166171, 5.4135, 0.0465698, 5.4135, -1.0006104, 5.4135, -0.1651611, 5.4135, 1.0152671, 5.4135, 1.2671756, 5.4135, -3.4427481
0.6376765, -0.0176242, 5.42025, 0.0424194, 5.42025, -1.0031738, 5.42025, -0.1663818, 5.42025, 0.9770992, 5.42025, 1.0076336, 5.42025, -3.2977099
0.6384706, -0.0226596, 5.427, 0.0432129, 5.427, -1.0078735, 5.427, -0.1679688, 5.427, 1.1450381, 5.427, 0.9847328, 5.427, -3.4274809
0.6392647, -0.0263523, 5.43375, 0.0421753, 5.43375, -1.0067749, 5.43375, -0.1676636, 5.43375, 1.0305344, 5.43375, 0.908397, 5.43375, -3.4198472
0.6400588, -0.0285344, 5.4405, 0.0437012, 5.4405, -1.0012207, 5.4405, -0.166687, 5.4405, 1.0687023, 5.4405, 0.8625954, 5.4405, -3.4503818
0.6408529, -0.0260166, 5.44725, 0.0429077, 5.44725, -1.0027466, 5.44725, -0.1655273, 5.44725, 1.0305344, 5.44725, 0.7022901, 5.44725, -3.3053436
0.6416471, -0.026688, 5.454, 0.0444336, 5.454, -1.0053101, 5.454, -0.1676636, 5.454, 0.9160305, 5.454, 0.8091603, 5.454, -3.3282442
0.6424412, -0.0243381, 5.46075, 0.0471191, 5.46075, -1.0040283, 5.46075, -0.164917, 5.46075, 1.0763359, 5.46075, 0.8931298, 5.46075, -3.3664122
0.6432353, -0.01561, 5.4675, 0.0473633, 5.4675, -1.0045166, 5.4675, -0.1685791, 5.4675, 1.0763359, 5.4675, 1.0763359, 5.4675, -3.3206108
0.6440294, -0.0072175, 5.47425, 0.0454712, 5.47425, -1.00354, 5.47425, -0.1692505, 5.47425, 1.1908396, 5.47425, 1.2290076, 5.47425, -3.480916
0.6448235, -0.0041962, 5.481, 0.0429077, 5.481, -1.0028076, 5.481, -0.1671143, 5.481, 1.1679389, 5.481, 1.1450381, 5.481, -3.4122138
0.6456176, -0.0028534, 5.48775, 0.0448608, 5.48775, -1.0057373, 5.48775, -0.1673584, 5.48775, 1.221374, 5.48775, 1.0534351, 5.48775, -3.2671757
0.6464118, -0.0043641, 5.4945, 0.0438843, 5.4945, -1.0056152, 5.4945, -0.1672363, 5.4945, 1.1526718, 5.4945, 1, 5.4945, -3.5038168
0.6472059, -0.0082246, 5.50125, 0.045105, 5.50125, -1.0063477, 5.50125, -0.1669312, 5.50125, 1.0610687, 5.50125, 0.7862595, 5.50125, -3.3129771
0.648, -0.0048676, 5.508, 0.0438843, 5.508, -1.0027466, 5.508, -0.1682129, 5.508, 1.1679389, 5.508, 0.7022901, 5.508, -3.5038168
0.6487941, -0.0036927, 5.51475, 0.048584, 5.51475, -0.9981689, 5.51475, -0.1665039, 5.51475, 1.0610687, 5.51475, 0.5877863, 5.51475, -3.3816793
0.6495882, -0.0050355, 5.5215, 0.0482788, 5.5215, -1.0033569, 5.5215, -0.1697388, 5.5215, 1.2137405, 5.5215, 0.4885496, 5.5215, -3.4503818
0.6503824, -0.0115816, 5.52825, 0.0494385, 5.52825, -1.0042114, 5.52825, -0.1682739, 5.52825, 1.2519084, 5.52825, 0.5954198, 5.52825, -3.5877862
0.6511765, -0.0166171, 5.535, 0.0466919, 5.535, -1.0010376, 5.535, -0.1690674, 5.535, 1.1145039, 5.535, 0.7709923, 5.535, -3.480916
0.6519706, -0.0236667, 5.54175, 0.0454712, 5.54175, -1.0053711, 5.54175, -0.1687622, 5.54175, 1.129771, 5.54175, 0.8473282, 5.54175, -3.519084
0.6527647, -0.0307164, 5.5485, 0.0455322, 5.5485, -1.0014648, 5.5485, -0.1671753, 5.5485, 1.2442749, 5.5485, 0.870229, 5.5485, -3.480916
0.6535588, -0.0310521, 5.55525, 0.0457764, 5.55525, -1.0047607, 5.55525, -0.170105, 5.55525, 1.1679389, 5.55525, 0.9312977, 5.55525, -3.5038168
0.6543529, -0.0253452, 5.562, 0.0450439, 5.562, -1.0058594, 5.562, -0.166748, 5.562, 1.5801526, 5.562, 1.038168, 5.562, -3.5038168
0.6551471, -0.0276951, 5.56875, 0.0479126, 5.56875, -1.0042725, 5.56875, -0.1659546, 5.56875, 1.351145, 5.56875, 0.9465649, 5.56875, -3.5877862
0.6559412, -0.0280308, 5.5755, 0.0443115, 5.5755, -1.0032349, 5.5755, -0.1671753, 5.5755, 1.480916, 5.5755, 1.1374046, 5.5755, -3.4503818
0.6567353, -0.0243381, 5.58225, 0.045166, 5.58225, -1.0028687, 5.58225, -0.1642456, 5.58225, 1.351145, 5.58225, 1.1526718, 5.58225, -3.5725191
0.6575294, -0.0199741, 5.589, 0.0466919, 5.589, -1.0021973, 5.589, -0.1642456, 5.589, 1.4427481, 5.589, 1.221374, 5.589, -3.4427481
0.6583235, -0.0203098, 5.59575, 0.046814, 5.59575, -1.0003052, 5.59575, -0.1679077, 5.59575, 1.2442749, 5.59575, 1.221374, 5.59575, -3.4885497
0.6591176, -0.018967, 5.6025, 0.0494385, 5.6025, -1.0037231, 5.6025, -0.1671753, 5.6025, 1.2137405, 5.6025, 1.3587786, 5.6025, -3.4122138
0.6599118, -0.0157778, 5.60925, 0.0489502, 5.60925, -1.0030518, 5.60925, -0.1668701, 5.60925, 1.3129771, 5.60925, 1.1450381, 5.60925, -3.4885497
0.6607059, -0.0102388, 5.616, 0.0475464, 5.616, -0.9996338, 5.616, -0.1668091, 5.616, 1.4732825, 5.616, 0.9694657, 5.616, -3.3587787
0.6615, -0.0057069, 5.62275, 0.0462646, 5.62275, -1.001709, 5.62275, -0.1663208, 5.62275, 1.5496184, 5.62275, 0.8854962, 5.62275, -3.480916
0.6622941, -0.0001678, 5.6295, 0.0444336, 5.6295, -1.000061, 5.6295, -0.1661987, 5.6295, 1.4274809, 5.6295, 0.9312977, 5.6295, -3.3969467
0.6630882, 0.0015106, 5.63625, 0.0429688, 5.63625, -1.0046387, 5.63625, -0.1657715, 5.63625, 1.4961832, 5.63625, 0.7328244, 5.63625, -3.4580152
0.6638824, 0.0018463, 5.643, 0.0453491, 5.643, -1.0030518, 5.643, -0.168457, 5.643, 1.3664122, 5.643, 0.5877863, 5.643, -3.3969467
0.6646765, 0.0052033, 5.64975, 0.0467529, 5.64975, -1.0042725, 5.64975, -0.1642456, 5.64975, 1.3206106, 5.64975, 0.4122137, 5.64975, -3.4885497
0.6654706, 0.0038605, 5.6565, 0.0493164, 5.6565, -1.0040894, 5.6565, -0.1654053, 5.6565, 1.3435115, 5.6565, 0.4198473, 5.6565, -3.4580152
0.6662647, -0.002182, 5.66325, 0.0510254, 5.66325, -1.0015869, 5.66325, -0.1680908, 5.66325, 1.3435115, 5.66325, 0.5343512, 5.66325, -3.3206108
0.6670588, -0.0062104, 5.67, 0.0511475, 5.67, -1.0027466, 5.67, -0.1674194, 5.67, 1.4961832, 5.67, 0.7633588, 5.67, -3.3969467
0.6678529, -0.012253, 5.67675, 0.0477295, 5.67675, -1.0026855, 5.67675, -0.1635132, 5.67675, 1.3969465, 5.67675, 0.9923664, 5.67675, -3.519084
0.6686471, -0.0172885, 5.6835, 0.0444946, 5.6835, -1.0025635, 5.6835, -0.1661987, 5.6835, 1.2442749, 5.6835, 0.9847328, 5.6835, -3.3129771
0.6694412, -0.0149386, 5.69025, 0.0467529, 5.69025, -1.0048828, 5.69025, -0.1638794, 5.69025, 1.3969465, 5.69025, 1.0305344, 5.69025, -3.389313
0.6702353, -0.0109102, 5.697, 0.0410767, 5.697, -1.0050049, 5.697, -0.1629028, 5.697, 1.3740458, 5.697, 0.9236641, 5.697, -3.519084
0.6710294, -0.0135958, 5.70375, 0.0442505, 5.70375, -1.0031738, 5.70375, -0.1640625, 5.70375, 1.4885496, 5.70375, 0.7480916, 5.70375, -3.4045801
0.6718235, -0.0199741, 5.7105, 0.0460815, 5.7105, -1.003479, 5.7105, -0.1627808, 5.7105, 1.3816794, 5.7105, 0.6183206, 5.7105, -3.4198472
0.6726176, -0.0216526, 5.71725, 0.0482178, 5.71725, -1.0019531, 5.71725, -0.1647339, 5.71725, 1.2900764, 5.71725, 0.3816794, 5.71725, -3.4961832
0.6734118, -0.0273594, 5.724, 0.0479126, 5.724, -1.0037842, 5.724, -0.1656494, 5.724, 1.2442749, 5.724, 0.4656489, 5.724, -3.3664122
0.6742059, -0.024506, 5.73075, 0.0497437, 5.73075, -1.0042114, 5.73075, -0.1659546, 5.73075, 1.3129771, 5.73075, 0.7251908, 5.73075, -3.2977099
0.675, -0.0206455, 5.7375, 0.0523682, 5.7375, -1.0044556, 5.7375, -0.1660156, 5.7375, 1.3282443, 5.7375, 0.7633588, 5.7375, -3.3969467
0.6757941, -0.0196384, 5.74425, 0.0487061, 5.74425, -1.005188, 5.74425, -0.1673584, 5.74425, 1.4656489, 5.74425, 0.961832, 5.74425, -3.2748091
0.6765882, -0.0162814, 5.751, 0.0450439, 5.751, -1.0048828, 5.751, -0.1676636, 5.751, 1.480916, 5.751, 0.9236641, 5.751, -3.2900763
0.6773824, -0.0097353, 5.75775, 0.0464478, 5.75775, -1.0043335, 5.75775, -0.1646118, 5.75775, 1.3358779, 5.75775, 1.0076336, 5.75775, -3.3816793
