Application:, Trigno Discover (1.7.0)
Date/Time:, 2026/9/9 下午 02:49:02
Collection Length (seconds):, 119.2995
Avanti Sensor 11 (69574)
sensor mode: 50
EMG 1 Time Series (s), EMG 1 (mV), ACC X Time Series (s), ACC X (G), ACC Y Time Series (s), ACC Y (G), ACC Z Time Series (s), ACC Z (G), GYRO X Time Series (s), GYRO X (deg/s), GYRO Y Time Series (s), GYRO Y (deg/s), GYRO Z Time Series (s), GYRO Z (deg/s)
, 1259.2593 Hz, , 148.1481 Hz, , 148.1481 Hz, , 148.1481 Hz, , 148.1481 Hz, , 148.1481 Hz, , 148.1481 Hz
0, -0.0285344, 0, 0.0790405, 0, -0.9908447, 0, -0.2609253, 0, 0.6030535, 0, 0.3053435, 0, -3.5038168
0.0007941, -0.0229953, 0.00675, 0.0786133, 0.00675, -0.991333, 0.00675, -0.2611694, 0.00675, 0.5419847, 0.00675, 0.3740458, 0.00675, -3.480916
0.0015882, -0.0166171, 0.0135, 0.0784912, 0.0135, -0.9910889, 0.0135, -0.2615356, 0.0135, 0.6870229, 0.0135, 0.389313, 0.0135, -3.3435113
0.0023824, -0.0117494, 0.02025, 0.0776367, 0.02025, -0.9918823, 0.02025, -0.263855, 0.02025, 0.7328244, 0.02025, 0.519084, 0.02025, -3.3358779
0.0031765, -0.0045319, 0.027, 0.0771484, 0.027, -0.9890747, 0.027, -0.2609253, 0.027, 0.648855, 0.027, 0.4198473, 0.027, -3.2366412
0.0039706, -0.0035248, 0.03375, 0.0761719, 0.03375, -0.9907227, 0.03375, -0.2610474, 0.03375, 0.5725191, 0.03375, 0.3435115, 0.03375, -3.3129771
0.0047647, -0.0038605, 0.0405, 0.0742798, 0.0405, -0.9914551, 0.0405, -0.2579346, 0.0405, 0.6335878, 0.0405, 0.4351145, 0.0405, -3.3129771
0.0055588, -0.0043641, 0.04725, 0.0758057, 0.04725, -0.9935303, 0.04725, -0.2609863, 0.04725, 0.7251908, 0.04725, 0.1221374, 0.04725, -3.5038168
0.0063529, -0.005539, 0.054, 0.0783081, 0.054, -0.9938965, 0.054, -0.2572021, 0.054, 0.7480916, 0.054, 0.0916031, 0.054, -3.3358779
0.0071471, -0.008896, 0.06075, 0.0771484, 0.06075, -0.9945679, 0.06075, -0.2566528, 0.06075, 0.9465649, 0.06075, 0.2442748, 0.06075, -3.2366412
0.0079412, -0.0105745, 0.0675, 0.0755005, 0.0675, -0.9924316, 0.0675, -0.258606, 0.0675, 1.0839695, 0.0675, 0.2061069, 0.0675, -3.4274809
0.0087353, -0.0097353, 0.07425, 0.0784302, 0.07425, -0.9936523, 0.07425, -0.2562256, 0.07425, 0.8091603, 0.07425, 0.4885496, 0.07425, -3.4045801
0.0095294, -0.0073854, 0.081, 0.0787964, 0.081, -0.9901123, 0.081, -0.2559204, 0.081, 0.9541985, 0.081, 0.7938932, 0.081, -3.2671757
0.0103235, -0.0115816, 0.08775, 0.0793457, 0.08775, -0.9906616, 0.08775, -0.2543945, 0.08775, 0.7557252, 0.08775, 0.9007633, 0.08775, -3.1908398
0.0111176, -0.0112459, 0.0945, 0.0765991, 0.0945, -0.9927368, 0.0945, -0.2542725, 0.0945, 0.6335878, 0.0945, 0.9847328, 0.0945, -3.3816793
0.0119118, -0.0082246, 0.10125, 0.0744019, 0.10125, -0.9917603, 0.10125, -0.2542114, 0.10125, 0.4351145, 0.10125, 0.961832, 0.10125, -3.2442749
0.0127059, -0.0082246, 0.108, 0.0723877, 0.108, -0.991394, 0.108, -0.2545776, 0.108, 0.6183206, 0.108, 1.0076336, 0.108, -3.4045801
0.0135, -0.0129244, 0.11475, 0.0732422, 0.11475, -0.9906616, 0.11475, -0.2564087, 0.11475, 0.5343512, 0.11475, 1.0839695, 0.11475, -3.3206108
0.0142941, -0.0162814, 0.1215, 0.0734253, 0.1215, -0.9918213, 0.1215, -0.2578735, 0.1215, 0.4045801, 0.1215, 1.0687023, 0.1215, -3.351145
0.0150882, -0.0179599, 0.12825, 0.0736084, 0.12825, -0.9914551, 0.12825, -0.2578125, 0.12825, 0.2671756, 0.12825, 1.1908396, 0.12825, -3.3740458
0.0158824, -0.0196384, 0.135, 0.0733643, 0.135, -0.987854, 0.135, -0.258728, 0.135, 0.3816794, 0.135, 1.0229008, 0.135, -3.3969467
0.0166765, -0.0179599, 0.14175, 0.0779419, 0.14175, -0.9916992, 0.14175, -0.2567749, 0.14175, 0.3587786, 0.14175, 1.3435115, 0.14175, -3.3282442
0.0174706, -0.012253, 0.1485, 0.0772705, 0.1485, -0.9894409, 0.1485, -0.2606812, 0.1485, 0.4198473, 0.1485, 1.519084, 0.1485, -3.2366412
0.0182647, -0.0119173, 0.15525, 0.0784302, 0.15525, -0.9904175, 0.15525, -0.2580566, 0.15525, 0.2061069, 0.15525, 1.5343511, 0.15525, -3.389313
0.0190588, -0.0129244, 0.162, 0.0797729, 0.162, -0.9915161, 0.162, -0.2624512, 0.162, 0.2290076, 0.162, 1.6564885, 0.162, -3.1374047
0.0198529, -0.0130922, 0.16875, 0.0791626, 0.16875, -0.9899292, 0.16875, -0.2623291, 0.16875, 0.3358779, 0.16875, 1.6717557, 0.16875, -3.3435113
0.0206471, -0.0119173, 0.1755, 0.0800781, 0.1755, -0.989624, 0.1755, -0.2634888, 0.1755, 0.2900763, 0.1755, 1.7022901, 0.1755, -3.1603053
0.0214412, -0.0119173, 0.18225, 0.0786743, 0.18225, -0.9896851, 0.18225, -0.2615356, 0.18225, 0.3282443, 0.18225, 1.480916, 0.18225, -3.0610688
0.0222353, -0.0092317, 0.189, 0.0762329, 0.189, -0.9941406, 0.189, -0.2650146, 0.189, 0.3435115, 0.189, 1.4961832, 0.189, -3.1603053
0.0230294, -0.0077211, 0.19575, 0.0755005, 0.19575, -0.9951782, 0.19575, -0.2642822, 0.19575, 0.259542, 0.19575, 1.5877863, 0.19575, -3.1603053
0.0238235, -0.0078889, 0.2025, 0.0769653, 0.2025, -0.9959106, 0.2025, -0.2659302, 0.2025, 0.4732825, 0.2025, 1.389313, 0.2025, -3.2824428
0.0246176, -0.0112459, 0.20925, 0.072937, 0.20925, -0.9921875, 0.20925, -0.2636108, 0.20925, 0.5648855, 0.20925, 1.2900764, 0.20925, -3.1450381
0.0254118, -0.0149386, 0.216, 0.0742188, 0.216, -0.9926147, 0.216, -0.2617798, 0.216, 0.7099237, 0.216, 1.2442749, 0.216, -3.1374047
0.0262059, -0.0182956, 0.22275, 0.0743408, 0.22275, -0.9917603, 0.22275, -0.2624512, 0.22275, 0.740458, 0.22275, 1.2137405, 0.22275, -3.221374
0.027, -0.018967, 0.2295, 0.0758057, 0.2295, -0.9904785, 0.2295, -0.2625122, 0.2295, 0.7709923, 0.2295, 0.8244275, 0.2295, -3.2290077
0.0277941, -0.0199741, 0.23625, 0.0751343, 0.23625, -0.9915771, 0.23625, -0.2628784, 0.23625, 0.8473282, 0.23625, 0.778626, 0.23625, -3.2748091
0.0285882, -0.0204776, 0.243, 0.0740967, 0.243, -0.9940186, 0.243, -0.258606, 0.243, 0.9007633, 0.243, 0.610687, 0.243, -3.2290077
0.0293824, -0.0243381, 0.24975, 0.0797119, 0.24975, -0.9927979, 0.24975, -0.2608643, 0.24975, 1.1832061, 0.24975, 0.7022901, 0.24975, -3.3282442
0.0301765, -0.0260166, 0.2565, 0.0803223, 0.2565, -0.9924927, 0.2565, -0.2634277, 0.2565, 0.7480916, 0.2565, 0.6259542, 0.2565, -3.0610688
0.0309706, -0.0276951, 0.26325, 0.0827637, 0.26325, -0.9915771, 0.26325, -0.2623291, 0.26325, 0.7480916, 0.26325, 0.740458, 0.26325, -3.0076337
0.0317647, -0.0238346, 0.27, 0.083252, 0.27, -0.9873657, 0.27, -0.2619629, 0.27, 0.7862595, 0.27, 0.8167939, 0.27, -3.129771
0.0325588, -0.021149, 0.27675, 0.0820312, 0.27675, -0.9877319, 0.27675, -0.2606812, 0.27675, 0.6183206, 0.27675, 0.9312977, 0.27675, -2.9236641
0.0333529, -0.0270237, 0.2835, 0.0792236, 0.2835, -0.9905396, 0.2835, -0.2612305, 0.2835, 0.870229, 0.2835, 1.3053435, 0.2835, -3.0076337
0.0341471, -0.0250095, 0.29025, 0.0773315, 0.29025, -0.9866333, 0.29025, -0.2614136, 0.29025, 0.8549618, 0.29025, 1.4122137, 0.29025, -2.908397
0.0349412, -0.0240024, 0.297, 0.078186, 0.297, -0.9862671, 0.297, -0.2626343, 0.297, 0.8931298, 0.297, 1.4427481, 0.297, -2.908397
0.0357353, -0.0251774, 0.30375, 0.0748901, 0.30375, -0.9900513, 0.30375, -0.2646484, 0.30375, 0.9694657, 0.30375, 1.3282443, 0.30375, -2.8778627
0.0365294, -0.0223239, 0.3105, 0.0767822, 0.3105, -0.9901123, 0.3105, -0.265564, 0.3105, 0.8625954, 0.3105, 1.3664122, 0.3105, -2.9312978
0.0373235, -0.0196384, 0.31725, 0.0744019, 0.31725, -0.989502, 0.31725, -0.2662354, 0.31725, 0.8473282, 0.31725, 1.3816794, 0.31725, -2.8244274
0.0381176, -0.018967, 0.324, 0.0752563, 0.324, -0.9890137, 0.324, -0.262085, 0.324, 0.8167939, 0.324, 1.2977099, 0.324, -2.778626
0.0389118, -0.0182956, 0.33075, 0.0767822, 0.33075, -0.9918823, 0.33075, -0.2609253, 0.33075, 0.870229, 0.33075, 1.2977099, 0.33075, -2.9160306
0.0397059, -0.0149386, 0.3375, 0.0748291, 0.3375, -0.9946289, 0.3375, -0.2600098, 0.3375, 0.8625954, 0.3375, 1.3587786, 0.3375, -2.8931298
0.0405, -0.0146029, 0.34425, 0.0776367, 0.34425, -0.9938965, 0.34425, -0.2643433, 0.34425, 0.9312977, 0.34425, 1.3587786, 0.34425, -2.7480917
0.0412941, -0.01561, 0.351, 0.0789185, 0.351, -0.9940186, 0.351, -0.2625732, 0.351, 0.7938932, 0.351, 1.2824427, 0.351, -2.8320611
0.0420882, -0.0182956, 0.35775, 0.0801392, 0.35775, -0.9942017, 0.35775, -0.2637939, 0.35775, 0.8625954, 0.35775, 1.3587786, 0.35775, -2.8473282
0.0428824, -0.0216526, 0.3645, 0.0754395, 0.3645, -0.9950562, 0.3645, -0.2619629, 0.3645, 1.0305344, 0.3645, 1.2748091, 0.3645, -2.8091602
0.0436765, -0.0193027, 0.37125, 0.0731812, 0.37125, -0.9935303, 0.37125, -0.2615967, 0.37125, 1.1221374, 0.37125, 1.129771, 0.37125, -3.1068702
0.0444706, -0.0176242, 0.378, 0.0703125, 0.378, -0.9955444, 0.378, -0.2626343, 0.378, 1.259542, 0.378, 1, 0.378, -3.0687022
0.0452647, -0.0186313, 0.38475, 0.0721436, 0.38475, -0.9918823, 0.38475, -0.2623291, 0.38475, 1.351145, 0.38475, 0.8778626, 0.38475, -3.0687022
0.0460588, -0.0152743, 0.3915, 0.0700684, 0.3915, -0.9889526, 0.3915, -0.2593384, 0.3915, 1.4961832, 0.3915, 0.6259542, 0.3915, -3.2442749
0.0468529, -0.0159457, 0.39825, 0.0723267, 0.39825, -0.9906616, 0.39825, -0.2608032, 0.39825, 1.4045801, 0.39825, 0.6564885, 0.39825, -3.0610688
0.0476471, -0.0199741, 0.405, 0.0722046, 0.405, -0.9877319, 0.405, -0.2616577, 0.405, 1.389313, 0.405, 0.3664122, 0.405, -3.0076337
0.0484412, -0.0166171, 0.41175, 0.0737305, 0.41175, -0.991394, 0.41175, -0.2625122, 0.41175, 1.2977099, 0.41175, 0.4198473, 0.41175, -3.1145039
0.0492353, -0.01561, 0.4185, 0.0748901, 0.4185, -0.9875488, 0.4185, -0.2597046, 0.4185, 1.3129771, 0.4185, 0.4885496, 0.4185, -3.1603053
0.0500294, -0.0172885, 0.42525, 0.0750122, 0.42525, -0.9902344, 0.42525, -0.2545166, 0.42525, 1.3053435, 0.42525, 0.6717557, 0.42525, -3.2366412
0.0508235, -0.0169528, 0.432, 0.0758667, 0.432, -0.991333, 0.432, -0.2579346, 0.432, 1.1374046, 0.432, 0.6870229, 0.432, -3.1145039
0.0516176, -0.0135958, 0.43875, 0.0740356, 0.43875, -0.9903564, 0.43875, -0.2549438, 0.43875, 1.2824427, 0.43875, 0.7862595, 0.43875, -3.2061069
0.0524118, -0.0151064, 0.4455, 0.0762939, 0.4455, -0.9899902, 0.4455, -0.2584229, 0.4455, 1.3206106, 0.4455, 0.7022901, 0.4455, -3.2290077
0.0532059, -0.0151064, 0.45225, 0.0770264, 0.45225, -0.989563, 0.45225, -0.2606812, 0.45225, 1.1679389, 0.45225, 0.6259542, 0.45225, -3.2824428
0.054, -0.0171206, 0.459, 0.0769043, 0.459, -0.9912109, 0.459, -0.262207, 0.459, 0.9770992, 0.459, 0.648855, 0.459, -3.3664122
0.0547941, -0.01561, 0.46575, 0.0773315, 0.46575, -0.9910278, 0.46575, -0.2640991, 0.46575, 0.8931298, 0.46575, 0.7709923, 0.46575, -3.2137403
0.0555882, -0.0152743, 0.4725, 0.074646, 0.4725, -0.9935913, 0.4725, -0.2626343, 0.4725, 0.6030535, 0.4725, 0.6335878, 0.4725, -3.2290077
0.0563824, -0.0135958, 0.47925, 0.0759888, 0.47925, -0.9920654, 0.47925, -0.2649536, 0.47925, 0.519084, 0.47925, 0.4656489, 0.47925, -3.2671757
0.0571765, -0.0176242, 0.486, 0.0726318, 0.486, -0.9928589, 0.486, -0.2631836, 0.486, 0.648855, 0.486, 0.4961832, 0.486, -3.3435113
0.0579706, -0.0159457, 0.49275, 0.0743408, 0.49275, -0.9932251, 0.49275, -0.2623291, 0.49275, 0.610687, 0.49275, 0.2366412, 0.49275, -3.4198472
0.0587647, -0.0125887, 0.4995, 0.0783081, 0.4995, -0.992981, 0.4995, -0.2572632, 0.4995, 0.4580153, 0.4995, 0.259542, 0.4995, -3.480916
0.0595588, -0.0139315, 0.50625, 0.0771484, 0.50625, -0.9931641, 0.50625, -0.2570801, 0.50625, 0.6717557, 0.50625, 0.4351145, 0.50625, -3.5038168
0.0603529, -0.0132601, 0.513, 0.0758667, 0.513, -0.993103, 0.513, -0.255127, 0.513, 0.5954198, 0.513, 0.4885496, 0.513, -3.4274809
0.0611471, -0.0073854, 0.51975, 0.0769653, 0.51975, -0.9903564, 0.51975, -0.2583008, 0.51975, 0.778626, 0.51975, 0.3587786, 0.51975, -3.5648854
0.0619412, -0.008896, 0.5265, 0.076355, 0.5265, -0.9923706, 0.5265, -0.2553711, 0.5265, 0.8625954, 0.5265, 0.6335878, 0.5265, -3.5419848
0.0627353, -0.0142672, 0.53325, 0.0783691, 0.53325, -0.9910889, 0.53325, -0.2565308, 0.53325, 0.870229, 0.53325, 0.7251908, 0.53325, -3.3740458
0.0635294, -0.01561, 0.54, 0.079895, 0.54, -0.9897461, 0.54, -0.2618408, 0.54, 0.7862595, 0.54, 0.8625954, 0.54, -3.3587787
0.0643235, -0.0152743, 0.54675, 0.0791626, 0.54675, -0.9923096, 0.54675, -0.2628784, 0.54675, 0.6183206, 0.54675, 1.2137405, 0.54675, -3.3129771
0.0651176, -0.0179599, 0.5535, 0.0758057, 0.5535, -0.9921875, 0.5535, -0.2628174, 0.5535, 0.5954198, 0.5535, 1.1832061, 0.5535, -3.351145
0.0659118, -0.0203098, 0.56025, 0.0747681, 0.56025, -0.9885254, 0.56025, -0.2642822, 0.56025, 0.4961832, 0.56025, 1.3129771, 0.56025, -3.1908398
0.0667059, -0.0182956, 0.567, 0.0716553, 0.567, -0.9925537, 0.567, -0.2619019, 0.567, 0.5496183, 0.567, 0.8091603, 0.567, -3.221374
0.0675, -0.0196384, 0.57375, 0.0690918, 0.57375, -0.9909058, 0.57375, -0.2633667, 0.57375, 0.870229, 0.57375, 0.7175573, 0.57375, -3.221374
0.0682941, -0.0256809, 0.5805, 0.0714111, 0.5805, -0.9918823, 0.5805, -0.2619629, 0.5805, 0.9923664, 0.5805, 0.5267175, 0.5805, -3.3816793
0.0690882, -0.0203098, 0.58725, 0.0758667, 0.58725, -0.9905396, 0.58725, -0.2628784, 0.58725, 1.0687023, 0.58725, 0.5954198, 0.58725, -3.389313
0.0698824, -0.0162814, 0.594, 0.0764771, 0.594, -0.9905396, 0.594, -0.2632446, 0.594, 1.0992366, 0.594, 0.648855, 0.594, -3.5267177
0.0706765, -0.0157778, 0.60075, 0.0769043, 0.60075, -0.9901733, 0.60075, -0.2639771, 0.60075, 1.091603, 0.60075, 0.4885496, 0.60075, -3.5496182
0.0714706, -0.0157778, 0.6075, 0.0760498, 0.6075, -0.9903564, 0.6075, -0.2637329, 0.6075, 1.1755725, 0.6075, 0.4274809, 0.6075, -3.4656489
0.0722647, -0.0166171, 0.61425, 0.0773926, 0.61425, -0.9886475, 0.61425, -0.2595215, 0.61425, 1.0534351, 0.61425, 0.5343512, 0.61425, -3.519084
0.0730588, -0.0169528, 0.621, 0.0775757, 0.621, -0.9902954, 0.621, -0.2597046, 0.621, 1.0687023, 0.621, 0.7328244, 0.621, -3.5343511
0.0738529, -0.0137636, 0.62775, 0.0768433, 0.62775, -0.991272, 0.62775, -0.2607422, 0.62775, 0.9847328, 0.62775, 0.3282443, 0.62775, -3.4961832
0.0746471, -0.0149386, 0.6345, 0.0764771, 0.6345, -0.991272, 0.6345, -0.2609863, 0.6345, 0.8854962, 0.6345, 0.3129771, 0.6345, -3.4503818
0.0754412, -0.0196384, 0.64125, 0.0769043, 0.64125, -0.9906006, 0.64125, -0.2677002, 0.64125, 0.9007633, 0.64125, 0.5419847, 0.64125, -3.4732823
0.0762353, -0.0182956, 0.648, 0.0759888, 0.648, -0.9908447, 0.648, -0.2628784, 0.648, 0.8015267, 0.648, 0.5801527, 0.648, -3.221374
0.0770294, -0.018967, 0.65475, 0.0740356, 0.65475, -0.9914551, 0.65475, -0.2609253, 0.65475, 0.9007633, 0.65475, 0.5725191, 0.65475, -3.4656489
0.0778235, -0.0236667, 0.6615, 0.0751953, 0.6615, -0.9892578, 0.6615, -0.2642822, 0.6615, 0.9923664, 0.6615, 0.5419847, 0.6615, -3.6412213
0.0786176, -0.0276951, 0.66825, 0.0736084, 0.66825, -0.9907837, 0.66825, -0.2641602, 0.66825, 1.0534351, 0.66825, 0.4045801, 0.66825, -3.5419848
0.0794118, -0.026688, 0.675, 0.074707, 0.675, -0.9891968, 0.675, -0.2598267, 0.675, 0.8854962, 0.675, 0.3587786, 0.675, -3.6335878
0.0802059, -0.0260166, 0.68175, 0.0737915, 0.68175, -0.9902344, 0.68175, -0.2626343, 0.68175, 0.8473282, 0.68175, 0.2977099, 0.68175, -3.6259542
0.081, -0.0216526, 0.6885, 0.0778809, 0.6885, -0.9888306, 0.6885, -0.2557373, 0.6885, 0.8549618, 0.6885, 0.1450382, 0.6885, -3.5648854
0.0817941, -0.018967, 0.69525, 0.0806885, 0.69525, -0.9902344, 0.69525, -0.2592773, 0.69525, 1.0610687, 0.69525, 0.3206107, 0.69525, -3.740458
0.0825882, -0.0139315, 0.702, 0.0792847, 0.702, -0.989624, 0.702, -0.2598877, 0.702, 1.1068702, 0.702, 0.3664122, 0.702, -3.610687
0.0833824, -0.0129244, 0.70875, 0.0770264, 0.70875, -0.991333, 0.70875, -0.2629395, 0.70875, 1.1450381, 0.70875, 0.351145, 0.70875, -3.6793892
0.0841765, -0.021149, 0.7155, 0.0814819, 0.7155, -0.9897461, 0.7155, -0.2627563, 0.7155, 1.4274809, 0.7155, 0.3969466, 0.7155, -3.5877862
0.0849706, -0.0166171, 0.72225, 0.0784302, 0.72225, -0.9885864, 0.72225, -0.2637329, 0.72225, 1.4427481, 0.72225, 0.4274809, 0.72225, -3.4503818
0.0857647, -0.0082246, 0.729, 0.0780029, 0.729, -0.9907227, 0.729, -0.2622681, 0.729, 1.4045801, 0.729, 0.3053435, 0.729, -3.4122138
0.0865588, -0.005539, 0.73575, 0.0796509, 0.73575, -0.9912109, 0.73575, -0.263855, 0.73575, 1.4656489, 0.73575, 0.4351145, 0.73575, -3.4961832
0.0873529, -0.0045319, 0.7425, 0.0776367, 0.7425, -0.9934692, 0.7425, -0.2630005, 0.7425, 1.6030535, 0.7425, 0.2519084, 0.7425, -3.2824428
0.0881471, -0.0052033, 0.74925, 0.0762939, 0.74925, -0.9916992, 0.74925, -0.2636108, 0.74925, 1.4961832, 0.74925, 0.351145, 0.74925, -3.4503818
0.0889412, -0.0036927, 0.756, 0.0747681, 0.756, -0.991272, 0.756, -0.2633057, 0.756, 1.8396946, 0.756, 0.3053435, 0.756, -3.2977099
0.0897353, -0.0058747, 0.76275, 0.0807495, 0.76275, -0.993103, 0.76275, -0.2609863, 0.76275, 1.7251909, 0.76275, 0.3435115, 0.76275, -3.2824428
0.0905294, -0.0062104, 0.7695, 0.0782471, 0.7695, -0.9904175, 0.7695, -0.2607422, 0.7695, 1.7862595, 0.7695, 0.4656489, 0.7695, -3.3435113
0.0913235, -0.0087282, 0.77625, 0.0804443, 0.77625, -0.9888916, 0.77625, -0.2603149, 0.77625, 1.7709924, 0.77625, 0.3435115, 0.77625, -3.129771
0.0921176, -0.0102388, 0.783, 0.0802612, 0.783, -0.9923096, 0.783, -0.263916, 0.783, 1.5343511, 0.783, 0.2824427, 0.783, -3.1374047
0.0929118, -0.012253, 0.78975, 0.0796509, 0.78975, -0.9899292, 0.78975, -0.2611084, 0.78975, 1.351145, 0.78975, 0.4427481, 0.78975, -3.3587787
0.0937059, -0.0119173, 0.7965, 0.0811768, 0.7965, -0.9916382, 0.7965, -0.260437, 0.7965, 1.3129771, 0.7965, 0.4732825, 0.7965, -3.1603053
0.0945, -0.0125887, 0.80325, 0.0805054, 0.80325, -0.9910278, 0.80325, -0.2646484, 0.80325, 1.1603054, 0.80325, 0.4351145, 0.80325, -3.2519083
0.0952941, -0.0132601, 0.81, 0.0788574, 0.81, -0.9901123, 0.81, -0.2617188, 0.81, 1.1832061, 0.81, 0.4961832, 0.81, -3.1908398
0.0960882, -0.0117494, 0.81675, 0.0786133, 0.81675, -0.991333, 0.81675, -0.2543335, 0.81675, 0.9541985, 0.81675, 0.6030535, 0.81675, -2.9312978
0.0968824, -0.008896, 0.8235, 0.0754395, 0.8235, -0.989563, 0.8235, -0.2612305, 0.8235, 1.038168, 0.8235, 0.6870229, 0.8235, -3.0839694
0.0976765, -0.0078889, 0.83025, 0.0770264, 0.83025, -0.9893188, 0.83025, -0.2576904, 0.83025, 1.0992366, 0.83025, 0.5496183, 0.83025, -3.0229008
0.0984706, -0.0149386, 0.837, 0.0754395, 0.837, -0.9924927, 0.837, -0.2557373, 0.837, 1.221374, 0.837, 0.778626, 0.837, -3.259542
0.0992647, -0.0167849, 0.84375, 0.0735474, 0.84375, -0.9921265, 0.84375, -0.2557373, 0.84375, 1.1374046, 0.84375, 0.5114504, 0.84375, -3.0839694
0.1000588, -0.0109102, 0.8505, 0.074585, 0.8505, -0.9912109, 0.8505, -0.2545166, 0.8505, 1.3587786, 0.8505, 0.2748092, 0.8505, -3.2366412
0.1008529, -0.0072175, 0.85725, 0.0778198, 0.85725, -0.9905396, 0.85725, -0.2566528, 0.85725, 0.9923664, 0.85725, 0.2442748, 0.85725, -3.1068702
0.1016471, -0.0068818, 0.864, 0.0788574, 0.864, -0.9879761, 0.864, -0.2589722, 0.864, 1.0534351, 0.864, 0.0305344, 0.864, -3.1832061
0.1024412, -0.0097353, 0.87075, 0.0786743, 0.87075, -0.9927979, 0.87075, -0.2608643, 0.87075, 1.221374, 0.87075, 0.1908397, 0.87075, -3.2442749
0.1032353, -0.0137636, 0.8775, 0.0789795, 0.8775, -0.9907837, 0.8775, -0.2592163, 0.8775, 1.1603054, 0.8775, 0.2824427, 0.8775, -3.2824428
0.1040294, -0.0115816, 0.88425, 0.0770264, 0.88425, -0.9915161, 0.88425, -0.256897, 0.88425, 1.1526718, 0.88425, 0.129771, 0.88425, -3.1908398
0.1048235, -0.0112459, 0.891, 0.0776367, 0.891, -0.9933472, 0.891, -0.2574463, 0.891, 1.2442749, 0.891, 0.2671756, 0.891, -3.1755726
0.1056176, -0.0085603, 0.89775, 0.0797119, 0.89775, -0.9919434, 0.89775, -0.262085, 0.89775, 1.2061069, 0.89775, 0.2900763, 0.89775, -3.129771
0.1064118, -0.012253, 0.9045, 0.0762329, 0.9045, -0.9894409, 0.9045, -0.258606, 0.9045, 1.129771, 0.9045, 0.3053435, 0.9045, -3.1908398
0.1072059, -0.0149386, 0.91125, 0.0780029, 0.91125, -0.9912109, 0.91125, -0.260437, 0.91125, 1.2366412, 0.91125, 0.259542, 0.91125, -3.1526718
0.108, -0.0142672, 0.918, 0.0770874, 0.918, -0.9900513, 0.918, -0.2572632, 0.918, 1.0839695, 0.918, 0.3969466, 0.918, -3.2900763
0.1087941, -0.0142672, 0.92475, 0.0787354, 0.92475, -0.9922485, 0.92475, -0.2584839, 0.92475, 1.2442749, 0.92475, 0.4656489, 0.92475, -2.9541984
0.1095882, -0.0162814, 0.9315, 0.0800171, 0.9315, -0.9916382, 0.9315, -0.2618408, 0.9315, 1.2137405, 0.9315, 0.4885496, 0.9315, -3.0534351
0.1103824, -0.01561, 0.93825, 0.0806274, 0.93825, -0.9883423, 0.93825, -0.2594604, 0.93825, 1.3740458, 0.93825, 0.5114504, 0.93825, -3.1221373
0.1111765, -0.0209812, 0.945, 0.0789185, 0.945, -0.9900513, 0.945, -0.2577515, 0.945, 1.3969465, 0.945, 0.6641222, 0.945, -2.8625953
0.1119706, -0.0357519, 0.95175, 0.0772095, 0.95175, -0.9898682, 0.95175, -0.2589111, 0.95175, 1.3206106, 0.95175, 0.5954198, 0.95175, -2.8091602
0.1127647, -0.0381018, 0.9585, 0.0773926, 0.9585, -0.9909668, 0.9585, -0.256897, 0.9585, 1.3129771, 0.9585, 0.6259542, 0.9585, -2.8931298
0.1135588, -0.0293736, 0.96525, 0.0775757, 0.96525, -0.9899902, 0.96525, -0.2592773, 0.96525, 1.1984733, 0.96525, 0.8091603, 0.96525, -2.8854961
0.1143529, -0.0236667, 0.972, 0.0769043, 0.972, -0.9915771, 0.972, -0.256897, 0.972, 1.3053435, 0.972, 0.648855, 0.972, -2.9541984
0.1151471, -0.0216526, 0.97875, 0.0756836, 0.97875, -0.9909058, 0.97875, -0.256958, 0.97875, 1.3053435, 0.97875, 0.7175573, 0.97875, -2.961832
0.1159412, -0.0243381, 0.9855, 0.0760498, 0.9855, -0.9867554, 0.9855, -0.2559814, 0.9855, 1.3664122, 0.9855, 0.4656489, 0.9855, -2.8625953
0.1167353, -0.0238346, 0.99225, 0.0765991, 0.99225, -0.9894409, 0.99225, -0.2571411, 0.99225, 1.4045801, 0.99225, 0.6717557, 0.99225, -2.7938931
0.1175294, -0.0238346, 0.999, 0.0772705, 0.999, -0.9920044, 0.999, -0.2615356, 0.999, 0.8854962, 0.999, 0.7480916, 0.999, -2.8396947
0.1183235, -0.0223239, 1.00575, 0.0750732, 1.00575, -0.9915161, 1.00575, -0.2590942, 1.00575, 0.7862595, 1.00575, 0.7862595, 1.00575, -2.9541984
0.1191176, -0.0142672, 1.0125, 0.074646, 1.0125, -0.9907837, 1.0125, -0.2577515, 1.0125, 0.7480916, 1.0125, 0.7480916, 1.0125, -2.740458
0.1199118, -0.0115816, 1.01925, 0.0767212, 1.01925, -0.9910278, 1.01925, -0.2553711, 1.01925, 0.7709923, 1.01925, 0.8625954, 1.01925, -2.8167939
0.1207059, -0.0109102, 1.026, 0.0770874, 1.026, -0.9902344, 1.026, -0.2544556, 1.026, 0.6870229, 1.026, 0.8473282, 1.026, -2.7862597
0.1215, -0.0078889, 1.03275, 0.0747681, 1.03275, -0.989502, 1.03275, -0.2536621, 1.03275, 0.7251908, 1.03275, 0.7862595, 1.03275, -2.908397
0.1222941, -0.0095674, 1.0395, 0.0741577, 1.0395, -0.9898682, 1.0395, -0.2592773, 1.0395, 0.7862595, 1.0395, 0.5114504, 1.0395, -2.9312978
0.1230882, -0.0104067, 1.04625, 0.076355, 1.04625, -0.9909668, 1.04625, -0.2554932, 1.04625, 0.740458, 1.04625, 0.5496183, 1.04625, -2.9923663
0.1238824, -0.0099031, 1.053, 0.0760498, 1.053, -0.991333, 1.053, -0.2594604, 1.053, 0.870229, 1.053, 0.7328244, 1.053, -3.1679389
0.1246765, -0.0095674, 1.05975, 0.0786133, 1.05975, -0.994751, 1.05975, -0.2640381, 1.05975, 0.9923664, 1.05975, 0.8473282, 1.05975, -3.0229008
0.1254706, -0.0125887, 1.0665, 0.0813599, 1.0665, -0.9954224, 1.0665, -0.2602539, 1.0665, 0.7557252, 1.0665, 0.8625954, 1.0665, -3.1221373
0.1262647, -0.012253, 1.07325, 0.0803833, 1.07325, -0.9924927, 1.07325, -0.2612915, 1.07325, 0.8091603, 1.07325, 1.0610687, 1.07325, -2.9923663
0.1270588, -0.0095674, 1.08, 0.0796509, 1.08, -0.9904175, 1.08, -0.2618408, 1.08, 0.6183206, 1.08, 0.9007633, 1.08, -2.870229
0.1278529, -0.0102388, 1.08675, 0.0773315, 1.08675, -0.9904175, 1.08675, -0.2625122, 1.08675, 0.480916, 1.08675, 0.6870229, 1.08675, -2.9694657
0.1286471, -0.0142672, 1.0935, 0.0784302, 1.0935, -0.9894409, 1.0935, -0.2587891, 1.0935, 0.8091603, 1.0935, 0.7557252, 1.0935, -2.9694657
0.1294412, -0.0139315, 1.10025, 0.0797119, 1.10025, -0.9916992, 1.10025, -0.2592773, 1.10025, 0.8015267, 1.10025, 0.9312977, 1.10025, -2.8396947
0.1302353, -0.0139315, 1.107, 0.079895, 1.107, -0.9863892, 1.107, -0.2612305, 1.107, 0.870229, 1.107, 1.0610687, 1.107, -2.908397
0.1310294, -0.0112459, 1.11375, 0.0755005, 1.11375, -0.9893188, 1.11375, -0.2615967, 1.11375, 0.8931298, 1.11375, 1.1145039, 1.11375, -2.8473282
0.1318235, -0.0130922, 1.1205, 0.0735474, 1.1205, -0.9910278, 1.1205, -0.2608032, 1.1205, 0.8091603, 1.1205, 1.0992366, 1.1205, -2.7633588
0.1326176, -0.0166171, 1.12725, 0.0777588, 1.12725, -0.991394, 1.12725, -0.2587891, 1.12725, 0.8015267, 1.12725, 1.1679389, 1.12725, -2.6870229
0.1334118, -0.0162814, 1.134, 0.0706787, 1.134, -0.9902954, 1.134, -0.2600708, 1.134, 1.0152671, 1.134, 1.0610687, 1.134, -2.740458
0.1342059, -0.0162814, 1.14075, 0.0756836, 1.14075, -0.9899902, 1.14075, -0.2597656, 1.14075, 0.9465649, 1.14075, 1.2290076, 1.14075, -2.8625953
0.135, -0.0176242, 1.1475, 0.0742798, 1.1475, -0.9924927, 1.1475, -0.2624512, 1.1475, 1.1374046, 1.1475, 1.2137405, 1.1475, -2.9923663
0.1357941, -0.0149386, 1.15425, 0.0715332, 1.15425, -0.9932861, 1.15425, -0.2625732, 1.15425, 1.2290076, 1.15425, 1.1679389, 1.15425, -2.9541984
0.1365882, -0.0125887, 1.161, 0.0718994, 1.161, -0.9962158, 1.161, -0.265625, 1.161, 1.2671756, 1.161, 0.9923664, 1.161, -2.9160306
0.1373824, -0.0124208, 1.16775, 0.0737305, 1.16775, -0.9934692, 1.16775, -0.2659912, 1.16775, 1.129771, 1.16775, 1.1755725, 1.16775, -2.7862597
0.1381765, -0.0164492, 1.1745, 0.0756226, 1.1745, -0.9942017, 1.1745, -0.2599487, 1.1745, 1.1755725, 1.1745, 0.7709923, 1.1745, -2.9007633
0.1389706, -0.0182956, 1.18125, 0.0737915, 1.18125, -0.9915161, 1.18125, -0.2601318, 1.18125, 0.9389313, 1.18125, 0.9389313, 1.18125, -3.0610688
0.1397647, -0.01561, 1.188, 0.0725708, 1.188, -0.9938965, 1.188, -0.2625122, 1.188, 0.9770992, 1.188, 0.8320611, 1.188, -3.0458016
0.1405588, -0.0149386, 1.19475, 0.0733643, 1.19475, -0.9950562, 1.19475, -0.2599487, 1.19475, 0.9923664, 1.19475, 0.8625954, 1.19475, -2.870229
0.1413529, -0.0182956, 1.2015, 0.0727539, 1.2015, -0.9918213, 1.2015, -0.2599487, 1.2015, 1.0610687, 1.2015, 0.9389313, 1.2015, -2.8244274
0.1421471, -0.0199741, 1.20825, 0.074585, 1.20825, -0.9910889, 1.20825, -0.2630005, 1.20825, 1.0534351, 1.20825, 0.8473282, 1.20825, -3.1221373
0.1429412, -0.0206455, 1.215, 0.0748291, 1.215, -0.9894409, 1.215, -0.2584229, 1.215, 0.9847328, 1.215, 1.1679389, 1.215, -3.0305343
0.1437353, -0.0196384, 1.22175, 0.0745239, 1.22175, -0.9894409, 1.22175, -0.2605591, 1.22175, 0.9160305, 1.22175, 1.0305344, 1.22175, -3.1221373
0.1445294, -0.0186313, 1.2285, 0.0744629, 1.2285, -0.9909668, 1.2285, -0.2606812, 1.2285, 1, 1.2285, 1.0229008, 1.2285, -3
0.1453235, -0.0181277, 1.23525, 0.0714111, 1.23525, -0.9907227, 1.23525, -0.2594604, 1.23525, 1.0763359, 1.23525, 1.1068702, 1.23525, -2.8778627
0.1461176, -0.0203098, 1.242, 0.0730591, 1.242, -0.9922485, 1.242, -0.2559204, 1.242, 0.8931298, 1.242, 1.0534351, 1.242, -2.9389312
0.1469118, -0.0193027, 1.24875, 0.0719604, 1.24875, -0.9909668, 1.24875, -0.2557373, 1.24875, 1.038168, 1.24875, 0.9770992, 1.24875, -3.2137403
0.1477059, -0.0216526, 1.2555, 0.072998, 1.2555, -0.9901733, 1.2555, -0.2583008, 1.2555, 1.0076336, 1.2555, 0.908397, 1.2555, -3.0305343
0.1485, -0.0236667, 1.26225, 0.0756836, 1.26225, -0.9910278, 1.26225, -0.2623291, 1.26225, 0.9923664, 1.26225, 0.9541985, 1.26225, -3.0687022
0.1492941, -0.026688, 1.269, 0.0737305, 1.269, -0.9923706, 1.269, -0.2584839, 1.269, 0.9312977, 1.269, 0.7862595, 1.269, -3.1068702
0.1500882, -0.0203098, 1.27575, 0.0740967, 1.27575, -0.9905396, 1.27575, -0.2576904, 1.27575, 0.870229, 1.27575, 0.7251908, 1.27575, -2.870229
0.1508824, -0.0179599, 1.2825, 0.0725708, 1.2825, -0.9920044, 1.2825, -0.2615356, 1.2825, 0.8320611, 1.2825, 0.7633588, 1.2825, -2.9847329
0.1516765, -0.0204776, 1.28925, 0.0722656, 1.28925, -0.9902344, 1.28925, -0.2597046, 1.28925, 0.7938932, 1.28925, 0.9465649, 1.28925, -3.1145039
0.1524706, -0.0162814, 1.296, 0.0734253, 1.296, -0.9920044, 1.296, -0.2601929, 1.296, 0.740458, 1.296, 0.9923664, 1.296, -3.1755726
0.1532647, -0.0146029, 1.30275, 0.0737915, 1.30275, -0.9926758, 1.30275, -0.2625122, 1.30275, 0.9541985, 1.30275, 0.8015267, 1.30275, -3.2137403
0.1540588, -0.0105745, 1.3095, 0.0738525, 1.3095, -0.9946899, 1.3095, -0.260498, 1.3095, 1.0687023, 1.3095, 0.7251908, 1.3095, -3.3435113
0.1548529, -0.0159457, 1.31625, 0.071228, 1.31625, -0.9920044, 1.31625, -0.2602539, 1.31625, 0.9465649, 1.31625, 0.9389313, 1.31625, -3.2824428
0.1556471, -0.01561, 1.323, 0.0704956, 1.323, -0.9923096, 1.323, -0.260376, 1.323, 1.1526718, 1.323, 0.7328244, 1.323, -3.389313
0.1564412, -0.0099031, 1.32975, 0.0719604, 1.32975, -0.9916992, 1.32975, -0.2617798, 1.32975, 1.0610687, 1.32975, 0.6717557, 1.32975, -3.2824428
0.1572353, -0.0095674, 1.3365, 0.0733032, 1.3365, -0.9922485, 1.3365, -0.258728, 1.3365, 0.9236641, 1.3365, 0.5343512, 1.3365, -3.351145
0.1580294, -0.0077211, 1.34325, 0.0731812, 1.34325, -0.9949951, 1.34325, -0.2600098, 1.34325, 0.7862595, 1.34325, 0.7022901, 1.34325, -3.4732823
0.1588235, -0.0035248, 1.35, 0.0737915, 1.35, -0.9891357, 1.35, -0.2600708, 1.35, 0.7709923, 1.35, 0.648855, 1.35, -3.2977099
0.1596176, -0.0035248, 1.35675, 0.0793457, 1.35675, -0.9898682, 1.35675, -0.2603149, 1.35675, 0.8549618, 1.35675, 0.6259542, 1.35675, -3.4351146
0.1604118, -0.0182956, 1.3635, 0.0752563, 1.3635, -0.9899292, 1.3635, -0.2590942, 1.3635, 0.870229, 1.3635, 0.3740458, 1.3635, -3.480916
0.1612059, -0.0238346, 1.37025, 0.0751953, 1.37025, -0.9886475, 1.37025, -0.2575073, 1.37025, 0.7328244, 1.37025, 0.4580153, 1.37025, -3.4045801
0.162, -0.0194705, 1.377, 0.076355, 1.377, -0.9915161, 1.377, -0.2583008, 1.377, 0.7938932, 1.377, 0.6793893, 1.377, -3.2290077
0.1627941, -0.018967, 1.38375, 0.0751343, 1.38375, -0.9923706, 1.38375, -0.2589111, 1.38375, 1, 1.38375, 0.6793893, 1.38375, -3.2748091
0.1635882, -0.0129244, 1.3905, 0.0725098, 1.3905, -0.9956055, 1.3905, -0.260376, 1.3905, 0.961832, 1.3905, 0.6946565, 1.3905, -3.1145039
0.1643824, -0.0159457, 1.39725, 0.0709229, 1.39725, -0.9926758, 1.39725, -0.2613525, 1.39725, 0.9923664, 1.39725, 0.6870229, 1.39725, -3.221374
0.1651765, -0.0182956, 1.404, 0.0735474, 1.404, -0.9902344, 1.404, -0.2637939, 1.404, 0.9541985, 1.404, 0.5648855, 1.404, -3.3435113
0.1659706, -0.0172885, 1.41075, 0.0742798, 1.41075, -0.9919434, 1.41075, -0.2596436, 1.41075, 1.2442749, 1.41075, 0.2671756, 1.41075, -3.3053436
0.1667647, -0.0162814, 1.4175, 0.0758057, 1.4175, -0.991272, 1.4175, -0.2603149, 1.4175, 0.8778626, 1.4175, 0.2290076, 1.4175, -3.3664122
0.1675588, -0.0132601, 1.42425, 0.0769653, 1.42425, -0.9918213, 1.42425, -0.2615967, 1.42425, 0.8931298, 1.42425, 0.2137405, 1.42425, -3.3206108
0.1683529, -0.0072175, 1.431, 0.0727539, 1.431, -0.9925537, 1.431, -0.2584229, 1.431, 0.9541985, 1.431, 0.3816794, 1.431, -3.4274809
0.1691471, -0.0075532, 1.43775, 0.0775757, 1.43775, -0.9917603, 1.43775, -0.2594604, 1.43775, 1.038168, 1.43775, 0.4580153, 1.43775, -3.2290077
0.1699412, -0.0149386, 1.4445, 0.072937, 1.4445, -0.9923706, 1.4445, -0.2619019, 1.4445, 0.8931298, 1.4445, 0.5572519, 1.4445, -3.4885497
0.1707353, -0.0115816, 1.45125, 0.0765991, 1.45125, -0.9903564, 1.45125, -0.2576294, 1.45125, 1.0610687, 1.45125, 0.5801527, 1.45125, -3.3816793
0.1715294, -0.0095674, 1.458, 0.0738525, 1.458, -0.9919434, 1.458, -0.2567139, 1.458, 1.0687023, 1.458, 0.6183206, 1.458, -3.5648854
0.1723235, -0.0109102, 1.46475, 0.0748291, 1.46475, -0.9926758, 1.46475, -0.2574463, 1.46475, 1.1374046, 1.46475, 0.3587786, 1.46475, -3.4274809
0.1731176, -0.0099031, 1.4715, 0.0758667, 1.4715, -0.9904785, 1.4715, -0.2601929, 1.4715, 1.0687023, 1.4715, 0.6717557, 1.4715, -3.4274809
0.1739118, -0.0102388, 1.47825, 0.0756836, 1.47825, -0.991394, 1.47825, -0.2583008, 1.47825, 1.2671756, 1.47825, 0.6946565, 1.47825, -3.2748091
0.1747059, -0.0135958, 1.485, 0.0732422, 1.485, -0.9909668, 1.485, -0.2583618, 1.485, 1.1755725, 1.485, 0.7175573, 1.485, -3.3740458
0.1755, -0.0186313, 1.49175, 0.0748291, 1.49175, -0.9919434, 1.49175, -0.2567139, 1.49175, 0.9312977, 1.49175, 0.4198473, 1.49175, -3.4580152
0.1762941, -0.0182956, 1.4985, 0.0734253, 1.4985, -0.9916992, 1.4985, -0.2553711, 1.4985, 0.8320611, 1.4985, 0.648855, 1.4985, -3.5343511
0.1770882, -0.0171206, 1.50525, 0.0767822, 1.50525, -0.9923706, 1.50525, -0.2575073, 1.50525, 1.1145039, 1.50525, 0.778626, 1.50525, -3.3587787
0.1778824, -0.0176242, 1.512, 0.072998, 1.512, -0.9920654, 1.512, -0.256897, 1.512, 0.9541985, 1.512, 0.8473282, 1.512, -3.480916
0.1786765, -0.0203098, 1.51875, 0.0748901, 1.51875, -0.9911499, 1.51875, -0.2587891, 1.51875, 0.9312977, 1.51875, 0.8244275, 1.51875, -3.5267177
0.1794706, -0.0181277, 1.5255, 0.0770264, 1.5255, -0.9912109, 1.5255, -0.2576904, 1.5255, 0.8931298, 1.5255, 0.7938932, 1.5255, -3.4885497
0.1802647, -0.0209812, 1.53225, 0.0753784, 1.53225, -0.989624, 1.53225, -0.2581787, 1.53225, 0.740458, 1.53225, 0.740458, 1.53225, -3.3740458
0.1810588, -0.0256809, 1.539, 0.074707, 1.539, -0.9889526, 1.539, -0.2595215, 1.539, 0.9007633, 1.539, 0.5954198, 1.539, -3.5954199
0.1818529, -0.0271916, 1.54575, 0.0675049, 1.54575, -0.993103, 1.54575, -0.2583618, 1.54575, 0.9770992, 1.54575, 0.6030535, 1.54575, -3.5572519
0.1826471, -0.0216526, 1.5525, 0.0708618, 1.5525, -0.9901733, 1.5525, -0.2583618, 1.5525, 0.9389313, 1.5525, 0.7099237, 1.5525, -3.519084
0.1834412, -0.0179599, 1.55925, 0.0743408, 1.55925, -0.9915771, 1.55925, -0.2609863, 1.55925, 1.0458015, 1.55925, 0.2748092, 1.55925, -3.5725191
0.1842353, -0.018967, 1.566, 0.0766602, 1.566, -0.9882812, 1.566, -0.2608643, 1.566, 1.2519084, 1.566, 0.389313, 1.566, -3.4274809
0.1850294, -0.0162814, 1.57275, 0.0761108, 1.57275, -0.9885254, 1.57275, -0.2593384, 1.57275, 1.1221374, 1.57275, 0.5038168, 1.57275, -3.6412213
0.1858235, -0.01561, 1.5795, 0.0764771, 1.5795, -0.9891968, 1.5795, -0.260376, 1.5795, 1.1526718, 1.5795, 0.4427481, 1.5795, -3.5954199
0.1866176, -0.0176242, 1.58625, 0.0776367, 1.58625, -0.9934692, 1.58625, -0.2589111, 1.58625, 1.0839695, 1.58625, 0.4122137, 1.58625, -3.5954199
0.1874118, -0.0176242, 1.593, 0.0778809, 1.593, -0.9900513, 1.593, -0.2594604, 1.593, 0.9923664, 1.593, 0.6030535, 1.593, -3.519084
0.1882059, -0.0162814, 1.59975, 0.0769043, 1.59975, -0.9921265, 1.59975, -0.2619019, 1.59975, 1.0763359, 1.59975, 0.5877863, 1.59975, -3.5114503
0.189, -0.0169528, 1.6065, 0.0769653, 1.6065, -0.9918213, 1.6065, -0.2609863, 1.6065, 1.129771, 1.6065, 0.6183206, 1.6065, -3.3740458
0.1897941, -0.0159457, 1.61325, 0.0765991, 1.61325, -0.9923706, 1.61325, -0.2617188, 1.61325, 0.961832, 1.61325, 0.7328244, 1.61325, -3.5114503
0.1905882, -0.0129244, 1.62, 0.074707, 1.62, -0.9923706, 1.62, -0.2576904, 1.62, 1.0534351, 1.62, 0.6335878, 1.62, -3.389313
0.1913824, -0.012253, 1.62675, 0.0726929, 1.62675, -0.9907837, 1.62675, -0.2598877, 1.62675, 1.0839695, 1.62675, 0.740458, 1.62675, -3.3129771
0.1921765, -0.0149386, 1.6335, 0.0742798, 1.6335, -0.9909058, 1.6335, -0.2585449, 1.6335, 0.9007633, 1.6335, 0.778626, 1.6335, -3.3358779
0.1929706, -0.0142672, 1.64025, 0.0767212, 1.64025, -0.9931641, 1.64025, -0.2558594, 1.64025, 1.1145039, 1.64025, 0.7328244, 1.64025, -3.1832061
0.1937647, -0.0135958, 1.647, 0.0769653, 1.647, -0.9912109, 1.647, -0.2553101, 1.647, 1.1603054, 1.647, 0.9923664, 1.647, -3.3435113
0.1945588, -0.0139315, 1.65375, 0.0769043, 1.65375, -0.9908447, 1.65375, -0.2565308, 1.65375, 0.9847328, 1.65375, 0.8015267, 1.65375, -3.4045801
0.1953529, -0.0159457, 1.6605, 0.0767212, 1.6605, -0.9903564, 1.6605, -0.2570801, 1.6605, 1.129771, 1.6605, 0.8167939, 1.6605, -3.3740458
0.1961471, -0.0142672, 1.66725, 0.0748291, 1.66725, -0.9926758, 1.66725, -0.2579346, 1.66725, 1.0763359, 1.66725, 0.648855, 1.66725, -3.4351146
0.1969412, -0.0152743, 1.674, 0.0749512, 1.674, -0.9891357, 1.674, -0.2592163, 1.674, 1.0076336, 1.674, 0.7480916, 1.674, -3.259542
0.1977353, -0.0135958, 1.68075, 0.0775757, 1.68075, -0.9882202, 1.68075, -0.262085, 1.68075, 1.0839695, 1.68075, 0.8091603, 1.68075, -3.3435113
0.1985294, -0.0139315, 1.6875, 0.0762939, 1.6875, -0.9910889, 1.6875, -0.2600708, 1.6875, 1.0992366, 1.6875, 0.9007633, 1.6875, -3.4198472
0.1993235, -0.01561, 1.69425, 0.0741577, 1.69425, -0.9906006, 1.69425, -0.2631226, 1.69425, 1.0610687, 1.69425, 0.8778626, 1.69425, -3.3969467
0.2001176, -0.0182956, 1.701, 0.0748291, 1.701, -0.9927979, 1.701, -0.2629395, 1.701, 0.8854962, 1.701, 0.870229, 1.701, -3.3664122
0.2009118, -0.01561, 1.70775, 0.0744629, 1.70775, -0.9907227, 1.70775, -0.2649536, 1.70775, 0.5648855, 1.70775, 0.9236641, 1.70775, -3.4045801
0.2017059, -0.0139315, 1.7145, 0.0752563, 1.7145, -0.9908447, 1.7145, -0.2606812, 1.7145, 0.8778626, 1.7145, 0.7557252, 1.7145, -3.2442749
0.2025, -0.0115816, 1.72125, 0.0771484, 1.72125, -0.9911499, 1.72125, -0.2606812, 1.72125, 0.8625954, 1.72125, 0.6335878, 1.72125, -3.3587787
0.2032941, -0.0119173, 1.728, 0.0777588, 1.728, -0.9942017, 1.728, -0.2587891, 1.728, 0.7557252, 1.728, 0.7022901, 1.728, -3.4503818
0.2040882, -0.0109102, 1.73475, 0.0773315, 1.73475, -0.9919434, 1.73475, -0.2587891, 1.73475, 0.9160305, 1.73475, 0.7328244, 1.73475, -3.3587787
0.2048824, -0.0117494, 1.7415, 0.0778198, 1.7415, -0.9924927, 1.7415, -0.2613525, 1.7415, 0.9541985, 1.7415, 0.8396947, 1.7415, -3.2977099
0.2056765, -0.0142672, 1.74825, 0.0765381, 1.74825, -0.9902344, 1.74825, -0.256897, 1.74825, 0.740458, 1.74825, 0.8320611, 1.74825, -3.2061069
0.2064706, -0.0130922, 1.755, 0.0780029, 1.755, -0.9909668, 1.755, -0.2575073, 1.755, 0.9465649, 1.755, 0.8396947, 1.755, -3.2061069
0.2072647, -0.0119173, 1.76175, 0.0777588, 1.76175, -0.9927368, 1.76175, -0.2581177, 1.76175, 0.8549618, 1.76175, 0.7557252, 1.76175, -3.4503818
0.2080588, -0.0119173, 1.7685, 0.0749512, 1.7685, -0.9945068, 1.7685, -0.2607422, 1.7685, 0.8549618, 1.7685, 0.8015267, 1.7685, -3.2824428
0.2088529, -0.0129244, 1.77525, 0.0757446, 1.77525, -0.9921265, 1.77525, -0.2590332, 1.77525, 0.8854962, 1.77525, 0.9236641, 1.77525, -3.1755726
0.2096471, -0.008896, 1.782, 0.0772705, 1.782, -0.9906006, 1.782, -0.2606812, 1.782, 1.0763359, 1.782, 1.0305344, 1.782, -3.0610688
0.2104412, -0.0119173, 1.78875, 0.0759888, 1.78875, -0.9906006, 1.78875, -0.258728, 1.78875, 1.1450381, 1.78875, 0.7480916, 1.78875, -3.259542
0.2112353, -0.0149386, 1.7955, 0.0773926, 1.7955, -0.9917603, 1.7955, -0.2600708, 1.7955, 1.1221374, 1.7955, 0.4732825, 1.7955, -3.2442749
0.2120294, -0.0135958, 1.80225, 0.0738525, 1.80225, -0.9917603, 1.80225, -0.2591553, 1.80225, 1.1068702, 1.80225, 0.5572519, 1.80225, -3.2748091
0.2128235, -0.017792, 1.809, 0.0772705, 1.809, -0.9923096, 1.809, -0.2581787, 1.809, 1.3282443, 1.809, 0.5801527, 1.809, -3.2671757
0.2136176, -0.0251774, 1.81575, 0.0784302, 1.81575, -0.9922485, 1.81575, -0.2576294, 1.81575, 1.1374046, 1.81575, 0.7938932, 1.81575, -2.9236641
0.2144118, -0.0236667, 1.8225, 0.0752563, 1.8225, -0.9935303, 1.8225, -0.2592773, 1.8225, 1.1832061, 1.8225, 0.740458, 1.8225, -3.1450381
0.2152059, -0.0223239, 1.82925, 0.0795288, 1.82925, -0.9893188, 1.82925, -0.2576904, 1.82925, 0.9541985, 1.82925, 0.8778626, 1.82925, -3.1832061
0.216, -0.0191348, 1.836, 0.0766602, 1.836, -0.9875488, 1.836, -0.2563477, 1.836, 0.9694657, 1.836, 0.7557252, 1.836, -3.1603053
0.2167941, -0.0140993, 1.84275, 0.0767212, 1.84275, -0.9902344, 1.84275, -0.256897, 1.84275, 0.9694657, 1.84275, 0.9160305, 1.84275, -3.0610688
0.2175882, -0.0142672, 1.8495, 0.0717773, 1.8495, -0.9929199, 1.8495, -0.2579346, 1.8495, 0.6717557, 1.8495, 1.1068702, 1.8495, -3.1832061
0.2183824, -0.0146029, 1.85625, 0.0738525, 1.85625, -0.996582, 1.85625, -0.2557983, 1.85625, 0.9847328, 1.85625, 0.6870229, 1.85625, -3.259542
0.2191765, -0.0132601, 1.863, 0.074585, 1.863, -0.9960938, 1.863, -0.2548218, 1.863, 1.3053435, 1.863, 0.7175573, 1.863, -3.2977099
0.2199706, -0.0142672, 1.86975, 0.0770874, 1.86975, -0.993103, 1.86975, -0.2597656, 1.86975, 1.1374046, 1.86975, 0.8931298, 1.86975, -3.4045801
0.2207647, -0.0152743, 1.8765, 0.0784302, 1.8765, -0.9880371, 1.8765, -0.2617188, 1.8765, 1.0076336, 1.8765, 0.9694657, 1.8765, -3.3587787
0.2215588, -0.0129244, 1.88325, 0.0777588, 1.88325, -0.9902344, 1.88325, -0.260437, 1.88325, 0.8015267, 1.88325, 0.8931298, 1.88325, -3.1984732
0.2223529, -0.0112459, 1.89, 0.0750122, 1.89, -0.9919434, 1.89, -0.2603149, 1.89, 0.8473282, 1.89, 0.8931298, 1.89, -3.0534351
0.2231471, -0.0142672, 1.89675, 0.0783691, 1.89675, -0.9887695, 1.89675, -0.2581787, 1.89675, 0.961832, 1.89675, 0.7633588, 1.89675, -3.0763359
0.2239412, -0.0193027, 1.9035, 0.0793457, 1.9035, -0.9939575, 1.9035, -0.2591553, 1.9035, 1.0152671, 1.9035, 1.0763359, 1.9035, -3.2061069
0.2247353, -0.023331, 1.91025, 0.0761719, 1.91025, -0.9918213, 1.91025, -0.2609863, 1.91025, 1.0305344, 1.91025, 1.2137405, 1.91025, -3.2366412
0.2255294, -0.0260166, 1.917, 0.0758667, 1.917, -0.9859009, 1.917, -0.2606812, 1.917, 1.259542, 1.917, 0.961832, 1.917, -3.1068702
0.2263235, -0.0236667, 1.92375, 0.0770264, 1.92375, -0.986084, 1.92375, -0.2637939, 1.92375, 1.1755725, 1.92375, 0.8396947, 1.92375, -3.0839694
0.2271176, -0.0229953, 1.9305, 0.078125, 1.9305, -0.9887085, 1.9305, -0.2639771, 1.9305, 0.9312977, 1.9305, 0.8625954, 1.9305, -3.0305343
0.2279118, -0.0246738, 1.93725, 0.0770874, 1.93725, -0.9918213, 1.93725, -0.2591553, 1.93725, 1.1755725, 1.93725, 0.8320611, 1.93725, -2.9923663
0.2287059, -0.0253452, 1.944, 0.0794678, 1.944, -0.9904175, 1.944, -0.2609253, 1.944, 1.2290076, 1.944, 0.6793893, 1.944, -2.9770992
0.2295, -0.0250095, 1.95075, 0.0754395, 1.95075, -0.9936523, 1.95075, -0.2598267, 1.95075, 1.1450381, 1.95075, 0.7251908, 1.95075, -3.0763359
0.2302941, -0.0243381, 1.9575, 0.0764771, 1.9575, -0.9957275, 1.9575, -0.2601318, 1.9575, 1.1908396, 1.9575, 0.7633588, 1.9575, -3.1068702
0.2310882, -0.0221561, 1.96425, 0.0739136, 1.96425, -0.9946899, 1.96425, -0.2590942, 1.96425, 1.1221374, 1.96425, 0.5648855, 1.96425, -3.1374047
0.2318824, -0.0223239, 1.971, 0.0757446, 1.971, -0.9887085, 1.971, -0.2595215, 1.971, 1.1145039, 1.971, 0.4961832, 1.971, -3.0458016
0.2326765, -0.0199741, 1.97775, 0.0775757, 1.97775, -0.9914551, 1.97775, -0.2567139, 1.97775, 1.1221374, 1.97775, 0.4656489, 1.97775, -2.870229
0.2334706, -0.0172885, 1.9845, 0.0807495, 1.9845, -0.9904175, 1.9845, -0.2572632, 1.9845, 1.1450381, 1.9845, 0.6030535, 1.9845, -3.0534351
0.2342647, -0.0209812, 1.99125, 0.0774536, 1.99125, -0.9901123, 1.99125, -0.2598877, 1.99125, 1.2442749, 1.99125, 0.6335878, 1.99125, -2.9694657
0.2350588, -0.0213169, 1.998, 0.0772705, 1.998, -0.9914551, 1.998, -0.2576294, 1.998, 1.0152671, 1.998, 0.908397, 1.998, -2.8244274
0.2358529, -0.0166171, 2.00475, 0.074585, 2.00475, -0.9898071, 2.00475, -0.2605591, 2.00475, 0.9389313, 2.00475, 0.9007633, 2.00475, -2.9160306
0.2366471, -0.0115816, 2.0115, 0.0742798, 2.0115, -0.9901733, 2.0115, -0.2617798, 2.0115, 1.0305344, 2.0115, 0.7557252, 2.0115, -2.9465649
0.2374412, -0.0115816, 2.01825, 0.0748291, 2.01825, -0.9890137, 2.01825, -0.262207, 2.01825, 1.1145039, 2.01825, 1.0076336, 2.01825, -2.8778627
0.2382353, -0.0129244, 2.025, 0.0758057, 2.025, -0.9917603, 2.025, -0.260376, 2.025, 0.8473282, 2.025, 1.1221374, 2.025, -2.908397
0.2390294, -0.0135958, 2.03175, 0.0757446, 2.03175, -0.9882202, 2.03175, -0.2572632, 2.03175, 1.0229008, 2.03175, 1.1221374, 2.03175, -3.0458016
0.2398235, -0.011078, 2.0385, 0.0723267, 2.0385, -0.9881592, 2.0385, -0.2562256, 2.0385, 0.8931298, 2.0385, 1.1908396, 2.0385, -3.0076337
0.2406176, -0.0124208, 2.04525, 0.0726318, 2.04525, -0.9898682, 2.04525, -0.2583008, 2.04525, 0.8931298, 2.04525, 1.0305344, 2.04525, -3.0534351
0.2414118, -0.0139315, 2.052, 0.0748291, 2.052, -0.9935303, 2.052, -0.2555542, 2.052, 0.8167939, 2.052, 0.8015267, 2.052, -3.1984732
0.2422059, -0.0149386, 2.05875, 0.0749512, 2.05875, -0.9907837, 2.05875, -0.2550049, 2.05875, 0.870229, 2.05875, 0.6717557, 2.05875, -3.1755726
0.243, -0.0169528, 2.0655, 0.0771484, 2.0655, -0.9918823, 2.0655, -0.2510376, 2.0655, 0.7251908, 2.0655, 0.8015267, 2.0655, -3.0687022
0.2437941, -0.0179599, 2.07225, 0.0770874, 2.07225, -0.9910889, 2.07225, -0.2542725, 2.07225, 0.8549618, 2.07225, 0.9694657, 2.07225, -3.1984732
0.2445882, -0.0162814, 2.079, 0.0758667, 2.079, -0.9902954, 2.079, -0.2550659, 2.079, 0.778626, 2.079, 0.961832, 2.079, -3.1450381
0.2453824, -0.0125887, 2.08575, 0.0755005, 2.08575, -0.9933472, 2.08575, -0.260498, 2.08575, 0.6564885, 2.08575, 1.0152671, 2.08575, -3.2290077
0.2461765, -0.0146029, 2.0925, 0.0756836, 2.0925, -0.9922485, 2.0925, -0.2612305, 2.0925, 0.7557252, 2.0925, 0.961832, 2.0925, -3.1374047
0.2469706, -0.0095674, 2.09925, 0.0749512, 2.09925, -0.9943848, 2.09925, -0.260498, 2.09925, 0.7862595, 2.09925, 0.778626, 2.09925, -3.1450381
0.2477647, -0.0102388, 2.106, 0.074646, 2.106, -0.991272, 2.106, -0.2611084, 2.106, 0.9389313, 2.106, 0.3740458, 2.106, -3.2366412
0.2485588, -0.0142672, 2.11275, 0.0775146, 2.11275, -0.9909058, 2.11275, -0.2564087, 2.11275, 1.1755725, 2.11275, 0.259542, 2.11275, -3.3587787
0.2493529, -0.0109102, 2.1195, 0.0767212, 2.1195, -0.9915771, 2.1195, -0.2595825, 2.1195, 1.1526718, 2.1195, 0.2290076, 2.1195, -3.4198472
0.2501471, -0.0184634, 2.12625, 0.076416, 2.12625, -0.9901123, 2.12625, -0.2596436, 2.12625, 1.1526718, 2.12625, 0.1679389, 2.12625, -3.1526718
0.2509412, -0.0206455, 2.133, 0.0762329, 2.133, -0.9884033, 2.133, -0.2615967, 2.133, 1.0839695, 2.133, 0.2900763, 2.133, -3.1832061
0.2517353, -0.0115816, 2.13975, 0.0749512, 2.13975, -0.9908447, 2.13975, -0.2574463, 2.13975, 0.9541985, 2.13975, 0.4503817, 2.13975, -3.3587787
0.2525294, -0.0159457, 2.1465, 0.074646, 2.1465, -0.9925537, 2.1465, -0.2554932, 2.1465, 0.9312977, 2.1465, 0.2290076, 2.1465, -3.1832061
0.2533235, -0.0198062, 2.15325, 0.0761719, 2.15325, -0.9937744, 2.15325, -0.2561035, 2.15325, 1.0305344, 2.15325, 0.2671756, 2.15325, -3.0152671
0.2541176, -0.0176242, 2.16, 0.0753784, 2.16, -0.9896851, 2.16, -0.255188, 2.16, 0.8854962, 2.16, 0.5343512, 2.16, -3.2824428
0.2549118, -0.017792, 2.16675, 0.0717163, 2.16675, -0.9910889, 2.16675, -0.2578735, 2.16675, 1.129771, 2.16675, 0.5343512, 2.16675, -3.0305343
0.2557059, -0.0142672, 2.1735, 0.0744019, 2.1735, -0.9923096, 2.1735, -0.2589722, 2.1735, 0.9312977, 2.1735, 0.4656489, 2.1735, -3.129771
0.2565, -0.0119173, 2.18025, 0.0756226, 2.18025, -0.9926147, 2.18025, -0.2594604, 2.18025, 0.961832, 2.18025, 0.519084, 2.18025, -3.2137403
0.2572941, -0.0115816, 2.187, 0.0776367, 2.187, -0.9902954, 2.187, -0.2576294, 2.187, 1.0992366, 2.187, 0.6412213, 2.187, -3.1908398
0.2580882, -0.0102388, 2.19375, 0.0767212, 2.19375, -0.9914551, 2.19375, -0.2633057, 2.19375, 1.129771, 2.19375, 0.480916, 2.19375, -3.1908398
0.2588824, -0.012253, 2.2005, 0.0756226, 2.2005, -0.9873047, 2.2005, -0.2640381, 2.2005, 0.8931298, 2.2005, 0.7633588, 2.2005, -3.0839694
0.2596765, -0.0152743, 2.20725, 0.0749512, 2.20725, -0.9917603, 2.20725, -0.2592773, 2.20725, 0.8778626, 2.20725, 0.8244275, 2.20725, -3.1450381
0.2604706, -0.014435, 2.214, 0.0747681, 2.214, -0.991394, 2.214, -0.2579956, 2.214, 0.9541985, 2.214, 0.6870229, 2.214, -3.1679389
0.2612647, -0.0130922, 2.22075, 0.0751343, 2.22075, -0.991394, 2.22075, -0.2601318, 2.22075, 0.870229, 2.22075, 0.6793893, 2.22075, -3.1526718
0.2620588, -0.0119173, 2.2275, 0.0719604, 2.2275, -0.9910889, 2.2275, -0.2574463, 2.2275, 0.8625954, 2.2275, 0.5496183, 2.2275, -3.1908398
0.2628529, -0.0105745, 2.23425, 0.0722656, 2.23425, -0.9934082, 2.23425, -0.2575073, 2.23425, 0.7328244, 2.23425, 0.7175573, 2.23425, -3.2977099
0.2636471, -0.012253, 2.241, 0.0753784, 2.241, -0.9939575, 2.241, -0.2596436, 2.241, 1.0458015, 2.241, 0.5877863, 2.241, -3.2519083
0.2644412, -0.0124208, 2.24775, 0.0786133, 2.24775, -0.9898682, 2.24775, -0.2590332, 2.24775, 0.6259542, 2.24775, 0.9007633, 2.24775, -3.2519083
0.2652353, -0.0159457, 2.2545, 0.0788574, 2.2545, -0.9915771, 2.2545, -0.2598267, 2.2545, 0.7862595, 2.2545, 0.870229, 2.2545, -3.3282442
0.2660294, -0.0157778, 2.26125, 0.0775146, 2.26125, -0.9931641, 2.26125, -0.2562256, 2.26125, 0.7022901, 2.26125, 0.740458, 2.26125, -3.3206108
0.2668235, -0.0112459, 2.268, 0.0772705, 2.268, -0.9927979, 2.268, -0.2576294, 2.268, 0.8091603, 2.268, 0.8625954, 2.268, -3.2137403
0.2676176, -0.0130922, 2.27475, 0.0767212, 2.27475, -0.9915161, 2.27475, -0.2590942, 2.27475, 0.8320611, 2.27475, 0.9236641, 2.27475, -3.2061069
0.2684118, -0.0117494, 2.2815, 0.0759888, 2.2815, -0.9936523, 2.2815, -0.2611694, 2.2815, 0.8854962, 2.2815, 1.259542, 2.2815, -3.2442749
0.2692059, -0.012253, 2.28825, 0.0757446, 2.28825, -0.9950562, 2.28825, -0.2612915, 2.28825, 0.9923664, 2.28825, 1.1679389, 2.28825, -3.1526718
0.27, -0.0078889, 2.295, 0.0726929, 2.295, -0.9907837, 2.295, -0.2626343, 2.295, 0.7251908, 2.295, 0.9694657, 2.295, -3.3358779
0.2707941, -0.0025177, 2.30175, 0.0745239, 2.30175, -0.9917603, 2.30175, -0.2646484, 2.30175, 0.9770992, 2.30175, 0.961832, 2.30175, -3.1679389
0.2715882, -0.0077211, 2.3085, 0.0751343, 2.3085, -0.9912109, 2.3085, -0.262146, 2.3085, 0.7938932, 2.3085, 0.7175573, 2.3085, -3.2366412
0.2723824, -0.018967, 2.31525, 0.0733643, 2.31525, -0.9933472, 2.31525, -0.2615356, 2.31525, 0.9923664, 2.31525, 0.6641222, 2.31525, -3.3435113
0.2731765, -0.0176242, 2.322, 0.0739136, 2.322, -0.9904785, 2.322, -0.2608032, 2.322, 1.0305344, 2.322, 0.4351145, 2.322, -3.2290077
0.2739706, -0.0090639, 2.32875, 0.0738525, 2.32875, -0.9893188, 2.32875, -0.262146, 2.32875, 1.2290076, 2.32875, 0.7022901, 2.32875, -3.1984732
0.2747647, -0.0109102, 2.3355, 0.0727539, 2.3355, -0.9871826, 2.3355, -0.2601929, 2.3355, 1.0610687, 2.3355, 0.5877863, 2.3355, -3.2977099
0.2755588, -0.0142672, 2.34225, 0.0712891, 2.34225, -0.9892578, 2.34225, -0.2601318, 2.34225, 1.1374046, 2.34225, 0.5343512, 2.34225, -3.2290077
0.2763529, -0.017792, 2.349, 0.0733032, 2.349, -0.9927979, 2.349, -0.2593384, 2.349, 1.1679389, 2.349, 0.4503817, 2.349, -3.2061069
0.2771471, -0.0176242, 2.35575, 0.0748291, 2.35575, -0.9938965, 2.35575, -0.2568359, 2.35575, 1.259542, 2.35575, 0.6717557, 2.35575, -3.1679389
0.2779412, -0.0162814, 2.3625, 0.078186, 2.3625, -0.9920654, 2.3625, -0.2599487, 2.3625, 1.3129771, 2.3625, 0.7251908, 2.3625, -3.0610688
0.2787353, -0.0176242, 2.36925, 0.0765991, 2.36925, -0.9890137, 2.36925, -0.2615356, 2.36925, 0.9465649, 2.36925, 0.8015267, 2.36925, -3.221374
0.2795294, -0.0164492, 2.376, 0.0748901, 2.376, -0.989563, 2.376, -0.260437, 2.376, 1.0687023, 2.376, 0.8625954, 2.376, -3.2290077
0.2803235, -0.0186313, 2.38275, 0.0740967, 2.38275, -0.9923096, 2.38275, -0.2578735, 2.38275, 1.1221374, 2.38275, 0.8015267, 2.38275, -3.1145039
0.2811176, -0.017792, 2.3895, 0.0731201, 2.3895, -0.9916992, 2.3895, -0.258667, 2.3895, 0.7480916, 2.3895, 0.870229, 2.3895, -3.2290077
0.2819118, -0.0176242, 2.39625, 0.0743408, 2.39625, -0.9927368, 2.39625, -0.2610474, 2.39625, 0.961832, 2.39625, 0.7862595, 2.39625, -3.2748091
0.2827059, -0.0186313, 2.403, 0.0774536, 2.403, -0.9918823, 2.403, -0.2630615, 2.403, 0.9465649, 2.403, 0.8396947, 2.403, -3.2290077
0.2835, -0.0151064, 2.40975, 0.0777588, 2.40975, -0.9929199, 2.40975, -0.2609863, 2.40975, 0.908397, 2.40975, 0.7099237, 2.40975, -3.1145039
0.2842941, -0.0166171, 2.4165, 0.0762329, 2.4165, -0.9922485, 2.4165, -0.2581177, 2.4165, 0.9312977, 2.4165, 0.6946565, 2.4165, -3.2824428
0.2850882, -0.0162814, 2.42325, 0.0747681, 2.42325, -0.9934692, 2.42325, -0.2596436, 2.42325, 1.0152671, 2.42325, 0.740458, 2.42325, -3.1755726
0.2858824, -0.0115816, 2.43, 0.0789185, 2.43, -0.9911499, 2.43, -0.2543945, 2.43, 1.1679389, 2.43, 0.8549618, 2.43, -3.1068702
0.2866765, -0.0132601, 2.43675, 0.0760498, 2.43675, -0.9899902, 2.43675, -0.2597046, 2.43675, 1.2290076, 2.43675, 0.9312977, 2.43675, -3.0839694
0.2874706, -0.0149386, 2.4435, 0.0772705, 2.4435, -0.9940186, 2.4435, -0.2580566, 2.4435, 1.1603054, 2.4435, 0.8244275, 2.4435, -3.0992367
0.2882647, -0.0172885, 2.45025, 0.0754395, 2.45025, -0.9927979, 2.45025, -0.2562866, 2.45025, 1.221374, 2.45025, 0.7709923, 2.45025, -3.2671757
0.2890588, -0.0109102, 2.457, 0.0750732, 2.457, -0.9926147, 2.457, -0.2563477, 2.457, 1.0152671, 2.457, 0.8473282, 2.457, -3.1908398
0.2898529, -0.0109102, 2.46375, 0.0734253, 2.46375, -0.9904175, 2.46375, -0.258606, 2.46375, 1.1755725, 2.46375, 0.9465649, 2.46375, -3.2900763
0.2906471, -0.0152743, 2.4705, 0.0720215, 2.4705, -0.9912109, 2.4705, -0.2609863, 2.4705, 1.2366412, 2.4705, 0.870229, 2.4705, -3.2137403
0.2914412, -0.0203098, 2.47725, 0.071228, 2.47725, -0.9890747, 2.47725, -0.2606201, 2.47725, 1.1068702, 2.47725, 0.9312977, 2.47725, -3.3587787
0.2922353, -0.0203098, 2.484, 0.0727539, 2.484, -0.991333, 2.484, -0.2611694, 2.484, 0.9694657, 2.484, 0.7557252, 2.484, -3.351145
0.2930294, -0.0219883, 2.49075, 0.0733032, 2.49075, -0.9882812, 2.49075, -0.2617188, 2.49075, 0.8778626, 2.49075, 0.6183206, 2.49075, -3.2061069
0.2938235, -0.0223239, 2.4975, 0.0748291, 2.4975, -0.9886475, 2.4975, -0.2598267, 2.4975, 0.9541985, 2.4975, 0.4503817, 2.4975, -3.4122138
0.2946176, -0.0193027, 2.50425, 0.0768433, 2.50425, -0.9935913, 2.50425, -0.2580566, 2.50425, 1.091603, 2.50425, 0.4351145, 2.50425, -3.3358779
0.2954118, -0.0206455, 2.511, 0.0741577, 2.511, -0.9903564, 2.511, -0.2597656, 2.511, 1.0229008, 2.511, 0.6946565, 2.511, -3.3816793
0.2962059, -0.0223239, 2.51775, 0.0756836, 2.51775, -0.9901123, 2.51775, -0.2557373, 2.51775, 0.8778626, 2.51775, 0.6564885, 2.51775, -3.259542
0.297, -0.0193027, 2.5245, 0.078186, 2.5245, -0.9899292, 2.5245, -0.2560425, 2.5245, 0.9389313, 2.5245, 0.7175573, 2.5245, -3.2290077
0.2977941, -0.0199741, 2.53125, 0.078186, 2.53125, -0.9897461, 2.53125, -0.2581177, 2.53125, 1.1221374, 2.53125, 0.8549618, 2.53125, -3.1374047
0.2985882, -0.0182956, 2.538, 0.0772095, 2.538, -0.9887085, 2.538, -0.2618408, 2.538, 0.9007633, 2.538, 0.8931298, 2.538, -3.1832061
0.2993824, -0.0176242, 2.54475, 0.0762329, 2.54475, -0.9935913, 2.54475, -0.2639771, 2.54475, 0.7633588, 2.54475, 0.9389313, 2.54475, -3.0610688
0.3001765, -0.0169528, 2.5515, 0.0753784, 2.5515, -0.9921265, 2.5515, -0.2617188, 2.5515, 0.8549618, 2.5515, 0.5267175, 2.5515, -3.129771
0.3009706, -0.01561, 2.55825, 0.0759888, 2.55825, -0.9925537, 2.55825, -0.2600708, 2.55825, 0.9007633, 2.55825, 0.4198473, 2.55825, -3.1450381
0.3017647, -0.0146029, 2.565, 0.0752563, 2.565, -0.991394, 2.565, -0.2592163, 2.565, 0.8320611, 2.565, 0.5877863, 2.565, -3.2671757
0.3025588, -0.0135958, 2.57175, 0.0742798, 2.57175, -0.9942017, 2.57175, -0.2597046, 2.57175, 0.8320611, 2.57175, 0.7480916, 2.57175, -3.2519083
0.3033529, -0.0149386, 2.5785, 0.0748901, 2.5785, -0.9923096, 2.5785, -0.2592773, 2.5785, 0.8015267, 2.5785, 0.610687, 2.5785, -3.2824428
0.3041471, -0.0152743, 2.58525, 0.0773926, 2.58525, -0.9929199, 2.58525, -0.2606812, 2.58525, 0.7557252, 2.58525, 0.6335878, 2.58525, -3.2900763
0.3049412, -0.0115816, 2.592, 0.074646, 2.592, -0.994873, 2.592, -0.2606812, 2.592, 0.9160305, 2.592, 0.6793893, 2.592, -3.2366412
0.3057353, -0.0075532, 2.59875, 0.0754395, 2.59875, -0.9904785, 2.59875, -0.2579956, 2.59875, 1, 2.59875, 0.4732825, 2.59875, -3.351145
0.3065294, -0.0068818, 2.6055, 0.0755615, 2.6055, -0.9914551, 2.6055, -0.255127, 2.6055, 1.0687023, 2.6055, 0.5877863, 2.6055, -3.3129771
0.3073235, -0.0058747, 2.61225, 0.0758057, 2.61225, -0.9903564, 2.61225, -0.2575073, 2.61225, 0.9923664, 2.61225, 0.6870229, 2.61225, -3.2977099
0.3081176, -0.008896, 2.619, 0.0760498, 2.619, -0.9916992, 2.619, -0.2580566, 2.619, 1.0610687, 2.619, 0.6030535, 2.619, -3.2366412
0.3089118, -0.0095674, 2.62575, 0.0742188, 2.62575, -0.9946899, 2.62575, -0.2573853, 2.62575, 1.0687023, 2.62575, 0.6564885, 2.62575, -3.1374047
0.3097059, -0.012253, 2.6325, 0.074646, 2.6325, -0.9935913, 2.6325, -0.258728, 2.6325, 0.908397, 2.6325, 0.7022901, 2.6325, -3.2442749
0.3105, -0.0140993, 2.63925, 0.0731201, 2.63925, -0.9925537, 2.63925, -0.2587891, 2.63925, 0.908397, 2.63925, 0.5877863, 2.63925, -3.1603053
0.3112941, -0.0135958, 2.646, 0.0710449, 2.646, -0.9900513, 2.646, -0.2609253, 2.646, 0.9770992, 2.646, 0.6259542, 2.646, -3.2824428
0.3120882, -0.01561, 2.65275, 0.0730591, 2.65275, -0.9906006, 2.65275, -0.2567749, 2.65275, 1.0229008, 2.65275, 0.7633588, 2.65275, -3.1526718
0.3128824, -0.012253, 2.6595, 0.0748291, 2.6595, -0.9891968, 2.6595, -0.2555542, 2.6595, 1.0610687, 2.6595, 0.6183206, 2.6595, -3.1755726
0.3136765, -0.0152743, 2.66625, 0.0770264, 2.66625, -0.9901123, 2.66625, -0.2591553, 2.66625, 1.0839695, 2.66625, 0.8396947, 2.66625, -3.1450381
0.3144706, -0.0204776, 2.673, 0.0767212, 2.673, -0.9904785, 2.673, -0.2542725, 2.673, 1.0763359, 2.673, 0.740458, 2.673, -3.2290077
0.3152647, -0.0229953, 2.67975, 0.0764771, 2.67975, -0.9924316, 2.67975, -0.255188, 2.67975, 1, 2.67975, 0.8549618, 2.67975, -3.2900763
0.3160588, -0.0236667, 2.6865, 0.0765381, 2.6865, -0.9954834, 2.6865, -0.2577515, 2.6865, 0.9847328, 2.6865, 0.8549618, 2.6865, -3.3282442
0.3168529, -0.0229953, 2.69325, 0.0750122, 2.69325, -0.9956665, 2.69325, -0.257019, 2.69325, 0.9923664, 2.69325, 1, 2.69325, -3.3129771
0.3176471, -0.0164492, 2.7, 0.0793457, 2.7, -0.9920044, 2.7, -0.2595215, 2.7, 1.0458015, 2.7, 1.1908396, 2.7, -3.2290077
0.3184412, -0.0152743, 2.70675, 0.076416, 2.70675, -0.9933472, 2.70675, -0.258606, 2.70675, 0.9694657, 2.70675, 1.0610687, 2.70675, -3.038168
0.3192353, -0.01561, 2.7135, 0.0769653, 2.7135, -0.9903564, 2.7135, -0.2608032, 2.7135, 1.1526718, 2.7135, 1.091603, 2.7135, -3.1908398
0.3200294, -0.0176242, 2.72025, 0.0731201, 2.72025, -0.9880371, 2.72025, -0.2591553, 2.72025, 1.221374, 2.72025, 0.9160305, 2.72025, -3.3358779
0.3208235, -0.0204776, 2.727, 0.0741577, 2.727, -0.9872437, 2.727, -0.2661133, 2.727, 1.129771, 2.727, 1.0839695, 2.727, -3.2977099
0.3216176, -0.0196384, 2.73375, 0.0775757, 2.73375, -0.9899902, 2.73375, -0.2634277, 2.73375, 1.0763359, 2.73375, 1.0229008, 2.73375, -3.259542
0.3224118, -0.0182956, 2.7405, 0.0789795, 2.7405, -0.9885864, 2.7405, -0.2600098, 2.7405, 0.8320611, 2.7405, 0.8854962, 2.7405, -3.0763359
0.3232059, -0.0181277, 2.74725, 0.0755615, 2.74725, -0.9907227, 2.74725, -0.2620239, 2.74725, 1, 2.74725, 0.6946565, 2.74725, -3.1526718
0.324, -0.0179599, 2.754, 0.0775757, 2.754, -0.989502, 2.754, -0.2633057, 2.754, 0.8244275, 2.754, 0.6870229, 2.754, -3.221374
0.3247941, -0.0186313, 2.76075, 0.076416, 2.76075, -0.9923096, 2.76075, -0.2589722, 2.76075, 0.7633588, 2.76075, 0.8244275, 2.76075, -3.1526718
0.3255882, -0.0124208, 2.7675, 0.0731201, 2.7675, -0.9924316, 2.7675, -0.2600708, 2.7675, 0.9007633, 2.7675, 0.6870229, 2.7675, -3.2061069
0.3263824, -0.0135958, 2.77425, 0.072998, 2.77425, -0.9929199, 2.77425, -0.2603149, 2.77425, 0.8396947, 2.77425, 0.9694657, 2.77425, -3.0839694
0.3271765, -0.01561, 2.781, 0.0786133, 2.781, -0.996521, 2.781, -0.2583008, 2.781, 0.9694657, 2.781, 1.2290076, 2.781, -3.1450381
0.3279706, -0.0129244, 2.78775, 0.0787354, 2.78775, -0.9926758, 2.78775, -0.2584839, 2.78775, 0.7633588, 2.78775, 1.0763359, 2.78775, -3.2824428
0.3287647, -0.0132601, 2.7945, 0.0776978, 2.7945, -0.9896851, 2.7945, -0.2587891, 2.7945, 0.8549618, 2.7945, 1.1374046, 2.7945, -3.1526718
0.3295588, -0.0162814, 2.80125, 0.0776978, 2.80125, -0.9923706, 2.80125, -0.2558594, 2.80125, 0.8473282, 2.80125, 1.1526718, 2.80125, -3.1755726
0.3303529, -0.0142672, 2.808, 0.0740967, 2.808, -0.9926147, 2.808, -0.2598267, 2.808, 0.908397, 2.808, 1.1145039, 2.808, -3.129771
0.3311471, -0.0104067, 2.81475, 0.0756226, 2.81475, -0.9904785, 2.81475, -0.2585449, 2.81475, 0.8854962, 2.81475, 1.0229008, 2.81475, -3.091603
0.3319412, -0.0149386, 2.8215, 0.0778809, 2.8215, -0.9882812, 2.8215, -0.258606, 2.8215, 1.0458015, 2.8215, 0.9923664, 2.8215, -3.1526718
0.3327353, -0.0198062, 2.82825, 0.0742188, 2.82825, -0.9906006, 2.82825, -0.2603149, 2.82825, 1.0229008, 2.82825, 0.8854962, 2.82825, -3.1755726
0.3335294, -0.0169528, 2.835, 0.0735474, 2.835, -0.9902954, 2.835, -0.2588501, 2.835, 1, 2.835, 0.8473282, 2.835, -3.0763359
0.3343235, -0.0097353, 2.84175, 0.0737305, 2.84175, -0.9894409, 2.84175, -0.2593384, 2.84175, 1.2519084, 2.84175, 0.8244275, 2.84175, -3.1908398
0.3351176, -0.0070497, 2.8485, 0.0738525, 2.8485, -0.9876099, 2.8485, -0.2573853, 2.8485, 1.2900764, 2.8485, 0.7709923, 2.8485, -3.129771
0.3359118, -0.0068818, 2.85525, 0.0751953, 2.85525, -0.9924316, 2.85525, -0.258667, 2.85525, 1.2824427, 2.85525, 0.6793893, 2.85525, -3.038168
0.3367059, -0.0083925, 2.862, 0.0735474, 2.862, -0.993103, 2.862, -0.2558594, 2.862, 1.3435115, 2.862, 0.870229, 2.862, -3.1832061
0.3375, -0.0068818, 2.86875, 0.0740967, 2.86875, -0.9905396, 2.86875, -0.256897, 2.86875, 1.2290076, 2.86875, 0.6946565, 2.86875, -3.1679389
0.3382941, -0.0063783, 2.8755, 0.0762939, 2.8755, -0.9896851, 2.8755, -0.258606, 2.8755, 1.1450381, 2.8755, 0.8244275, 2.8755, -3.3129771
0.3390882, -0.0095674, 2.88225, 0.0767822, 2.88225, -0.9929199, 2.88225, -0.2568359, 2.88225, 1.3129771, 2.88225, 0.6793893, 2.88225, -3.1908398
0.3398824, -0.0142672, 2.889, 0.0751953, 2.889, -0.9918213, 2.889, -0.2577515, 2.889, 0.8778626, 2.889, 0.8625954, 2.889, -3.2061069
0.3406765, -0.0166171, 2.89575, 0.0767212, 2.89575, -0.9926147, 2.89575, -0.2599487, 2.89575, 0.908397, 2.89575, 0.7557252, 2.89575, -3.2366412
0.3414706, -0.0169528, 2.9025, 0.0765381, 2.9025, -0.9890137, 2.9025, -0.2606201, 2.9025, 0.9160305, 2.9025, 1.0076336, 2.9025, -3.389313
0.3422647, -0.0186313, 2.90925, 0.0773315, 2.90925, -0.9915771, 2.90925, -0.2577515, 2.90925, 0.9770992, 2.90925, 0.9007633, 2.90925, -3.3587787
0.3430588, -0.0164492, 2.916, 0.0728149, 2.916, -0.9906006, 2.916, -0.2597656, 2.916, 1.0305344, 2.916, 0.7328244, 2.916, -3.2977099
0.3438529, -0.0159457, 2.92275, 0.0714722, 2.92275, -0.9934082, 2.92275, -0.2614136, 2.92275, 0.8396947, 2.92275, 0.648855, 2.92275, -3.5267177
0.3446471, -0.0213169, 2.9295, 0.0741577, 2.9295, -0.9927368, 2.9295, -0.2614746, 2.9295, 0.8091603, 2.9295, 0.3816794, 2.9295, -3.480916
0.3454412, -0.0216526, 2.93625, 0.0750122, 2.93625, -0.992981, 2.93625, -0.2589722, 2.93625, 0.8931298, 2.93625, 0.3129771, 2.93625, -3.389313
0.3462353, -0.0216526, 2.943, 0.0776978, 2.943, -0.9915771, 2.943, -0.2589111, 2.943, 0.961832, 2.943, 0.259542, 2.943, -3.389313
0.3470294, -0.0270237, 2.94975, 0.0776367, 2.94975, -0.9927979, 2.94975, -0.256958, 2.94975, 1.0534351, 2.94975, 0.3816794, 2.94975, -3.4503818
0.3478235, -0.0317235, 2.9565, 0.078064, 2.9565, -0.9882202, 2.9565, -0.2579956, 2.9565, 0.870229, 2.9565, 0.4045801, 2.9565, -3.4503818
0.3486176, -0.0310521, 2.96325, 0.0756226, 2.96325, -0.9915771, 2.96325, -0.2601929, 2.96325, 0.9236641, 2.96325, 0.4122137, 2.96325, -3.389313
0.3494118, -0.0313878, 2.97, 0.0778809, 2.97, -0.989624, 2.97, -0.2563477, 2.97, 0.8778626, 2.97, 0.4503817, 2.97, -3.2748091
0.3502059, -0.026688, 2.97675, 0.0779419, 2.97675, -0.9909668, 2.97675, -0.2575073, 2.97675, 1.0763359, 2.97675, 0.4503817, 2.97675, -3.0534351
0.351, -0.0250095, 2.9835, 0.074707, 2.9835, -0.9899902, 2.9835, -0.2565918, 2.9835, 1, 2.9835, 0.5572519, 2.9835, -3.3664122
0.3517941, -0.0218204, 2.99025, 0.0775757, 2.99025, -0.9927368, 2.99025, -0.258606, 2.99025, 0.9160305, 2.99025, 0.7633588, 2.99025, -3.2290077
0.3525882, -0.0206455, 2.997, 0.0775757, 2.997, -0.9918823, 2.997, -0.2597656, 2.997, 0.8549618, 2.997, 0.648855, 2.997, -3.2061069
0.3533824, -0.0179599, 3.00375, 0.0764771, 3.00375, -0.9916382, 3.00375, -0.2591553, 3.00375, 0.9694657, 3.00375, 0.740458, 3.00375, -3.2900763
0.3541765, -0.0159457, 3.0105, 0.0734253, 3.0105, -0.989502, 3.0105, -0.2598877, 3.0105, 0.8015267, 3.0105, 0.8931298, 3.0105, -3.1755726
0.3549706, -0.012253, 3.01725, 0.0703125, 3.01725, -0.9916992, 3.01725, -0.2582397, 3.01725, 0.9236641, 3.01725, 0.8549618, 3.01725, -3.1450381
0.3557647, -0.0109102, 3.024, 0.0739136, 3.024, -0.9899292, 3.024, -0.2589722, 3.024, 0.8931298, 3.024, 0.8931298, 3.024, -3.1984732
0.3565588, -0.0097353, 3.03075, 0.0745239, 3.03075, -0.9926147, 3.03075, -0.2614136, 3.03075, 0.8549618, 3.03075, 0.9694657, 3.03075, -3.1832061
0.3573529, -0.0072175, 3.0375, 0.0755005, 3.0375, -0.9902344, 3.0375, -0.2598877, 3.0375, 1, 3.0375, 0.8396947, 3.0375, -3.221374
0.3581471, -0.0072175, 3.04425, 0.078064, 3.04425, -0.9921875, 3.04425, -0.2593994, 3.04425, 0.9007633, 3.04425, 0.5801527, 3.04425, -3.2366412
0.3589412, -0.0099031, 3.051, 0.0787354, 3.051, -0.9918823, 3.051, -0.2594604, 3.051, 0.9847328, 3.051, 0.5496183, 3.051, -3.2748091
0.3597353, -0.0109102, 3.05775, 0.0790405, 3.05775, -0.9907837, 3.05775, -0.2565918, 3.05775, 1.1221374, 3.05775, 0.8015267, 3.05775, -3.2824428
0.3605294, -0.0114137, 3.0645, 0.0778198, 3.0645, -0.9923096, 3.0645, -0.2595825, 3.0645, 0.9465649, 3.0645, 0.5954198, 3.0645, -3.1145039
0.3613235, -0.012253, 3.07125, 0.0759888, 3.07125, -0.9899292, 3.07125, -0.2584839, 3.07125, 0.648855, 3.07125, 0.6183206, 3.07125, -3.221374
0.3621176, -0.0097353, 3.078, 0.0785522, 3.078, -0.9933472, 3.078, -0.2583008, 3.078, 0.7099237, 3.078, 0.7709923, 3.078, -3.2671757
0.3629118, -0.012253, 3.08475, 0.0757446, 3.08475, -0.9918213, 3.08475, -0.2577515, 3.08475, 0.9923664, 3.08475, 0.7480916, 3.08475, -3.1145039
0.3637059, -0.0125887, 3.0915, 0.0764771, 3.0915, -0.9938354, 3.0915, -0.2619019, 3.0915, 1.0152671, 3.0915, 0.8015267, 3.0915, -3.3587787
0.3645, -0.0139315, 3.09825, 0.074707, 3.09825, -0.9901733, 3.09825, -0.2600708, 3.09825, 0.9389313, 3.09825, 0.6641222, 3.09825, -3.2290077
0.3652941, -0.0137636, 3.105, 0.0742798, 3.105, -0.9906616, 3.105, -0.2602539, 3.105, 0.9007633, 3.105, 0.8396947, 3.105, -3.3206108
0.3660882, -0.0105745, 3.11175, 0.0737305, 3.11175, -0.9899292, 3.11175, -0.2611694, 3.11175, 0.8625954, 3.11175, 0.6946565, 3.11175, -3.3587787
0.3668824, -0.0125887, 3.1185, 0.072998, 3.1185, -0.9902954, 3.1185, -0.260376, 3.1185, 0.9923664, 3.1185, 0.6793893, 3.1185, -3.2671757
0.3676765, -0.0132601, 3.12525, 0.0751953, 3.12525, -0.9901733, 3.12525, -0.2589722, 3.12525, 1.0305344, 3.12525, 0.4198473, 3.12525, -3.3282442
0.3684706, -0.0099031, 3.132, 0.074646, 3.132, -0.9909058, 3.132, -0.2565308, 3.132, 0.9389313, 3.132, 0.3816794, 3.132, -3.3129771
0.3692647, -0.0090639, 3.13875, 0.0757446, 3.13875, -0.9898682, 3.13875, -0.2545166, 3.13875, 1.0152671, 3.13875, 0.2824427, 3.13875, -3.259542
0.3700588, -0.0065461, 3.1455, 0.0796509, 3.1455, -0.9906616, 3.1455, -0.2557983, 3.1455, 1.259542, 3.1455, 0.3969466, 3.1455, -3.351145
0.3708529, -0.0031891, 3.15225, 0.0786743, 3.15225, -0.9915161, 3.15225, -0.2567139, 3.15225, 1.0534351, 3.15225, 0.5343512, 3.15225, -3.3282442
0.3716471, -0.0082246, 3.159, 0.0789795, 3.159, -0.9909058, 3.159, -0.2560425, 3.159, 1.0839695, 3.159, 0.5648855, 3.159, -3.2748091
0.3724412, -0.010071, 3.16575, 0.0782471, 3.16575, -0.9882812, 3.16575, -0.2626343, 3.16575, 1.091603, 3.16575, 0.8854962, 3.16575, -3.1450381
0.3732353, -0.0129244, 3.1725, 0.0770264, 3.1725, -0.9924316, 3.1725, -0.2576294, 3.1725, 0.8091603, 3.1725, 1.0458015, 3.1725, -3.0458016
0.3740294, -0.0137636, 3.17925, 0.0776367, 3.17925, -0.9918213, 3.17925, -0.2589111, 3.17925, 0.7175573, 3.17925, 0.9236641, 3.17925, -3.259542
0.3748235, -0.0135958, 3.186, 0.0787354, 3.186, -0.9920654, 3.186, -0.2567749, 3.186, 0.8854962, 3.186, 0.6946565, 3.186, -3.2290077
0.3756176, -0.0149386, 3.19275, 0.0751953, 3.19275, -0.9920044, 3.19275, -0.2584839, 3.19275, 0.8854962, 3.19275, 0.7709923, 3.19275, -3.2900763
0.3764118, -0.01561, 3.1995, 0.0739746, 3.1995, -0.9911499, 3.1995, -0.2580566, 3.1995, 1.0076336, 3.1995, 0.6946565, 3.1995, -3.3816793
0.3772059, -0.018967, 3.20625, 0.0740356, 3.20625, -0.9951172, 3.20625, -0.262146, 3.20625, 1.0458015, 3.20625, 0.6793893, 3.20625, -3.2824428
0.378, -0.0223239, 3.213, 0.0766602, 3.213, -0.9926758, 3.213, -0.2598877, 3.213, 0.9541985, 3.213, 0.610687, 3.213, -3.2290077
0.3787941, -0.0216526, 3.21975, 0.0749512, 3.21975, -0.9903564, 3.21975, -0.2595215, 3.21975, 1.038168, 3.21975, 0.740458, 3.21975, -3.3206108
0.3795882, -0.0236667, 3.2265, 0.0751953, 3.2265, -0.9905396, 3.2265, -0.2595215, 3.2265, 1.0763359, 3.2265, 0.8396947, 3.2265, -3.1984732
0.3803824, -0.0216526, 3.23325, 0.0740967, 3.23325, -0.9905396, 3.23325, -0.2592773, 3.23325, 1.2442749, 3.23325, 0.778626, 3.23325, -3.2900763
0.3811765, -0.0182956, 3.24, 0.0740356, 3.24, -0.9914551, 3.24, -0.2601929, 3.24, 1.0610687, 3.24, 0.8473282, 3.24, -3.2671757
0.3819706, -0.0209812, 3.24675, 0.0752563, 3.24675, -0.9909058, 3.24675, -0.2590942, 3.24675, 0.908397, 3.24675, 0.6870229, 3.24675, -3.129771
0.3827647, -0.0236667, 3.2535, 0.0743408, 3.2535, -0.9883423, 3.2535, -0.2637329, 3.2535, 0.9770992, 3.2535, 0.7709923, 3.2535, -3.2366412
0.3835588, -0.018967, 3.26025, 0.0737305, 3.26025, -0.9900513, 3.26025, -0.2615356, 3.26025, 0.740458, 3.26025, 0.8167939, 3.26025, -3.2900763
0.3843529, -0.0162814, 3.267, 0.0770874, 3.267, -0.991272, 3.267, -0.2585449, 3.267, 0.648855, 3.267, 0.7480916, 3.267, -3.1145039
0.3851471, -0.018967, 3.27375, 0.0762329, 3.27375, -0.9928589, 3.27375, -0.2597046, 3.27375, 0.6335878, 3.27375, 0.7099237, 3.27375, -3.2442749
0.3859412, -0.0196384, 3.2805, 0.0770264, 3.2805, -0.9943237, 3.2805, -0.2592773, 3.2805, 0.8244275, 3.2805, 0.6717557, 3.2805, -3.2290077
0.3867353, -0.0162814, 3.28725, 0.0738525, 3.28725, -0.9932861, 3.28725, -0.2554321, 3.28725, 0.6641222, 3.28725, 0.7099237, 3.28725, -3.3206108
0.3875294, -0.0162814, 3.294, 0.0758667, 3.294, -0.9923096, 3.294, -0.2564087, 3.294, 0.7557252, 3.294, 0.7862595, 3.294, -3.1832061
0.3883235, -0.0176242, 3.30075, 0.0770264, 3.30075, -0.9923096, 3.30075, -0.2572021, 3.30075, 0.7480916, 3.30075, 0.8473282, 3.30075, -3.2290077
0.3891176, -0.0169528, 3.3075, 0.0748901, 3.3075, -0.9922485, 3.3075, -0.2594604, 3.3075, 0.7633588, 3.3075, 0.7557252, 3.3075, -3.2290077
0.3899118, -0.0162814, 3.31425, 0.0782471, 3.31425, -0.9942017, 3.31425, -0.2579956, 3.31425, 0.8396947, 3.31425, 0.5801527, 3.31425, -3.3587787
0.3907059, -0.0182956, 3.321, 0.0749512, 3.321, -0.9922485, 3.321, -0.2598877, 3.321, 0.7251908, 3.321, 0.5496183, 3.321, -3.1145039
0.3915, -0.0176242, 3.32775, 0.0755615, 3.32775, -0.9920044, 3.32775, -0.2572632, 3.32775, 0.8778626, 3.32775, 0.5648855, 3.32775, -3.038168
0.3922941, -0.0162814, 3.3345, 0.074585, 3.3345, -0.9902344, 3.3345, -0.2598267, 3.3345, 0.8320611, 3.3345, 0.519084, 3.3345, -3.2442749
0.3930882, -0.01561, 3.34125, 0.0754395, 3.34125, -0.9904175, 3.34125, -0.2593994, 3.34125, 1.0763359, 3.34125, 0.7022901, 3.34125, -3.1908398
0.3938824, -0.0162814, 3.348, 0.0768433, 3.348, -0.9937744, 3.348, -0.2568359, 3.348, 1.091603, 3.348, 0.7709923, 3.348, -3.1145039
0.3946765, -0.0159457, 3.35475, 0.0778198, 3.35475, -0.9908447, 3.35475, -0.2608643, 3.35475, 1.1221374, 3.35475, 0.7709923, 3.35475, -3.1450381
0.3954706, -0.0142672, 3.3615, 0.0755615, 3.3615, -0.989502, 3.3615, -0.2612915, 3.3615, 0.9770992, 3.3615, 0.9236641, 3.3615, -2.9541984
0.3962647, -0.0137636, 3.36825, 0.0772095, 3.36825, -0.9907837, 3.36825, -0.2589111, 3.36825, 0.9312977, 3.36825, 0.778626, 3.36825, -3.2366412
0.3970588, -0.0166171, 3.375, 0.0749512, 3.375, -0.9907837, 3.375, -0.2595215, 3.375, 0.9007633, 3.375, 0.8473282, 3.375, -3.2671757
0.3978529, -0.0157778, 3.38175, 0.0733032, 3.38175, -0.9923706, 3.38175, -0.2555542, 3.38175, 0.8931298, 3.38175, 1.0229008, 3.38175, -3.1755726
0.3986471, -0.0169528, 3.3885, 0.0766602, 3.3885, -0.9919434, 3.3885, -0.2573853, 3.3885, 0.9694657, 3.3885, 0.9160305, 3.3885, -3.2519083
0.3994412, -0.0172885, 3.39525, 0.0767822, 3.39525, -0.9932251, 3.39525, -0.2610474, 3.39525, 0.9389313, 3.39525, 0.961832, 3.39525, -3.1374047
0.4002353, -0.0146029, 3.402, 0.0810547, 3.402, -0.9910889, 3.402, -0.2598267, 3.402, 0.5572519, 3.402, 0.9923664, 3.402, -3.1832061
0.4010294, -0.0162814, 3.40875, 0.0744019, 3.40875, -0.9929199, 3.40875, -0.2599487, 3.40875, 0.610687, 3.40875, 0.8854962, 3.40875, -3.1679389
0.4018235, -0.0223239, 3.4155, 0.0752563, 3.4155, -0.9924927, 3.4155, -0.2582397, 3.4155, 0.7175573, 3.4155, 0.9465649, 3.4155, -3.2748091
0.4026176, -0.0204776, 3.42225, 0.0731812, 3.42225, -0.9938965, 3.42225, -0.2548828, 3.42225, 0.7328244, 3.42225, 0.9770992, 3.42225, -2.9923663
0.4034118, -0.0193027, 3.429, 0.0782471, 3.429, -0.9927368, 3.429, -0.2581177, 3.429, 0.6870229, 3.429, 0.9923664, 3.429, -3.1450381
0.4042059, -0.0203098, 3.43575, 0.0754395, 3.43575, -0.9919434, 3.43575, -0.2631836, 3.43575, 0.5954198, 3.43575, 1.1755725, 3.43575, -3.0839694
0.405, -0.0191348, 3.4425, 0.0740356, 3.4425, -0.9916992, 3.4425, -0.2571411, 3.4425, 0.6183206, 3.4425, 0.9236641, 3.4425, -3.3664122
0.4057941, -0.0179599, 3.44925, 0.0736694, 3.44925, -0.9914551, 3.44925, -0.2573853, 3.44925, 0.6259542, 3.44925, 0.8625954, 3.44925, -3.2061069
0.4065882, -0.0149386, 3.456, 0.0749512, 3.456, -0.9923706, 3.456, -0.2616577, 3.456, 0.740458, 3.456, 0.740458, 3.456, -3.2977099
0.4073824, -0.0149386, 3.46275, 0.0708618, 3.46275, -0.9931641, 3.46275, -0.2595825, 3.46275, 0.6412213, 3.46275, 1.0152671, 3.46275, -3.2671757
0.4081765, -0.0137636, 3.4695, 0.0716553, 3.4695, -0.9929199, 3.4695, -0.2631836, 3.4695, 0.740458, 3.4695, 0.5725191, 3.4695, -3.2748091
0.4089706, -0.0162814, 3.47625, 0.0726318, 3.47625, -0.9904175, 3.47625, -0.2581177, 3.47625, 0.7557252, 3.47625, 0.3282443, 3.47625, -3.1679389
0.4097647, -0.0162814, 3.483, 0.072937, 3.483, -0.9925537, 3.483, -0.2596436, 3.483, 0.7480916, 3.483, 0.6870229, 3.483, -3.2671757
0.4105588, -0.0191348, 3.48975, 0.0728149, 3.48975, -0.9943237, 3.48975, -0.258667, 3.48975, 0.9007633, 3.48975, 0.4580153, 3.48975, -3.3969467
0.4113529, -0.0223239, 3.4965, 0.0771484, 3.4965, -0.9922485, 3.4965, -0.2592773, 3.4965, 0.6793893, 3.4965, 0.4656489, 3.4965, -3.4198472
0.4121471, -0.0204776, 3.50325, 0.0755005, 3.50325, -0.9904785, 3.50325, -0.2565918, 3.50325, 0.8549618, 3.50325, 0.6030535, 3.50325, -3.2900763
0.4129412, -0.0182956, 3.51, 0.0767212, 3.51, -0.9905396, 3.51, -0.2590942, 3.51, 0.7938932, 3.51, 0.610687, 3.51, -3.1679389
0.4137353, -0.0146029, 3.51675, 0.0764771, 3.51675, -0.9932861, 3.51675, -0.2563477, 3.51675, 0.8396947, 3.51675, 0.740458, 3.51675, -3.2977099
0.4145294, -0.0146029, 3.5235, 0.0782471, 3.5235, -0.9935303, 3.5235, -0.2597656, 3.5235, 0.7938932, 3.5235, 0.8473282, 3.5235, -3.3435113
0.4153235, -0.0135958, 3.53025, 0.0784302, 3.53025, -0.9908447, 3.53025, -0.2597656, 3.53025, 0.908397, 3.53025, 1.0687023, 3.53025, -3.2137403
0.4161176, -0.0135958, 3.537, 0.0788574, 3.537, -0.9901733, 3.537, -0.2593384, 3.537, 0.7099237, 3.537, 1.1221374, 3.537, -3.2824428
0.4169118, -0.0137636, 3.54375, 0.078125, 3.54375, -0.9914551, 3.54375, -0.2613525, 3.54375, 0.9160305, 3.54375, 0.9160305, 3.54375, -3.2671757
0.4177059, -0.0119173, 3.5505, 0.0786133, 3.5505, -0.9906616, 3.5505, -0.2659302, 3.5505, 1.038168, 3.5505, 0.8931298, 3.5505, -3.3358779
0.4185, -0.0092317, 3.55725, 0.0744019, 3.55725, -0.9891357, 3.55725, -0.262085, 3.55725, 0.9389313, 3.55725, 1.0992366, 3.55725, -3.2366412
0.4192941, -0.0146029, 3.564, 0.076355, 3.564, -0.9905396, 3.564, -0.2611084, 3.564, 1, 3.564, 1.1908396, 3.564, -3.0763359
0.4200882, -0.0216526, 3.57075, 0.0780029, 3.57075, -0.9884033, 3.57075, -0.2637329, 3.57075, 1, 3.57075, 1.1755725, 3.57075, -3.0534351
0.4208824, -0.0182956, 3.5775, 0.0739136, 3.5775, -0.9907837, 3.5775, -0.2633057, 3.5775, 0.9541985, 3.5775, 1.1832061, 3.5775, -3.1603053
0.4216765, -0.0139315, 3.58425, 0.0766602, 3.58425, -0.9893188, 3.58425, -0.2600708, 3.58425, 0.9923664, 3.58425, 0.9923664, 3.58425, -3.0687022
0.4224706, -0.01561, 3.591, 0.0783081, 3.591, -0.9898071, 3.591, -0.2615967, 3.591, 1.1068702, 3.591, 0.8015267, 3.591, -3.1984732
0.4232647, -0.0125887, 3.59775, 0.0750732, 3.59775, -0.9909668, 3.59775, -0.2624512, 3.59775, 1.1374046, 3.59775, 0.8091603, 3.59775, -3.0687022
0.4240588, -0.0119173, 3.6045, 0.0774536, 3.6045, -0.9935303, 3.6045, -0.2620239, 3.6045, 1.1145039, 3.6045, 0.9312977, 3.6045, -3.1145039
0.4248529, -0.0087282, 3.61125, 0.0754395, 3.61125, -0.991272, 3.61125, -0.262146, 3.61125, 0.9847328, 3.61125, 0.7709923, 3.61125, -3.2137403
0.4256471, -0.0075532, 3.618, 0.0753784, 3.618, -0.9909058, 3.618, -0.2597656, 3.618, 1.0534351, 3.618, 1.0839695, 3.618, -3.1603053
0.4264412, -0.0083925, 3.62475, 0.0757446, 3.62475, -0.991394, 3.62475, -0.2611084, 3.62475, 1.0839695, 3.62475, 1.0076336, 3.62475, -3.0076337
0.4272353, -0.0105745, 3.6315, 0.0787964, 3.6315, -0.9916382, 3.6315, -0.2611694, 3.6315, 0.9770992, 3.6315, 1.0305344, 3.6315, -3.0687022
0.4280294, -0.0109102, 3.63825, 0.0758667, 3.63825, -0.9909668, 3.63825, -0.2599487, 3.63825, 0.870229, 3.63825, 1.0534351, 3.63825, -3.129771
0.4288235, -0.0119173, 3.645, 0.0748291, 3.645, -0.991272, 3.645, -0.2611084, 3.645, 1.0534351, 3.645, 0.8778626, 3.645, -2.8625953
0.4296176, -0.0115816, 3.65175, 0.0737305, 3.65175, -0.9900513, 3.65175, -0.262207, 3.65175, 1.1984733, 3.65175, 0.8931298, 3.65175, -3.1068702
0.4304118, -0.0137636, 3.6585, 0.0737915, 3.6585, -0.9927979, 3.6585, -0.2579346, 3.6585, 1.0992366, 3.6585, 0.7862595, 3.6585, -3.1374047
0.4312059, -0.0157778, 3.66525, 0.0715942, 3.66525, -0.9914551, 3.66525, -0.260376, 3.66525, 1.259542, 3.66525, 0.5725191, 3.66525, -3.3129771
0.432, -0.0135958, 3.672, 0.0732422, 3.672, -0.9922485, 3.672, -0.2591553, 3.672, 1.0992366, 3.672, 0.4961832, 3.672, -3.351145
0.4327941, -0.0149386, 3.67875, 0.0752563, 3.67875, -0.9900513, 3.67875, -0.2608643, 3.67875, 1.129771, 3.67875, 0.4961832, 3.67875, -3.2519083
0.4335882, -0.0176242, 3.6855, 0.0751343, 3.6855, -0.9909668, 3.6855, -0.2611084, 3.6855, 1.1068702, 3.6855, 0.5038168, 3.6855, -3.1526718
0.4343824, -0.0204776, 3.69225, 0.074585, 3.69225, -0.9875488, 3.69225, -0.2571411, 3.69225, 1.129771, 3.69225, 0.3969466, 3.69225, -3.2366412
0.4351765, -0.0198062, 3.699, 0.0731812, 3.699, -0.9892578, 3.699, -0.2554321, 3.699, 1.1908396, 3.699, 0.5267175, 3.699, -3.1603053
0.4359706, -0.0203098, 3.70575, 0.074646, 3.70575, -0.9910889, 3.70575, -0.2572632, 3.70575, 1.2977099, 3.70575, 0.5648855, 3.70575, -3.259542
0.4367647, -0.0203098, 3.7125, 0.0761719, 3.7125, -0.9902344, 3.7125, -0.258667, 3.7125, 1.1832061, 3.7125, 0.4961832, 3.7125, -3.2977099
0.4375588, -0.0186313, 3.71925, 0.0770264, 3.71925, -0.9923706, 3.71925, -0.2583008, 3.71925, 1.1526718, 3.71925, 0.5877863, 3.71925, -3.221374
0.4383529, -0.0162814, 3.726, 0.0775757, 3.726, -0.9915161, 3.726, -0.2583008, 3.726, 0.9465649, 3.726, 0.5877863, 3.726, -3.3129771
0.4391471, -0.0095674, 3.73275, 0.0740967, 3.73275, -0.9905396, 3.73275, -0.2578125, 3.73275, 0.7022901, 3.73275, 0.870229, 3.73275, -3.0992367
0.4399412, -0.0112459, 3.7395, 0.0759888, 3.7395, -0.9910889, 3.7395, -0.2557983, 3.7395, 0.6564885, 3.7395, 0.8625954, 3.7395, -3.1450381
0.4407353, -0.0102388, 3.74625, 0.0762939, 3.74625, -0.9893188, 3.74625, -0.2581177, 3.74625, 0.8091603, 3.74625, 0.8473282, 3.74625, -3.1908398
0.4415294, -0.014435, 3.753, 0.0747681, 3.753, -0.9945068, 3.753, -0.2608032, 3.753, 0.9541985, 3.753, 0.8778626, 3.753, -2.9923663
0.4423235, -0.0206455, 3.75975, 0.0756226, 3.75975, -0.9902344, 3.75975, -0.2625732, 3.75975, 0.8396947, 3.75975, 0.8091603, 3.75975, -3.1603053
0.4431176, -0.0194705, 3.7665, 0.072937, 3.7665, -0.993042, 3.7665, -0.2580566, 3.7665, 0.7938932, 3.7665, 0.519084, 3.7665, -3.4122138
0.4439118, -0.0193027, 3.77325, 0.0736694, 3.77325, -0.9907227, 3.77325, -0.258606, 3.77325, 0.8396947, 3.77325, 0.3664122, 3.77325, -3.3816793
0.4447059, -0.0196384, 3.78, 0.0736084, 3.78, -0.9893799, 3.78, -0.2617188, 3.78, 0.8167939, 3.78, 0.4503817, 3.78, -3.1908398
0.4455, -0.0186313, 3.78675, 0.076355, 3.78675, -0.9909668, 3.78675, -0.2585449, 3.78675, 0.9160305, 3.78675, 0.4427481, 3.78675, -3.4122138
0.4462941, -0.0203098, 3.7935, 0.0756836, 3.7935, -0.989624, 3.7935, -0.2601929, 3.7935, 1.1603054, 3.7935, 0.3587786, 3.7935, -3.5419848
0.4470882, -0.0182956, 3.80025, 0.0753174, 3.80025, -0.9935303, 3.80025, -0.2593994, 3.80025, 0.961832, 3.80025, 0.4580153, 3.80025, -3.4198472
0.4478824, -0.0166171, 3.807, 0.0753784, 3.807, -0.9916992, 3.807, -0.2570801, 3.807, 0.9465649, 3.807, 0.5572519, 3.807, -3.2900763
0.4486765, -0.0176242, 3.81375, 0.0769653, 3.81375, -0.9906616, 3.81375, -0.258728, 3.81375, 0.9007633, 3.81375, 0.648855, 3.81375, -3.3664122
0.4494706, -0.018967, 3.8205, 0.0772095, 3.8205, -0.993103, 3.8205, -0.2584839, 3.8205, 0.9694657, 3.8205, 0.5343512, 3.8205, -3.3206108
0.4502647, -0.018967, 3.82725, 0.0750732, 3.82725, -0.9910889, 3.82725, -0.2606201, 3.82725, 0.9236641, 3.82725, 0.6717557, 3.82725, -3.3587787
0.4510588, -0.0169528, 3.834, 0.0748291, 3.834, -0.991394, 3.834, -0.2623901, 3.834, 0.9923664, 3.834, 0.7251908, 3.834, -3.2671757
0.4518529, -0.0112459, 3.84075, 0.0778809, 3.84075, -0.9925537, 3.84075, -0.2620239, 3.84075, 0.9694657, 3.84075, 0.5954198, 3.84075, -3.2671757
0.4526471, -0.0112459, 3.8475, 0.0751343, 3.8475, -0.9949341, 3.8475, -0.2601929, 3.8475, 1.0152671, 3.8475, 0.7480916, 3.8475, -3.1526718
0.4534412, -0.0119173, 3.85425, 0.0767822, 3.85425, -0.9899292, 3.85425, -0.2606812, 3.85425, 1.1603054, 3.85425, 0.870229, 3.85425, -3.1526718
0.4542353, -0.010071, 3.861, 0.0792847, 3.861, -0.9890747, 3.861, -0.2640381, 3.861, 1.0458015, 3.861, 0.7709923, 3.861, -3.1374047
0.4550294, -0.0095674, 3.86775, 0.0754395, 3.86775, -0.9906616, 3.86775, -0.2584839, 3.86775, 0.9312977, 3.86775, 0.7557252, 3.86775, -3.1908398
0.4558235, -0.012253, 3.8745, 0.0737915, 3.8745, -0.993103, 3.8745, -0.2612915, 3.8745, 1.0610687, 3.8745, 0.778626, 3.8745, -3.1832061
0.4566176, -0.0142672, 3.88125, 0.0774536, 3.88125, -0.9920044, 3.88125, -0.2597656, 3.88125, 0.9694657, 3.88125, 0.9236641, 3.88125, -2.9923663
0.4574118, -0.0132601, 3.888, 0.0743408, 3.888, -0.989502, 3.888, -0.2579956, 3.888, 0.8549618, 3.888, 0.908397, 3.888, -3.0992367
0.4582059, -0.0132601, 3.89475, 0.0775146, 3.89475, -0.9907227, 3.89475, -0.2565918, 3.89475, 0.9847328, 3.89475, 0.9312977, 3.89475, -3.091603
0.459, -0.0162814, 3.9015, 0.0767822, 3.9015, -0.9924927, 3.9015, -0.2589111, 3.9015, 1.1450381, 3.9015, 0.6946565, 3.9015, -3.038168
0.4597941, -0.0137636, 3.90825, 0.0773926, 3.90825, -0.9927368, 3.90825, -0.258728, 3.90825, 1.1145039, 3.90825, 0.7862595, 3.90825, -3.1832061
0.4605882, -0.0164492, 3.915, 0.0758057, 3.915, -0.991272, 3.915, -0.2563477, 3.915, 0.9465649, 3.915, 0.6870229, 3.915, -3.2824428
0.4613824, -0.0263523, 3.92175, 0.074646, 3.92175, -0.9920044, 3.92175, -0.2578125, 3.92175, 1.0839695, 3.92175, 0.8244275, 3.92175, -3.2366412
0.4621765, -0.0209812, 3.9285, 0.0765381, 3.9285, -0.9934082, 3.9285, -0.2628174, 3.9285, 1.2442749, 3.9285, 0.7099237, 3.9285, -3.1603053
0.4629706, -0.0194705, 3.93525, 0.081665, 3.93525, -0.9910889, 3.93525, -0.2610474, 3.93525, 1.0458015, 3.93525, 0.8091603, 3.93525, -3.351145
0.4637647, -0.023331, 3.942, 0.0776978, 3.942, -0.9901733, 3.942, -0.2564087, 3.942, 1.0610687, 3.942, 0.6259542, 3.942, -3.2442749
0.4645588, -0.0283665, 3.94875, 0.0755615, 3.94875, -0.9902344, 3.94875, -0.2649536, 3.94875, 0.961832, 3.94875, 0.740458, 3.94875, -3.3053436
0.4653529, -0.0221561, 3.9555, 0.0734863, 3.9555, -0.991394, 3.9555, -0.2597046, 3.9555, 0.8625954, 3.9555, 0.6564885, 3.9555, -3.3587787
0.4661471, -0.01561, 3.96225, 0.0737305, 3.96225, -0.9916992, 3.96225, -0.2580566, 3.96225, 0.8854962, 3.96225, 0.778626, 3.96225, -3.129771
0.4669412, -0.0142672, 3.969, 0.074585, 3.969, -0.9945068, 3.969, -0.2559204, 3.969, 0.8091603, 3.969, 0.9694657, 3.969, -3.1145039
0.4677353, -0.0095674, 3.97575, 0.0772705, 3.97575, -0.9928589, 3.97575, -0.2585449, 3.97575, 1.0305344, 3.97575, 1.0610687, 3.97575, -3.1526718
0.4685294, -0.0203098, 3.9825, 0.0783691, 3.9825, -0.9923096, 3.9825, -0.2571411, 3.9825, 0.9007633, 3.9825, 1.2519084, 3.9825, -3.1832061
0.4693235, -0.0323949, 3.98925, 0.0769043, 3.98925, -0.9935913, 3.98925, -0.2599487, 3.98925, 1.091603, 3.98925, 1.4045801, 3.98925, -3.1984732
0.4701176, -0.0288701, 3.996, 0.0757446, 3.996, -0.9931641, 3.996, -0.2617188, 3.996, 1.1908396, 3.996, 1.1374046, 3.996, -3.1679389
0.4709118, -0.0206455, 4.00275, 0.0756226, 4.00275, -0.9894409, 4.00275, -0.2589111, 4.00275, 1.0687023, 4.00275, 1.0229008, 4.00275, -3.0839694
0.4717059, -0.0216526, 4.0095, 0.0728149, 4.0095, -0.9919434, 4.0095, -0.2593994, 4.0095, 0.9541985, 4.0095, 1.0763359, 4.0095, -3.0763359
0.4725, -0.0169528, 4.01625, 0.0753174, 4.01625, -0.9896851, 4.01625, -0.258667, 4.01625, 1.0534351, 4.01625, 0.9160305, 4.01625, -3.129771
0.4732941, -0.008896, 4.023, 0.0758057, 4.023, -0.9898071, 4.023, -0.2587891, 4.023, 1.091603, 4.023, 0.6641222, 4.023, -2.9770992
0.4740882, -0.0075532, 4.02975, 0.0769653, 4.02975, -0.9915771, 4.02975, -0.2575684, 4.02975, 1.0152671, 4.02975, 0.8091603, 4.02975, -3.1832061
0.4748824, -0.0092317, 4.0365, 0.0744019, 4.0365, -0.9901123, 4.0365, -0.2566528, 4.0365, 1.1221374, 4.0365, 0.8473282, 4.0365, -3.1068702
0.4756765, -0.012253, 4.04325, 0.0740356, 4.04325, -0.9914551, 4.04325, -0.2628174, 4.04325, 1.0763359, 4.04325, 0.8396947, 4.04325, -3.2061069
0.4764706, -0.0142672, 4.05, 0.0731812, 4.05, -0.9904785, 4.05, -0.2609253, 4.05, 1.038168, 4.05, 0.9007633, 4.05, -3.3358779
0.4772647, -0.0162814, 4.05675, 0.0755005, 4.05675, -0.9903564, 4.05675, -0.2597656, 4.05675, 1.2748091, 4.05675, 0.6412213, 4.05675, -3.1450381
0.4780588, -0.0169528, 4.0635, 0.0759888, 4.0635, -0.9904785, 4.0635, -0.2573242, 4.0635, 0.9847328, 4.0635, 0.5954198, 4.0635, -3.259542
0.4788529, -0.0176242, 4.07025, 0.0774536, 4.07025, -0.9924927, 4.07025, -0.2580566, 4.07025, 1.1526718, 4.07025, 0.6564885, 4.07025, -3.1679389
0.4796471, -0.0149386, 4.077, 0.0761108, 4.077, -0.9910278, 4.077, -0.2579956, 4.077, 1.1832061, 4.077, 0.7099237, 4.077, -3.1603053
0.4804412, -0.0162814, 4.08375, 0.0743408, 4.08375, -0.9904175, 4.08375, -0.2587891, 4.08375, 1.0839695, 4.08375, 0.9770992, 4.08375, -3.1832061
0.4812353, -0.018967, 4.0905, 0.0800781, 4.0905, -0.9937744, 4.0905, -0.2592163, 4.0905, 1.3969465, 4.0905, 0.8549618, 4.0905, -3.0992367
0.4820294, -0.0213169, 4.09725, 0.0769653, 4.09725, -0.9933472, 4.09725, -0.2578735, 4.09725, 1.4274809, 4.09725, 0.7938932, 4.09725, -3.0992367
0.4828235, -0.0193027, 4.104, 0.0766602, 4.104, -0.991333, 4.104, -0.260437, 4.104, 1.2977099, 4.104, 0.7709923, 4.104, -3.0534351
0.4836176, -0.0176242, 4.11075, 0.0741577, 4.11075, -0.9907227, 4.11075, -0.2606812, 4.11075, 1.3664122, 4.11075, 0.7251908, 4.11075, -3.0229008
0.4844118, -0.0184634, 4.1175, 0.0726929, 4.1175, -0.9921875, 4.1175, -0.2612915, 4.1175, 1.3816794, 4.1175, 0.6793893, 4.1175, -3.0305343
0.4852059, -0.0162814, 4.12425, 0.0759277, 4.12425, -0.9916382, 4.12425, -0.256958, 4.12425, 1.389313, 4.12425, 0.6946565, 4.12425, -3.1450381
0.486, -0.0137636, 4.131, 0.0755615, 4.131, -0.9912109, 4.131, -0.2585449, 4.131, 1.0992366, 4.131, 0.7328244, 4.131, -3.0687022
0.4867941, -0.0104067, 4.13775, 0.0756836, 4.13775, -0.9906006, 4.13775, -0.2608032, 4.13775, 1.2442749, 4.13775, 0.8015267, 4.13775, -3.0152671
0.4875882, -0.0099031, 4.1445, 0.0775146, 4.1445, -0.9889526, 4.1445, -0.2602539, 4.1445, 1.1984733, 4.1445, 0.9923664, 4.1445, -3.1755726
0.4883824, -0.008896, 4.15125, 0.0784302, 4.15125, -0.9907227, 4.15125, -0.2584839, 4.15125, 1.1068702, 4.15125, 1.1068702, 4.15125, -2.908397
0.4891765, -0.0062104, 4.158, 0.0760498, 4.158, -0.993042, 4.158, -0.2574463, 4.158, 1.3129771, 4.158, 1.221374, 4.158, -3.0610688
0.4899706, -0.0035248, 4.16475, 0.0731201, 4.16475, -0.9946899, 4.16475, -0.2572632, 4.16475, 1.0839695, 4.16475, 1.0992366, 4.16475, -2.9465649
0.4907647, -0.0028534, 4.1715, 0.0742188, 4.1715, -0.9920654, 4.1715, -0.2592163, 4.1715, 1.2366412, 4.1715, 1.3435115, 4.1715, -3.0076337
0.4915588, -0.0104067, 4.17825, 0.0733032, 4.17825, -0.9886475, 4.17825, -0.2594604, 4.17825, 1.1145039, 4.17825, 0.9007633, 4.17825, -3.1679389
0.4923529, -0.0135958, 4.185, 0.0743408, 4.185, -0.9891357, 4.185, -0.2559204, 4.185, 1.3587786, 4.185, 0.6793893, 4.185, -3.1450381
0.4931471, -0.0107424, 4.19175, 0.0740356, 4.19175, -0.9909668, 4.19175, -0.2579956, 4.19175, 1.1145039, 4.19175, 0.4580153, 4.19175, -2.9770992
0.4939412, -0.0135958, 4.1985, 0.0749512, 4.1985, -0.9884033, 4.1985, -0.2595215, 4.1985, 1.1603054, 4.1985, 0.6564885, 4.1985, -3
0.4947353, -0.0149386, 4.20525, 0.0786133, 4.20525, -0.9890137, 4.20525, -0.260376, 4.20525, 1.1450381, 4.20525, 0.7633588, 4.20525, -3.2900763
0.4955294, -0.0176242, 4.212, 0.0750732, 4.212, -0.9897461, 4.212, -0.2566528, 4.212, 1.0458015, 4.212, 0.6259542, 4.212, -3.1908398
0.4963235, -0.0152743, 4.21875, 0.0767212, 4.21875, -0.9932861, 4.21875, -0.2584839, 4.21875, 1.038168, 4.21875, 0.6564885, 4.21875, -3.0839694
0.4971176, -0.0109102, 4.2255, 0.0800171, 4.2255, -0.9945068, 4.2255, -0.2561035, 4.2255, 0.961832, 4.2255, 0.7175573, 4.2255, -2.8931298
0.4979118, -0.012253, 4.23225, 0.0758667, 4.23225, -0.9942017, 4.23225, -0.2553101, 4.23225, 1.1221374, 4.23225, 0.8167939, 4.23225, -3.1603053
0.4987059, -0.0130922, 4.239, 0.0769653, 4.239, -0.9924316, 4.239, -0.2573242, 4.239, 1.0076336, 4.239, 1.0458015, 4.239, -3.0763359
0.4995, -0.0112459, 4.24575, 0.0751953, 4.24575, -0.9915771, 4.24575, -0.2570801, 4.24575, 1.2519084, 4.24575, 0.9847328, 4.24575, -3.0229008
0.5002941, -0.0109102, 4.2525, 0.0764771, 4.2525, -0.9907227, 4.2525, -0.2603149, 4.2525, 1.1374046, 4.2525, 1.129771, 4.2525, -2.9770992
0.5010882, -0.0109102, 4.25925, 0.0760498, 4.25925, -0.991394, 4.25925, -0.260498, 4.25925, 1.3435115, 4.25925, 0.9160305, 4.25925, -3.1984732
0.5018824, -0.0092317, 4.266, 0.0748291, 4.266, -0.9910889, 4.266, -0.2584229, 4.266, 1.2290076, 4.266, 0.8473282, 4.266, -3.0687022
0.5026765, -0.0068818, 4.27275, 0.0761108, 4.27275, -0.9909668, 4.27275, -0.2564697, 4.27275, 1.3664122, 4.27275, 0.8320611, 4.27275, -3.038168
0.5034706, -0.0082246, 4.2795, 0.0743408, 4.2795, -0.9907837, 4.2795, -0.2566528, 4.2795, 1.351145, 4.2795, 0.6412213, 4.2795, -3.038168
0.5042647, -0.0099031, 4.28625, 0.0725098, 4.28625, -0.993103, 4.28625, -0.2606812, 4.28625, 1.2442749, 4.28625, 0.7099237, 4.28625, -3.0458016
0.5050588, -0.0095674, 4.293, 0.0720825, 4.293, -0.9929199, 4.293, -0.2572021, 4.293, 0.9160305, 4.293, 0.4732825, 4.293, -3.0992367
0.5058529, -0.0112459, 4.29975, 0.0730591, 4.29975, -0.9932251, 4.29975, -0.2584229, 4.29975, 1.1068702, 4.29975, 0.6183206, 4.29975, -3.1679389
0.5066471, -0.0075532, 4.3065, 0.0710449, 4.3065, -0.9943237, 4.3065, -0.2554932, 4.3065, 0.9389313, 4.3065, 0.7175573, 4.3065, -3.1145039
0.5074412, -0.0062104, 4.31325, 0.0708618, 4.31325, -0.993042, 4.31325, -0.2563477, 4.31325, 1.0534351, 4.31325, 0.5725191, 4.31325, -3.1374047
0.5082353, -0.011078, 4.32, 0.0712891, 4.32, -0.9911499, 4.32, -0.2541504, 4.32, 1.038168, 4.32, 0.6259542, 4.32, -3.1603053
0.5090294, -0.0129244, 4.32675, 0.0723877, 4.32675, -0.9926147, 4.32675, -0.2548218, 4.32675, 1.1832061, 4.32675, 0.6641222, 4.32675, -3.2977099
0.5098235, -0.0135958, 4.3335, 0.0734863, 4.3335, -0.9915771, 4.3335, -0.2580566, 4.3335, 1.0152671, 4.3335, 0.6183206, 4.3335, -3.2824428
0.5106176, -0.0132601, 4.34025, 0.0744019, 4.34025, -0.991333, 4.34025, -0.255249, 4.34025, 1.1374046, 4.34025, 0.5572519, 4.34025, -3.351145
0.5114118, -0.01561, 4.347, 0.0730591, 4.347, -0.9921875, 4.347, -0.2562866, 4.347, 1.1068702, 4.347, 0.5877863, 4.347, -3.1145039
0.5122059, -0.0194705, 4.35375, 0.0733643, 4.35375, -0.9949951, 4.35375, -0.2582397, 4.35375, 1.1221374, 4.35375, 0.5572519, 4.35375, -3.2671757
0.513, -0.0219883, 4.3605, 0.0749512, 4.3605, -0.9934692, 4.3605, -0.2572021, 4.3605, 1.2061069, 4.3605, 0.7251908, 4.3605, -3.1603053
0.5137941, -0.0209812, 4.36725, 0.0755005, 4.36725, -0.9910278, 4.36725, -0.2592773, 4.36725, 1.091603, 4.36725, 0.6793893, 4.36725, -3.2366412
0.5145882, -0.0193027, 4.374, 0.0766602, 4.374, -0.9876099, 4.374, -0.2577515, 4.374, 1.091603, 4.374, 0.5877863, 4.374, -3.1068702
0.5153824, -0.0216526, 4.38075, 0.0762329, 4.38075, -0.9906616, 4.38075, -0.2572632, 4.38075, 1.0229008, 4.38075, 0.5648855, 4.38075, -3.0763359
0.5161765, -0.018967, 4.3875, 0.0762939, 4.3875, -0.992981, 4.3875, -0.2571411, 4.3875, 1.1145039, 4.3875, 0.648855, 4.3875, -3.2748091
0.5169706, -0.01561, 4.39425, 0.0784912, 4.39425, -0.9906616, 4.39425, -0.2620239, 4.39425, 1.2900764, 4.39425, 0.740458, 4.39425, -3.1526718
0.5177647, -0.0142672, 4.401, 0.0805664, 4.401, -0.9926758, 4.401, -0.258728, 4.401, 1.259542, 4.401, 0.8549618, 4.401, -3.1145039
0.5185588, -0.0162814, 4.40775, 0.0778809, 4.40775, -0.9901123, 4.40775, -0.260376, 4.40775, 1.4274809, 4.40775, 1.0992366, 4.40775, -2.9847329
0.5193529, -0.0186313, 4.4145, 0.0765381, 4.4145, -0.9939575, 4.4145, -0.2575684, 4.4145, 1.1832061, 4.4145, 0.8931298, 4.4145, -3.0687022
0.5201471, -0.0182956, 4.42125, 0.0745239, 4.42125, -0.9875488, 4.42125, -0.2611084, 4.42125, 1.221374, 4.42125, 0.8091603, 4.42125, -3.0763359
0.5209412, -0.017792, 4.428, 0.0720215, 4.428, -0.9904175, 4.428, -0.2605591, 4.428, 1.351145, 4.428, 0.740458, 4.428, -3
0.5217353, -0.0176242, 4.43475, 0.0751953, 4.43475, -0.9935913, 4.43475, -0.2583618, 4.43475, 1.1145039, 4.43475, 0.7175573, 4.43475, -3.0992367
0.5225294, -0.0166171, 4.4415, 0.0745239, 4.4415, -0.9932861, 4.4415, -0.2546997, 4.4415, 1.3053435, 4.4415, 0.740458, 4.4415, -3.0839694
0.5233235, -0.0146029, 4.44825, 0.0741577, 4.44825, -0.9909058, 4.44825, -0.2573242, 4.44825, 1.2824427, 4.44825, 0.7328244, 4.44825, -3.3206108
0.5241176, -0.0167849, 4.455, 0.0748291, 4.455, -0.9943848, 4.455, -0.2575073, 4.455, 1.4656489, 4.455, 0.6412213, 4.455, -3.129771
0.5249118, -0.018967, 4.46175, 0.0739136, 4.46175, -0.9945679, 4.46175, -0.2561646, 4.46175, 1.4503816, 4.46175, 0.5877863, 4.46175, -3.0152671
0.5257059, -0.0206455, 4.4685, 0.0758667, 4.4685, -0.9940796, 4.4685, -0.2573242, 4.4685, 1.4122137, 4.4685, 0.5343512, 4.4685, -3.0687022
0.5265, -0.0219883, 4.47525, 0.0766602, 4.47525, -0.9933472, 4.47525, -0.2580566, 4.47525, 1.0992366, 4.47525, 0.7251908, 4.47525, -2.908397
0.5272941, -0.0209812, 4.482, 0.0762329, 4.482, -0.9921265, 4.482, -0.2566528, 4.482, 1.221374, 4.482, 0.7709923, 4.482, -2.9847329
0.5280882, -0.0196384, 4.48875, 0.0771484, 4.48875, -0.9946899, 4.48875, -0.2558594, 4.48875, 1.2442749, 4.48875, 0.7557252, 4.48875, -3.2061069
0.5288824, -0.0203098, 4.4955, 0.074707, 4.4955, -0.9893799, 4.4955, -0.2595215, 4.4955, 1.1374046, 4.4955, 0.8091603, 4.4955, -3.0763359
0.5296765, -0.0253452, 4.50225, 0.0726318, 4.50225, -0.9897461, 4.50225, -0.2583618, 4.50225, 0.9541985, 4.50225, 0.7633588, 4.50225, -3.2290077
0.5304706, -0.0283665, 4.509, 0.0701904, 4.509, -0.9910889, 4.509, -0.2572021, 4.509, 0.8091603, 4.509, 0.6412213, 4.509, -3.1832061
0.5312647, -0.0297093, 4.51575, 0.0714111, 4.51575, -0.9912109, 4.51575, -0.2575684, 4.51575, 0.6717557, 4.51575, 0.6641222, 4.51575, -3.1068702
0.5320588, -0.0240024, 4.5225, 0.0739136, 4.5225, -0.9925537, 4.5225, -0.2562256, 4.5225, 0.7938932, 4.5225, 0.7633588, 4.5225, -3.0534351
0.5328529, -0.0176242, 4.52925, 0.0742798, 4.52925, -0.991394, 4.52925, -0.2555542, 4.52925, 0.6946565, 4.52925, 0.8244275, 4.52925, -3.3969467
0.5336471, -0.0166171, 4.536, 0.074585, 4.536, -0.9915771, 4.536, -0.2531128, 4.536, 0.7480916, 4.536, 0.6946565, 4.536, -3.3435113
0.5344412, -0.0203098, 4.54275, 0.0751953, 4.54275, -0.989563, 4.54275, -0.2537231, 4.54275, 0.870229, 4.54275, 0.6870229, 4.54275, -3.259542
0.5352353, -0.0124208, 4.5495, 0.0755005, 4.5495, -0.9887085, 4.5495, -0.2507324, 4.5495, 0.7022901, 4.5495, 0.6870229, 4.5495, -3.2290077
0.5360294, -0.0102388, 4.55625, 0.0738525, 4.55625, -0.9907227, 4.55625, -0.2515869, 4.55625, 0.7862595, 4.55625, 1, 4.55625, -3.1755726
0.5368235, -0.0149386, 4.563, 0.0755005, 4.563, -0.9870605, 4.563, -0.2556152, 4.563, 0.7175573, 4.563, 0.9541985, 4.563, -3.2977099
0.5376176, -0.0182956, 4.56975, 0.0752563, 4.56975, -0.9885254, 4.56975, -0.255127, 4.56975, 0.8549618, 4.56975, 0.8549618, 4.56975, -3.389313
0.5384118, -0.0171206, 4.5765, 0.0762329, 4.5765, -0.9907227, 4.5765, -0.2554932, 4.5765, 0.7709923, 4.5765, 0.8244275, 4.5765, -3.2824428
0.5392059, -0.0149386, 4.58325, 0.0738525, 4.58325, -0.9924316, 4.58325, -0.2578125, 4.58325, 0.8473282, 4.58325, 0.5267175, 4.58325, -3.3129771
0.54, -0.0137636, 4.59, 0.0730591, 4.59, -0.992981, 4.59, -0.2590332, 4.59, 0.9160305, 4.59, 0.648855, 4.59, -3.221374
0.5407941, -0.0127565, 4.59675, 0.0752563, 4.59675, -0.9921875, 4.59675, -0.2593994, 4.59675, 0.908397, 4.59675, 0.5572519, 4.59675, -3.3053436
0.5415882, -0.0157778, 4.6035, 0.0758057, 4.6035, -0.9944458, 4.6035, -0.2572021, 4.6035, 0.7633588, 4.6035, 0.4274809, 4.6035, -3.3587787
0.5423824, -0.0179599, 4.61025, 0.0743408, 4.61025, -0.9919434, 4.61025, -0.2597656, 4.61025, 0.7862595, 4.61025, 0.519084, 4.61025, -3.4503818
0.5431765, -0.0169528, 4.617, 0.0765991, 4.617, -0.9903564, 4.617, -0.260437, 4.617, 0.908397, 4.617, 0.519084, 4.617, -3.351145
0.5439706, -0.0162814, 4.62375, 0.0739746, 4.62375, -0.9928589, 4.62375, -0.2587891, 4.62375, 1.038168, 4.62375, 0.519084, 4.62375, -3.3206108
0.5447647, -0.014435, 4.6305, 0.0765381, 4.6305, -0.9899902, 4.6305, -0.2571411, 4.6305, 0.9007633, 4.6305, 0.610687, 4.6305, -3.2290077
0.5455588, -0.0162814, 4.63725, 0.0796509, 4.63725, -0.9901733, 4.63725, -0.2553711, 4.63725, 0.8625954, 4.63725, 0.5114504, 4.63725, -3.1450381
0.5463529, -0.0216526, 4.644, 0.0767822, 4.644, -0.993042, 4.644, -0.255127, 4.644, 0.908397, 4.644, 0.5877863, 4.644, -3.3053436
0.5471471, -0.0229953, 4.65075, 0.0740967, 4.65075, -0.9912109, 4.65075, -0.2553711, 4.65075, 0.8396947, 4.65075, 0.6183206, 4.65075, -3.2366412
0.5479412, -0.01561, 4.6575, 0.0740356, 4.6575, -0.9933472, 4.6575, -0.2546997, 4.6575, 0.8015267, 4.6575, 0.6870229, 4.6575, -3.0992367
0.5487353, -0.0135958, 4.66425, 0.0764771, 4.66425, -0.9905396, 4.66425, -0.2579346, 4.66425, 1.1068702, 4.66425, 0.7633588, 4.66425, -3.2137403
0.5495294, -0.0149386, 4.671, 0.0761108, 4.671, -0.9927368, 4.671, -0.2556152, 4.671, 0.8625954, 4.671, 0.870229, 4.671, -3.091603
0.5503235, -0.0166171, 4.67775, 0.0762329, 4.67775, -0.9904785, 4.67775, -0.2576904, 4.67775, 0.7175573, 4.67775, 0.6335878, 4.67775, -3.2748091
0.5511176, -0.0182956, 4.6845, 0.0758057, 4.6845, -0.9925537, 4.6845, -0.2553711, 4.6845, 1.038168, 4.6845, 0.6717557, 4.6845, -3.3206108
0.5519118, -0.0203098, 4.69125, 0.074707, 4.69125, -0.9918823, 4.69125, -0.2562866, 4.69125, 1.1984733, 4.69125, 0.7175573, 4.69125, -3.1832061
0.5527059, -0.0201419, 4.698, 0.0753784, 4.698, -0.9927368, 4.698, -0.2578125, 4.698, 1.2061069, 4.698, 0.648855, 4.698, -3.2366412
0.5535, -0.0182956, 4.70475, 0.0778809, 4.70475, -0.9929199, 4.70475, -0.2567749, 4.70475, 1.1374046, 4.70475, 0.6335878, 4.70475, -3.3740458
0.5542941, -0.0157778, 4.7115, 0.0772705, 4.7115, -0.9915161, 4.7115, -0.2564697, 4.7115, 1.1145039, 4.7115, 0.8091603, 4.7115, -3.1832061
0.5550882, -0.0135958, 4.71825, 0.0751953, 4.71825, -0.9925537, 4.71825, -0.2559814, 4.71825, 1.2366412, 4.71825, 0.6870229, 4.71825, -3.4503818
0.5558824, -0.0117494, 4.725, 0.0765991, 4.725, -0.991272, 4.725, -0.2556152, 4.725, 1.1984733, 4.725, 0.6946565, 4.725, -3.2137403
0.5566765, -0.008896, 4.73175, 0.0773315, 4.73175, -0.9905396, 4.73175, -0.2554321, 4.73175, 1.2137405, 4.73175, 0.6259542, 4.73175, -3.2671757
0.5574706, -0.0109102, 4.7385, 0.0768433, 4.7385, -0.9926758, 4.7385, -0.2565308, 4.7385, 1.0534351, 4.7385, 0.6335878, 4.7385, -3.1526718
0.5582647, -0.0097353, 4.74525, 0.0759277, 4.74525, -0.9915771, 4.74525, -0.258728, 4.74525, 0.8015267, 4.74525, 0.7099237, 4.74525, -3.1984732
0.5590588, -0.0095674, 4.752, 0.0740356, 4.752, -0.9924316, 4.752, -0.2557373, 4.752, 0.8396947, 4.752, 0.5648855, 4.752, -3.2748091
0.5598529, -0.0104067, 4.75875, 0.0778809, 4.75875, -0.9902344, 4.75875, -0.2545776, 4.75875, 0.9541985, 4.75875, 0.6335878, 4.75875, -3.2442749
0.5606471, -0.0104067, 4.7655, 0.0793457, 4.7655, -0.9900513, 4.7655, -0.2570801, 4.7655, 1.1450381, 4.7655, 0.870229, 4.7655, -3.3358779
0.5614412, -0.0090639, 4.77225, 0.0785522, 4.77225, -0.9915161, 4.77225, -0.2580566, 4.77225, 1.1526718, 4.77225, 1.1374046, 4.77225, -3.2519083
0.5622353, -0.0068818, 4.779, 0.0770264, 4.779, -0.9918213, 4.779, -0.2595825, 4.779, 0.9770992, 4.779, 0.908397, 4.779, -3.2137403
0.5630294, -0.0095674, 4.78575, 0.0737305, 4.78575, -0.9915771, 4.78575, -0.255188, 4.78575, 0.6870229, 4.78575, 1.1374046, 4.78575, -3.0992367
0.5638235, -0.0095674, 4.7925, 0.0734253, 4.7925, -0.9882812, 4.7925, -0.2557983, 4.7925, 0.6870229, 4.7925, 1.0763359, 4.7925, -3.3206108
0.5646176, -0.0082246, 4.79925, 0.0737305, 4.79925, -0.9903564, 4.79925, -0.2556152, 4.79925, 0.5038168, 4.79925, 1.0458015, 4.79925, -3.3053436
0.5654118, -0.0115816, 4.806, 0.0728149, 4.806, -0.9926758, 4.806, -0.2557983, 4.806, 0.6564885, 4.806, 0.9160305, 4.806, -3.3129771
0.5662059, -0.0095674, 4.81275, 0.0723877, 4.81275, -0.9936523, 4.81275, -0.2546997, 4.81275, 0.6793893, 4.81275, 0.8473282, 4.81275, -3.1679389
0.567, -0.0109102, 4.8195, 0.0757446, 4.8195, -0.993103, 4.8195, -0.2563477, 4.8195, 0.5725191, 4.8195, 0.8854962, 4.8195, -3.3129771
0.5677941, -0.0129244, 4.82625, 0.076355, 4.82625, -0.9958496, 4.82625, -0.2582397, 4.82625, 0.8549618, 4.82625, 0.9694657, 4.82625, -3.1450381
0.5685882, -0.0109102, 4.833, 0.0787964, 4.833, -0.9960938, 4.833, -0.2629395, 4.833, 0.778626, 4.833, 1.0152671, 4.833, -3.1679389
0.5693824, -0.0095674, 4.83975, 0.0779419, 4.83975, -0.9971313, 4.83975, -0.2611084, 4.83975, 0.8854962, 4.83975, 0.9694657, 4.83975, -3.0152671
0.5701765, -0.0090639, 4.8465, 0.0794678, 4.8465, -0.9981079, 4.8465, -0.2637329, 4.8465, 0.9770992, 4.8465, 1.0229008, 4.8465, -3.0992367
0.5709706, -0.012253, 4.85325, 0.0784912, 4.85325, -0.9966431, 4.85325, -0.2666626, 4.85325, 0.8473282, 4.85325, 0.7328244, 4.85325, -3.3282442
0.5717647, -0.0162814, 4.86, 0.0758667, 4.86, -0.9968872, 4.86, -0.2655029, 4.86, 0.7633588, 4.86, 1.091603, 4.86, -3.1832061
0.5725588, -0.0146029, 4.86675, 0.0727539, 4.86675, -0.9887085, 4.86675, -0.2608032, 4.86675, 0.8015267, 4.86675, 1.0076336, 4.86675, -3.0992367
0.5733529, -0.0129244, 4.8735, 0.0749512, 4.8735, -0.9901733, 4.8735, -0.2572021, 4.8735, 0.8244275, 4.8735, 0.5648855, 4.8735, -3.0076337
0.5741471, -0.0119173, 4.88025, 0.0770874, 4.88025, -0.9903564, 4.88025, -0.2562866, 4.88025, 0.9694657, 4.88025, 0.5114504, 4.88025, -3.0763359
0.5749412, -0.0125887, 4.887, 0.0738525, 4.887, -0.9884644, 4.887, -0.2523804, 4.887, 0.8244275, 4.887, 0.3740458, 4.887, -3.2290077
0.5757353, -0.0152743, 4.89375, 0.0742188, 4.89375, -0.9918823, 4.89375, -0.2515259, 4.89375, 1.1603054, 4.89375, 0.6183206, 4.89375, -3.2290077
0.5765294, -0.0159457, 4.9005, 0.0744629, 4.9005, -0.9907837, 4.9005, -0.2518921, 4.9005, 1.038168, 4.9005, 0.7022901, 4.9005, -3.2290077
0.5773235, -0.0129244, 4.90725, 0.071106, 4.90725, -0.986084, 4.90725, -0.2541504, 4.90725, 1.1755725, 4.90725, 0.9312977, 4.90725, -3.1145039
0.5781176, -0.0176242, 4.914, 0.0731201, 4.914, -0.9880371, 4.914, -0.2543335, 4.914, 1.0458015, 4.914, 1.0610687, 4.914, -3.129771
0.5789118, -0.0203098, 4.92075, 0.0730591, 4.92075, -0.9916992, 4.92075, -0.255127, 4.92075, 0.8244275, 4.92075, 1.1450381, 4.92075, -3.1068702
0.5797059, -0.0243381, 4.9275, 0.0728149, 4.9275, -0.9899902, 4.9275, -0.2529907, 4.9275, 0.9847328, 4.9275, 1.1984733, 4.9275, -3.1145039
0.5805, -0.0260166, 4.93425, 0.0726318, 4.93425, -0.9908447, 4.93425, -0.2576294, 4.93425, 1, 4.93425, 0.9770992, 4.93425, -3.1832061
0.5812941, -0.0283665, 4.941, 0.0714111, 4.941, -0.9901733, 4.941, -0.2576294, 4.941, 1.0992366, 4.941, 0.7480916, 4.941, -3.3740458
0.5820882, -0.0248417, 4.94775, 0.0735474, 4.94775, -0.9925537, 4.94775, -0.2581787, 4.94775, 1.3053435, 4.94775, 0.5343512, 4.94775, -3.1908398
0.5828824, -0.0251774, 4.9545, 0.0747681, 4.9545, -0.9926758, 4.9545, -0.2605591, 4.9545, 1.1679389, 4.9545, 0.5648855, 4.9545, -3.2900763
0.5836765, -0.0248417, 4.96125, 0.0749512, 4.96125, -0.993042, 4.96125, -0.260437, 4.96125, 1.1221374, 4.96125, 0.3358779, 4.96125, -3.3435113
0.5844706, -0.0223239, 4.968, 0.0779419, 4.968, -0.9929199, 4.968, -0.2608032, 4.968, 1.2671756, 4.968, 0.4885496, 4.968, -3.1755726
0.5852647, -0.0204776, 4.97475, 0.0792236, 4.97475, -0.9906006, 4.97475, -0.2625732, 4.97475, 1.1068702, 4.97475, 0.7022901, 4.97475, -3.2519083
0.5860588, -0.0209812, 4.9815, 0.0777588, 4.9815, -0.9943848, 4.9815, -0.2637329, 4.9815, 1.1374046, 4.9815, 0.8091603, 4.9815, -3.0992367
0.5868529, -0.0182956, 4.98825, 0.0762939, 4.98825, -0.9933472, 4.98825, -0.2601318, 4.98825, 1.0992366, 4.98825, 0.740458, 4.98825, -3.0534351
0.5876471, -0.0142672, 4.995, 0.0797729, 4.995, -0.9934082, 4.995, -0.255127, 4.995, 1.4122137, 4.995, 0.5419847, 4.995, -3.1526718
0.5884412, -0.0112459, 5.00175, 0.0772705, 5.00175, -0.9900513, 5.00175, -0.2595825, 5.00175, 1.2671756, 5.00175, 0.519084, 5.00175, -3.2290077
0.5892353, -0.0120851, 5.0085, 0.0755005, 5.0085, -0.9911499, 5.0085, -0.2579346, 5.0085, 1.2671756, 5.0085, 0.6335878, 5.0085, -3.1145039
0.5900294, -0.0139315, 5.01525, 0.074585, 5.01525, -0.9923096, 5.01525, -0.2579956, 5.01525, 1.3053435, 5.01525, 0.7557252, 5.01525, -2.9236641
0.5908235, -0.010071, 5.022, 0.074646, 5.022, -0.9932251, 5.022, -0.2590332, 5.022, 1.3587786, 5.022, 0.8320611, 5.022, -2.961832
0.5916176, -0.0112459, 5.02875, 0.0722046, 5.02875, -0.9909668, 5.02875, -0.2573853, 5.02875, 1.1603054, 5.02875, 0.7557252, 5.02875, -3.0458016
0.5924118, -0.0137636, 5.0355, 0.072937, 5.0355, -0.9915161, 5.0355, -0.257019, 5.0355, 1.1145039, 5.0355, 0.7938932, 5.0355, -2.9694657
0.5932059, -0.012253, 5.04225, 0.0722046, 5.04225, -0.9907227, 5.04225, -0.2584839, 5.04225, 1.0610687, 5.04225, 0.908397, 5.04225, -2.9694657
0.594, -0.0129244, 5.049, 0.0740967, 5.049, -0.9920044, 5.049, -0.2563477, 5.049, 0.961832, 5.049, 0.9389313, 5.049, -3.0992367
0.5947941, -0.0142672, 5.05575, 0.0756836, 5.05575, -0.9900513, 5.05575, -0.2579956, 5.05575, 0.6030535, 5.05575, 0.8244275, 5.05575, -2.9923663
0.5955882, -0.0112459, 5.0625, 0.0723267, 5.0625, -0.9906006, 5.0625, -0.2587891, 5.0625, 0.7557252, 5.0625, 0.8015267, 5.0625, -3.1221373
0.5963824, -0.0129244, 5.06925, 0.0718994, 5.06925, -0.9931641, 5.06925, -0.257019, 5.06925, 0.7862595, 5.06925, 0.8625954, 5.06925, -3.1221373
0.5971765, -0.012253, 5.076, 0.0726318, 5.076, -0.9936523, 5.076, -0.2573853, 5.076, 0.7557252, 5.076, 0.8396947, 5.076, -3.3053436
0.5979706, -0.0117494, 5.08275, 0.0731812, 5.08275, -0.9921875, 5.08275, -0.2543945, 5.08275, 0.9160305, 5.08275, 0.648855, 5.08275, -3.1984732
0.5987647, -0.0092317, 5.0895, 0.0770264, 5.0895, -0.9896851, 5.0895, -0.2557983, 5.0895, 0.9160305, 5.0895, 0.7328244, 5.0895, -3.2290077
0.5995588, -0.0041962, 5.09625, 0.0742798, 5.09625, -0.9908447, 5.09625, -0.2558594, 5.09625, 1, 5.09625, 1, 5.09625, -3.0458016
0.6003529, -0.0078889, 5.103, 0.0725098, 5.103, -0.9901733, 5.103, -0.260376, 5.103, 0.9312977, 5.103, 1.0534351, 5.103, -3.1221373
0.6011471, -0.0095674, 5.10975, 0.072937, 5.10975, -0.989502, 5.10975, -0.2578125, 5.10975, 0.9770992, 5.10975, 1.1679389, 5.10975, -3.1374047
0.6019412, -0.0095674, 5.1165, 0.0718994, 5.1165, -0.9916992, 5.1165, -0.2539673, 5.1165, 1.1603054, 5.1165, 1.3969465, 5.1165, -3.0229008
0.6027353, -0.0109102, 5.12325, 0.0696411, 5.12325, -0.9916992, 5.12325, -0.2526245, 5.12325, 1.2290076, 5.12325, 1.1984733, 5.12325, -3.038168
0.6035294, -0.0109102, 5.13, 0.0748901, 5.13, -0.9907837, 5.13, -0.2596436, 5.13, 0.961832, 5.13, 1.0076336, 5.13, -3.0152671
0.6043235, -0.0085603, 5.13675, 0.0768433, 5.13675, -0.9890747, 5.13675, -0.2600708, 5.13675, 0.6335878, 5.13675, 1.0763359, 5.13675, -3.351145
0.6051176, -0.0105745, 5.1435, 0.0681763, 5.1435, -0.9973145, 5.1435, -0.2526245, 5.1435, 0.6183206, 5.1435, 0.5343512, 5.1435, -3.2442749
0.6059118, -0.014435, 5.15025, 0.0701904, 5.15025, -0.9981689, 5.15025, -0.2531738, 5.15025, 0.9160305, 5.15025, 0.6641222, 5.15025, -3.2061069
0.6067059, -0.0139315, 5.157, 0.0783691, 5.157, -0.9970703, 5.157, -0.2580566, 5.157, 0.9923664, 5.157, 0.4045801, 5.157, -3.2366412
0.6075, -0.012253, 5.16375, 0.0766602, 5.16375, -0.9952393, 5.16375, -0.2559814, 5.16375, 1.0763359, 5.16375, 0.5877863, 5.16375, -3.3664122
0.6082941, -0.0117494, 5.1705, 0.0748291, 5.1705, -0.9927979, 5.1705, -0.2561035, 5.1705, 0.8015267, 5.1705, 0.740458, 5.1705, -3.4503818
0.6090882, -0.0125887, 5.17725, 0.0760498, 5.17725, -0.9926147, 5.17725, -0.2603149, 5.17725, 0.8549618, 5.17725, 1.129771, 5.17725, -3.2824428
0.6098824, -0.0203098, 5.184, 0.0764771, 5.184, -0.9904175, 5.184, -0.2609253, 5.184, 0.9541985, 5.184, 0.8244275, 5.184, -3.3664122
0.6106765, -0.0234989, 5.19075, 0.0748901, 5.19075, -0.9910278, 5.19075, -0.2574463, 5.19075, 1.0229008, 5.19075, 0.7480916, 5.19075, -3.3206108
0.6114706, -0.0206455, 5.1975, 0.0751343, 5.1975, -0.9882202, 5.1975, -0.2593994, 5.1975, 1.3664122, 5.1975, 0.6946565, 5.1975, -3.1374047
0.6122647, -0.0216526, 5.20425, 0.0748901, 5.20425, -0.9897461, 5.20425, -0.2618408, 5.20425, 1.2366412, 5.20425, 0.5954198, 5.20425, -3.3587787
0.6130588, -0.0250095, 5.211, 0.072876, 5.211, -0.989502, 5.211, -0.2577515, 5.211, 1.3053435, 5.211, 0.4656489, 5.211, -3.2824428
0.6138529, -0.0256809, 5.21775, 0.0719604, 5.21775, -0.9872437, 5.21775, -0.2523193, 5.21775, 1.221374, 5.21775, 0.2519084, 5.21775, -3.2977099
0.6146471, -0.0209812, 5.2245, 0.0765991, 5.2245, -0.9896851, 5.2245, -0.2518921, 5.2245, 1.1450381, 5.2245, 0.2519084, 5.2245, -3.259542
0.6154412, -0.0216526, 5.23125, 0.0760498, 5.23125, -0.9926147, 5.23125, -0.2529297, 5.23125, 1.1450381, 5.23125, 0.389313, 5.23125, -3.4198472
0.6162353, -0.0238346, 5.238, 0.0753784, 5.238, -0.9911499, 5.238, -0.2543335, 5.238, 1.038168, 5.238, 0.519084, 5.238, -3.3816793
0.6170294, -0.021149, 5.24475, 0.0738525, 5.24475, -0.9901733, 5.24475, -0.2541504, 5.24475, 1.1908396, 5.24475, 0.7328244, 5.24475, -3.3587787
0.6178235, -0.0196384, 5.2515, 0.0747681, 5.2515, -0.9903564, 5.2515, -0.258606, 5.2515, 1.1221374, 5.2515, 0.8854962, 5.2515, -3.3435113
0.6186176, -0.0196384, 5.25825, 0.072998, 5.25825, -0.9906006, 5.25825, -0.2561035, 5.25825, 1.038168, 5.25825, 0.8931298, 5.25825, -3.1832061
0.6194118, -0.018967, 5.265, 0.0759888, 5.265, -0.9892578, 5.265, -0.2567749, 5.265, 1.0305344, 5.265, 0.9465649, 5.265, -3.2290077
0.6202059, -0.0186313, 5.27175, 0.0754395, 5.27175, -0.9907837, 5.27175, -0.2584839, 5.27175, 1.1068702, 5.27175, 0.9541985, 5.27175, -3.1603053
0.621, -0.0176242, 5.2785, 0.071167, 5.2785, -0.9934692, 5.2785, -0.2582397, 5.2785, 1.0992366, 5.2785, 0.7480916, 5.2785, -3.2137403
0.6217941, -0.0129244, 5.28525, 0.0744019, 5.28525, -0.9926147, 5.28525, -0.2630005, 5.28525, 1.0687023, 5.28525, 0.6259542, 5.28525, -3.3435113
0.6225882, -0.0115816, 5.292, 0.0752563, 5.292, -0.9954834, 5.292, -0.2614136, 5.292, 0.9770992, 5.292, 0.6335878, 5.292, -3.3129771
0.6233824, -0.0102388, 5.29875, 0.0748291, 5.29875, -0.9952393, 5.29875, -0.2609863, 5.29875, 0.6870229, 5.29875, 0.6412213, 5.29875, -3.3358779
0.6241765, -0.0095674, 5.3055, 0.0802612, 5.3055, -0.9952393, 5.3055, -0.2606201, 5.3055, 0.6641222, 5.3055, 0.6030535, 5.3055, -3.1984732
0.6249706, -0.0125887, 5.31225, 0.0760498, 5.31225, -0.9949341, 5.31225, -0.2614746, 5.31225, 0.7633588, 5.31225, 0.5725191, 5.31225, -3.091603
0.6257647, -0.0146029, 5.319, 0.0753174, 5.319, -0.9935303, 5.319, -0.2626343, 5.319, 0.6183206, 5.319, 0.5267175, 5.319, -3.0076337
0.6265588, -0.0149386, 5.32575, 0.0805664, 5.32575, -0.9956665, 5.32575, -0.2584229, 5.32575, 0.7480916, 5.32575, 0.5954198, 5.32575, -3.0305343
0.6273529, -0.0193027, 5.3325, 0.0799561, 5.3325, -0.9901123, 5.3325, -0.2567139, 5.3325, 0.908397, 5.3325, 0.5496183, 5.3325, -2.9847329
0.6281471, -0.0270237, 5.33925, 0.0761719, 5.33925, -0.9918213, 5.33925, -0.2584839, 5.33925, 1.0305344, 5.33925, 0.5648855, 5.33925, -3.129771
0.6289412, -0.0271916, 5.346, 0.0739136, 5.346, -0.9884644, 5.346, -0.2545166, 5.346, 1.1145039, 5.346, 0.5801527, 5.346, -3.129771
0.6297353, -0.0243381, 5.35275, 0.0755005, 5.35275, -0.9921875, 5.35275, -0.2549438, 5.35275, 1.2366412, 5.35275, 0.5954198, 5.35275, -3.1374047
0.6305294, -0.0213169, 5.3595, 0.0728149, 5.3595, -0.9911499, 5.3595, -0.2553711, 5.3595, 1.259542, 5.3595, 0.7099237, 5.3595, -2.9541984
0.6313235, -0.0226596, 5.36625, 0.0743408, 5.36625, -0.9890747, 5.36625, -0.2598877, 5.36625, 1.2748091, 5.36625, 0.9694657, 5.36625, -2.9694657
0.6321176, -0.0218204, 5.373, 0.0735474, 5.373, -0.991394, 5.373, -0.2565918, 5.373, 1.1679389, 5.373, 1.0152671, 5.373, -2.8854961
0.6329118, -0.0182956, 5.37975, 0.0734863, 5.37975, -0.9893188, 5.37975, -0.253479, 5.37975, 1.0839695, 5.37975, 0.9541985, 5.37975, -2.9923663
0.6337059, -0.0164492, 5.3865, 0.0720825, 5.3865, -0.9894409, 5.3865, -0.2553711, 5.3865, 1.0839695, 5.3865, 1.1832061, 5.3865, -3.0687022
0.6345, -0.023331, 5.39325, 0.0697632, 5.39325, -0.9885864, 5.39325, -0.2561035, 5.39325, 0.9847328, 5.39325, 0.9770992, 5.39325, -3.1603053
0.6352941, -0.0186313, 5.4, 0.0701294, 5.4, -0.9915161, 5.4, -0.2546387, 5.4, 1.0610687, 5.4, 0.908397, 5.4, -2.9923663
0.6360882, -0.0142672, 5.40675, 0.0698242, 5.40675, -0.9886475, 5.40675, -0.2557373, 5.40675, 0.9541985, 5.40675, 0.8396947, 5.40675, -3.0610688
0.6368824, -0.0127565, 5.4135, 0.072998, 5.4135, -0.9908447, 5.4135, -0.2523193, 5.4135, 1.0152671, 5.4135, 0.7328244, 5.4135, -3.0458016
0.6376765, -0.012253, 5.42025, 0.0766602, 5.42025, -0.9960327, 5.42025, -0.256958, 5.42025, 1.1603054, 5.42025, 0.5496183, 5.42025, -3.1679389
0.6384706, -0.0129244, 5.427, 0.0759277, 5.427, -0.9951172, 5.427, -0.2567749, 5.427, 1.0076336, 5.427, 0.5725191, 5.427, -3.0839694
0.6392647, -0.0109102, 5.43375, 0.0751953, 5.43375, -0.9938965, 5.43375, -0.2550659, 5.43375, 1.1526718, 5.43375, 0.8473282, 5.43375, -3.2671757
0.6400588, -0.0162814, 5.4405, 0.0754395, 5.4405, -0.9940796, 5.4405, -0.258606, 5.4405, 1.1221374, 5.4405, 0.8015267, 5.4405, -3.2519083
0.6408529, -0.0182956, 5.44725, 0.0774536, 5.44725, -0.9946899, 5.44725, -0.2603149, 5.44725, 1.0992366, 5.44725, 0.5877863, 5.44725, -3.2900763
0.6416471, -0.01561, 5.454, 0.0775146, 5.454, -0.9942017, 5.454, -0.2597046, 5.454, 1.0839695, 5.454, 0.8320611, 5.454, -3.3664122
0.6424412, -0.0135958, 5.46075, 0.0762329, 5.46075, -0.9936523, 5.46075, -0.2601929, 5.46075, 1.1145039, 5.46075, 0.6412213, 5.46075, -3.2900763
0.6432353, -0.0119173, 5.4675, 0.0751343, 5.4675, -0.9934082, 5.4675, -0.258667, 5.4675, 1.1755725, 5.4675, 0.6183206, 5.4675, -3.1908398
0.6440294, -0.0125887, 5.47425, 0.0718384, 5.47425, -0.9915161, 5.47425, -0.2617188, 5.47425, 1.1068702, 5.47425, 0.4198473, 5.47425, -3.3358779
0.6448235, -0.0119173, 5.481, 0.0734863, 5.481, -0.9912109, 5.481, -0.2575684, 5.481, 1.221374, 5.481, 0.221374, 5.481, -3.3282442
0.6456176, -0.0097353, 5.48775, 0.0753174, 5.48775, -0.9918213, 5.48775, -0.2544556, 5.48775, 1.129771, 5.48775, 0.2671756, 5.48775, -3.2977099
0.6464118, -0.0115816, 5.4945, 0.0759888, 5.4945, -0.9899292, 5.4945, -0.2545166, 5.4945, 1.0152671, 5.4945, 0.3206107, 5.4945, -3.091603
0.6472059, -0.0112459, 5.50125, 0.0764771, 5.50125, -0.9905396, 5.50125, -0.2514648, 5.50125, 0.9541985, 5.50125, 0.2824427, 5.50125, -3.3206108
0.648, -0.011078, 5.508, 0.0776978, 5.508, -0.9886475, 5.508, -0.2558594, 5.508, 1.0458015, 5.508, 0.5114504, 5.508, -3.1755726
0.6487941, -0.0092317, 5.51475, 0.0772705, 5.51475, -0.9905396, 5.51475, -0.2553711, 5.51475, 1.259542, 5.51475, 0.9312977, 5.51475, -3.0076337
0.6495882, -0.011078, 5.5215, 0.0767212, 5.5215, -0.9899292, 5.5215, -0.2564087, 5.5215, 1.1908396, 5.5215, 1.221374, 5.5215, -3.1068702
0.6503824, -0.0097353, 5.52825, 0.0736694, 5.52825, -0.9896851, 5.52825, -0.2541504, 5.52825, 1.2824427, 5.52825, 1.1832061, 5.52825, -2.9847329
0.6511765, -0.0057069, 5.535, 0.0718994, 5.535, -0.9944458, 5.535, -0.2532349, 5.535, 1.1145039, 5.535, 1.091603, 5.535, -3.0152671
0.6519706, -0.005539, 5.54175, 0.0717163, 5.54175, -0.9920044, 5.54175, -0.2572632, 5.54175, 1.0305344, 5.54175, 1.038168, 5.54175, -2.9389312
0.6527647, -0.0045319, 5.5485, 0.0680542, 5.5485, -0.9951172, 5.5485, -0.2587891, 5.5485, 1.1526718, 5.5485, 0.8396947, 5.5485, -3.1603053
0.6535588, -0.0048676, 5.55525, 0.0720215, 5.55525, -0.991272, 5.55525, -0.2544556, 5.55525, 1.0076336, 5.55525, 0.7709923, 5.55525, -2.9923663
0.6543529, -0.0062104, 5.562, 0.0742798, 5.562, -0.9907837, 5.562, -0.2589722, 5.562, 0.9160305, 5.562, 0.9312977, 5.562, -3.221374
0.6551471, -0.0162814, 5.56875, 0.0767822, 5.56875, -0.9943237, 5.56875, -0.2600098, 5.56875, 1.0229008, 5.56875, 0.908397, 5.56875, -3.129771
0.6559412, -0.0219883, 5.5755, 0.0790405, 5.5755, -0.9920654, 5.5755, -0.2594604, 5.5755, 0.8320611, 5.5755, 0.8854962, 5.5755, -3.1755726
0.6567353, -0.0219883, 5.58225, 0.0754395, 5.58225, -0.9953613, 5.58225, -0.2577515, 5.58225, 0.8396947, 5.58225, 1.1603054, 5.58225, -3.0687022
0.6575294, -0.0229953, 5.589, 0.076416, 5.589, -0.9924927, 5.589, -0.2585449, 5.589, 0.7862595, 5.589, 1.221374, 5.589, -3.0610688
0.6583235, -0.0176242, 5.59575, 0.0753784, 5.59575, -0.9955444, 5.59575, -0.2600708, 5.59575, 0.7557252, 5.59575, 1.1526718, 5.59575, -3.0763359
0.6591176, -0.0186313, 5.6025, 0.0747681, 5.6025, -0.9931641, 5.6025, -0.2595825, 5.6025, 0.8091603, 5.6025, 0.9312977, 5.6025, -3.1755726
0.6599118, -0.0236667, 5.60925, 0.071167, 5.60925, -0.9931641, 5.60925, -0.2562256, 5.60925, 1.0229008, 5.60925, 0.7251908, 5.60925, -3.1984732
0.6607059, -0.0208133, 5.616, 0.071228, 5.616, -0.9927979, 5.616, -0.2550049, 5.616, 1.0763359, 5.616, 0.6183206, 5.616, -3.1679389
0.6615, -0.0191348, 5.62275, 0.0739746, 5.62275, -0.9935303, 5.62275, -0.2573242, 5.62275, 0.9770992, 5.62275, 0.6335878, 5.62275, -3.1679389
0.6622941, -0.021149, 5.6295, 0.074707, 5.6295, -0.9942017, 5.6295, -0.2544556, 5.6295, 0.8625954, 5.6295, 0.7175573, 5.6295, -3.221374
0.6630882, -0.0208133, 5.63625, 0.0747681, 5.63625, -0.9935303, 5.63625, -0.2557373, 5.63625, 0.9694657, 5.63625, 0.6793893, 5.63625, -3.2824428
0.6638824, -0.0209812, 5.643, 0.0739136, 5.643, -0.9926758, 5.643, -0.2529907, 5.643, 0.9236641, 5.643, 0.6870229, 5.643, -3.3664122
0.6646765, -0.0243381, 5.64975, 0.0758667, 5.64975, -0.9907837, 5.64975, -0.2524414, 5.64975, 1, 5.64975, 0.6641222, 5.64975, -3.1908398
0.6654706, -0.0229953, 5.6565, 0.0728149, 5.6565, -0.9916992, 5.6565, -0.2563477, 5.6565, 1.0305344, 5.6565, 0.8549618, 5.6565, -3.1755726
0.6662647, -0.0169528, 5.66325, 0.0724487, 5.66325, -0.9934692, 5.66325, -0.2571411, 5.66325, 0.9694657, 5.66325, 0.8396947, 5.66325, -3.4732823
0.6670588, -0.0146029, 5.67, 0.071167, 5.67, -0.9933472, 5.67, -0.2573242, 5.67, 0.9160305, 5.67, 0.5954198, 5.67, -3.3358779
0.6678529, -0.014435, 5.67675, 0.0732422, 5.67675, -0.9918823, 5.67675, -0.2529907, 5.67675, 1.0839695, 5.67675, 0.5725191, 5.67675, -3.5343511
0.6686471, -0.0166171, 5.6835, 0.072998, 5.6835, -0.9926147, 5.6835, -0.2581177, 5.6835, 1, 5.6835, 0.5954198, 5.6835, -3.1603053
0.6694412, -0.0137636, 5.69025, 0.0733032, 5.69025, -0.992981, 5.69025, -0.2578125, 5.69025, 0.9694657, 5.69025, 0.3435115, 5.69025, -3.4961832
0.6702353, -0.0135958, 5.697, 0.0755615, 5.697, -0.9945679, 5.697, -0.256897, 5.697, 0.961832, 5.697, 0.5343512, 5.697, -3.2824428
0.6710294, -0.0261845, 5.70375, 0.0742798, 5.70375, -0.9921875, 5.70375, -0.2529297, 5.70375, 0.908397, 5.70375, 0.3664122, 5.70375, -3.3206108
0.6718235, -0.0307164, 5.7105, 0.0734253, 5.7105, -0.9915771, 5.7105, -0.2548828, 5.7105, 1.038168, 5.7105, 0.5572519, 5.7105, -3.2442749
0.6726176, -0.0203098, 5.71725, 0.0757446, 5.71725, -0.9892578, 5.71725, -0.2573242, 5.71725, 1.0152671, 5.71725, 0.5267175, 5.71725, -3.3816793
0.6734118, -0.0115816, 5.724, 0.0771484, 5.724, -0.991272, 5.724, -0.2557373, 5.724, 1.0305344, 5.724, 0.8473282, 5.724, -3.2824428
0.6742059, -0.0097353, 5.73075, 0.0768433, 5.73075, -0.9899292, 5.73075, -0.2553711, 5.73075, 0.9160305, 5.73075, 0.9923664, 5.73075, -3.2366412
0.675, -0.0082246, 5.7375, 0.0753174, 5.7375, -0.993042, 5.7375, -0.2579346, 5.7375, 0.7709923, 5.7375, 1.0687023, 5.7375, -3.259542
0.6757941, -0.0085603, 5.74425, 0.0755005, 5.74425, -0.9910278, 5.74425, -0.2578735, 5.74425, 0.9465649, 5.74425, 1.0992366, 5.74425, -3.1221373
0.6765882, -0.0137636, 5.751, 0.0734253, 5.751, -0.9912109, 5.751, -0.2547607, 5.751, 0.9541985, 5.751, 0.9007633, 5.751, -3.0763359
0.6773824, -0.0184634, 5.75775, 0.072937, 5.75775, -0.9906616, 5.75775, -0.2578125, 5.75775, 1.0839695, 5.75775, 0.7328244, 5.75775, -3.1374047
0.6781765, -0.0166171, 5.7645, 0.0733643, 5.7645, -0.9929199, 5.7645, -0.2554321, 5.7645, 1.0305344, 5.7645, 0.7175573, 5.7645, -3.221374
0.6789706, -0.0236667, 5.77125, 0.0748291, 5.77125, -0.9942627, 5.77125, -0.2565308, 5.77125, 0.9770992, 5.77125, 0.778626, 5.77125, -3.2977099
0.6797647, -0.0243381, 5.778, 0.078064, 5.778, -0.9910278, 5.778, -0.2572021, 5.778, 0.610687, 5.778, 0.7938932, 5.778, -3.3740458
0.6805588, -0.0204776, 5.78475, 0.0734863, 5.78475, -0.991272, 5.78475, -0.2544556, 5.78475, 0.5343512, 5.78475, 0.7099237, 5.78475, -3.2824428
