Application:, Trigno Discover (1.7.0)
Date/Time:, 2026/9/9 上午 09:52:24
Collection Length (seconds):, 40.338
Avanti Sensor 11 (69574)
sensor mode: 50
EMG 1 Time Series (s), EMG 1 (mV), ACC X Time Series (s), ACC X (G), ACC Y Time Series (s), ACC Y (G), ACC Z Time Series (s), ACC Z (G), GYRO X Time Series (s), GYRO X (deg/s), GYRO Y Time Series (s), GYRO Y (deg/s), GYRO Z Time Series (s), GYRO Z (deg/s)
, 1259.2593 Hz, , 148.1481 Hz, , 148.1481 Hz, , 148.1481 Hz, , 148.1481 Hz, , 148.1481 Hz, , 148.1481 Hz
0, -0.0157778, 0, -0.041748, 0, -1.0078125, 0, -0.1564941, 0, 1.0305344, 0, 0.5954198, 0, -3.3664122
0.0007941, -0.0130922, 0.00675, -0.0396118, 0.00675, -1.005249, 0.00675, -0.1569214, 0.00675, 1.0152671, 0.00675, 0.6717557, 0.00675, -3.2366412
0.0015882, -0.0135958, 0.0135, -0.0389404, 0.0135, -1.005188, 0.0135, -0.1558228, 0.0135, 1.1068702, 0.0135, 0.7022901, 0.0135, -3.1374047
0.0023824, -0.0151064, 0.02025, -0.0380249, 0.02025, -1.005127, 0.02025, -0.1564331, 0.02025, 1.1526718, 0.02025, 0.4122137, 0.02025, -3.3282442
0.0031765, -0.0142672, 0.027, -0.0359497, 0.027, -1.0047607, 0.027, -0.1557617, 0.027, 1.3206106, 0.027, 0.4732825, 0.027, -3.1832061
0.0039706, -0.0082246, 0.03375, -0.0393066, 0.03375, -1.0043945, 0.03375, -0.1558838, 0.03375, 1.2366412, 0.03375, 0.6259542, 0.03375, -3.221374
0.0047647, -0.0109102, 0.0405, -0.0407104, 0.0405, -1.006958, 0.0405, -0.1575317, 0.0405, 1.1145039, 0.0405, 0.5801527, 0.0405, -3.2137403
0.0055588, -0.0119173, 0.04725, -0.0371094, 0.04725, -1.0067139, 0.04725, -0.1549072, 0.04725, 1.2137405, 0.04725, 0.5725191, 0.04725, -3.3816793
0.0063529, -0.0085603, 0.054, -0.0371094, 0.054, -1.0029297, 0.054, -0.1532593, 0.054, 1.221374, 0.054, 0.480916, 0.054, -3.2442749
0.0071471, -0.0082246, 0.06075, -0.0388184, 0.06075, -1.0029297, 0.06075, -0.1552124, 0.06075, 1.1221374, 0.06075, 0.6183206, 0.06075, -3.2900763
0.0079412, -0.008896, 0.0675, -0.0386353, 0.0675, -1.0061646, 0.0675, -0.1544189, 0.0675, 1.2824427, 0.0675, 0.6564885, 0.0675, -3.221374
0.0087353, -0.0083925, 0.07425, -0.0371704, 0.07425, -1.0037842, 0.07425, -0.1535645, 0.07425, 1.0610687, 0.07425, 0.7633588, 0.07425, -3.1679389
0.0095294, -0.0102388, 0.081, -0.0371704, 0.081, -1.0019531, 0.081, -0.1533203, 0.081, 1.1221374, 0.081, 0.7099237, 0.081, -3.2290077
0.0103235, -0.0082246, 0.08775, -0.0391235, 0.08775, -1.0039673, 0.08775, -0.1563721, 0.08775, 1.1984733, 0.08775, 0.6717557, 0.08775, -3.3206108
0.0111176, -0.0070497, 0.0945, -0.0390625, 0.0945, -1.0024414, 0.0945, -0.1575928, 0.0945, 1.1908396, 0.0945, 0.778626, 0.0945, -3.2519083
0.0119118, -0.008896, 0.10125, -0.0396729, 0.10125, -1.0015259, 0.10125, -0.1558838, 0.10125, 1.0839695, 0.10125, 0.6335878, 0.10125, -3.3129771
0.0127059, -0.0132601, 0.108, -0.0408325, 0.108, -1.0025635, 0.108, -0.1552124, 0.108, 1.0839695, 0.108, 0.648855, 0.108, -3.1679389
0.0135, -0.0135958, 0.11475, -0.039978, 0.11475, -1.0054321, 0.11475, -0.1561279, 0.11475, 1.0229008, 0.11475, 0.6793893, 0.11475, -3.2671757
0.0142941, -0.0139315, 0.1215, -0.0396729, 0.1215, -1.0043945, 0.1215, -0.1573486, 0.1215, 1.1450381, 0.1215, 0.6030535, 0.1215, -3.2671757
0.0150882, -0.0159457, 0.12825, -0.0412598, 0.12825, -1.00177, 0.12825, -0.1570435, 0.12825, 1.1145039, 0.12825, 0.7022901, 0.12825, -3.4885497
0.0158824, -0.0172885, 0.135, -0.0415039, 0.135, -1.0027466, 0.135, -0.1516724, 0.135, 1.129771, 0.135, 0.7175573, 0.135, -3.4122138
0.0166765, -0.0169528, 0.14175, -0.0404053, 0.14175, -1.0021973, 0.14175, -0.1539917, 0.14175, 1.0458015, 0.14175, 0.7709923, 0.14175, -3.2519083
0.0174706, -0.0172885, 0.1485, -0.0411377, 0.1485, -1.0044556, 0.1485, -0.1524048, 0.1485, 1.3664122, 0.1485, 0.7938932, 0.1485, -3.3435113
0.0182647, -0.0176242, 0.15525, -0.0407715, 0.15525, -1.0049438, 0.15525, -0.1531372, 0.15525, 1.1984733, 0.15525, 0.7022901, 0.15525, -3.3664122
0.0190588, -0.0130922, 0.162, -0.038269, 0.162, -1.0053101, 0.162, -0.15271, 0.162, 1.2671756, 0.162, 0.8167939, 0.162, -3.3435113
0.0198529, -0.0149386, 0.16875, -0.0385742, 0.16875, -1.0070801, 0.16875, -0.1553345, 0.16875, 1.2519084, 0.16875, 0.8854962, 0.16875, -3.3129771
0.0206471, -0.0159457, 0.1755, -0.0371704, 0.1755, -1.0075073, 0.1755, -0.1564941, 0.1755, 1.2519084, 0.1755, 1.0687023, 0.1755, -3.351145
0.0214412, -0.0151064, 0.18225, -0.0402832, 0.18225, -1.0030518, 0.18225, -0.1576538, 0.18225, 1.1755725, 0.18225, 0.8396947, 0.18225, -3.2824428
0.0222353, -0.0179599, 0.189, -0.0443726, 0.189, -1.0031738, 0.189, -0.1559448, 0.189, 1.1755725, 0.189, 0.8015267, 0.189, -3.3435113
0.0230294, -0.018967, 0.19575, -0.039917, 0.19575, -1.0048828, 0.19575, -0.1565552, 0.19575, 1.2671756, 0.19575, 0.9541985, 0.19575, -3.4732823
0.0238235, -0.0172885, 0.2025, -0.0418091, 0.2025, -1.0055542, 0.2025, -0.1558228, 0.2025, 1.221374, 0.2025, 0.5496183, 0.2025, -3.3816793
0.0246176, -0.0166171, 0.20925, -0.0447998, 0.20925, -1.0036621, 0.20925, -0.1558838, 0.20925, 1.2519084, 0.20925, 0.4885496, 0.20925, -3.4732823
0.0254118, -0.01561, 0.216, -0.0424194, 0.216, -1.00354, 0.216, -0.1550903, 0.216, 1.3664122, 0.216, 0.259542, 0.216, -3.4198472
0.0262059, -0.0139315, 0.22275, -0.0370483, 0.22275, -1.0053101, 0.22275, -0.1571045, 0.22275, 1.3282443, 0.22275, 0.1221374, 0.22275, -3.5267177
0.027, -0.01561, 0.2295, -0.0371094, 0.2295, -1.0060425, 0.2295, -0.151001, 0.2295, 1.3587786, 0.2295, 0.129771, 0.2295, -3.4885497
0.0277941, -0.0166171, 0.23625, -0.0395508, 0.23625, -1.0031738, 0.23625, -0.1503906, 0.23625, 1.1374046, 0.23625, 0.3358779, 0.23625, -3.3740458
0.0285882, -0.01561, 0.243, -0.0415039, 0.243, -1.0029907, 0.243, -0.1483765, 0.243, 1.4351145, 0.243, 0.5343512, 0.243, -3.4885497
0.0293824, -0.0169528, 0.24975, -0.041687, 0.24975, -1.0021362, 0.24975, -0.1504517, 0.24975, 1.351145, 0.24975, 0.778626, 0.24975, -3.4961832
0.0301765, -0.018967, 0.2565, -0.0408936, 0.2565, -1.005127, 0.2565, -0.1516724, 0.2565, 1.2366412, 0.2565, 0.7557252, 0.2565, -3.3664122
0.0309706, -0.0199741, 0.26325, -0.0385742, 0.26325, -1.0062866, 0.26325, -0.1480713, 0.26325, 1.2290076, 0.26325, 0.740458, 0.26325, -3.3816793
0.0317647, -0.0216526, 0.27, -0.0361328, 0.27, -1.0061646, 0.27, -0.1491089, 0.27, 1.2137405, 0.27, 0.9541985, 0.27, -3.2824428
0.0325588, -0.0151064, 0.27675, -0.0373535, 0.27675, -1.0028687, 0.27675, -0.1528931, 0.27675, 1.0763359, 0.27675, 1.1603054, 0.27675, -3.1145039
0.0333529, -0.0157778, 0.2835, -0.0371704, 0.2835, -1.0020142, 0.2835, -0.1521606, 0.2835, 1.0458015, 0.2835, 1.1603054, 0.2835, -3.1984732
0.0341471, -0.0164492, 0.29025, -0.0354004, 0.29025, -1.003479, 0.29025, -0.1524658, 0.29025, 1.0610687, 0.29025, 0.9694657, 0.29025, -3.2366412
0.0349412, -0.0149386, 0.297, -0.0380859, 0.297, -1.0073853, 0.297, -0.1516113, 0.297, 1.0763359, 0.297, 1.0305344, 0.297, -3.4656489
0.0357353, -0.0172885, 0.30375, -0.0367432, 0.30375, -1.0056763, 0.30375, -0.1540527, 0.30375, 1.0229008, 0.30375, 0.6564885, 0.30375, -3.1755726
0.0365294, -0.0149386, 0.3105, -0.0374756, 0.3105, -1.0043945, 0.3105, -0.1531982, 0.3105, 0.9465649, 0.3105, 0.5343512, 0.3105, -3.2977099
0.0373235, -0.0132601, 0.31725, -0.0352783, 0.31725, -1.0043945, 0.31725, -0.154541, 0.31725, 0.9312977, 0.31725, 0.4961832, 0.31725, -3.3129771
0.0381176, -0.012253, 0.324, -0.0363159, 0.324, -1.0056152, 0.324, -0.1513062, 0.324, 1.0076336, 0.324, 0.3053435, 0.324, -3.2824428
0.0389118, -0.0105745, 0.33075, -0.0375366, 0.33075, -1.0054321, 0.33075, -0.1498413, 0.33075, 0.8091603, 0.33075, 0.3206107, 0.33075, -3.1374047
0.0397059, -0.0132601, 0.3375, -0.0377808, 0.3375, -1.0057983, 0.3375, -0.152832, 0.3375, 0.778626, 0.3375, 0.4885496, 0.3375, -3.1603053
0.0405, -0.0149386, 0.34425, -0.0360107, 0.34425, -1.0056152, 0.34425, -0.1508789, 0.34425, 0.9236641, 0.34425, 0.8473282, 0.34425, -3.3282442
0.0412941, -0.0130922, 0.351, -0.0362549, 0.351, -1.003479, 0.351, -0.1485596, 0.351, 0.7328244, 0.351, 0.9465649, 0.351, -3.0687022
0.0420882, -0.0135958, 0.35775, -0.0374756, 0.35775, -1.0021973, 0.35775, -0.1513672, 0.35775, 0.8320611, 0.35775, 0.9694657, 0.35775, -3.0305343
0.0428824, -0.0162814, 0.3645, -0.0388184, 0.3645, -1.0039673, 0.3645, -0.1516724, 0.3645, 0.6183206, 0.3645, 1.0534351, 0.3645, -3.0458016
0.0436765, -0.0151064, 0.37125, -0.0404053, 0.37125, -1.0048218, 0.37125, -0.1525879, 0.37125, 0.8167939, 0.37125, 1.0229008, 0.37125, -2.9389312
0.0444706, -0.0137636, 0.378, -0.0394287, 0.378, -1.003479, 0.378, -0.15271, 0.378, 0.7328244, 0.378, 0.9541985, 0.378, -3.129771
0.0452647, -0.0142672, 0.38475, -0.0386353, 0.38475, -1.0026855, 0.38475, -0.154541, 0.38475, 0.8549618, 0.38475, 0.8549618, 0.38475, -3.1832061
0.0460588, -0.0130922, 0.3915, -0.0386963, 0.3915, -1.0063477, 0.3915, -0.1547241, 0.3915, 0.610687, 0.3915, 0.7938932, 0.3915, -3.1374047
0.0468529, -0.0152743, 0.39825, -0.0375366, 0.39825, -1.0042725, 0.39825, -0.1567383, 0.39825, 0.7251908, 0.39825, 0.7938932, 0.39825, -3.1374047
0.0476471, -0.01561, 0.405, -0.0390015, 0.405, -1.0046997, 0.405, -0.1557007, 0.405, 0.5801527, 0.405, 0.9847328, 0.405, -3.0687022
0.0484412, -0.0149386, 0.41175, -0.0385742, 0.41175, -1.005188, 0.41175, -0.157959, 0.41175, 0.7328244, 0.41175, 0.7022901, 0.41175, -3.1832061
0.0492353, -0.01561, 0.4185, -0.0407104, 0.4185, -1.0057983, 0.4185, -0.1555786, 0.4185, 0.6259542, 0.4185, 0.7022901, 0.4185, -3.0839694
0.0500294, -0.0119173, 0.42525, -0.0400391, 0.42525, -1.0067139, 0.42525, -0.1543579, 0.42525, 0.8320611, 0.42525, 0.740458, 0.42525, -3.091603
0.0508235, -0.0142672, 0.432, -0.0401001, 0.432, -1.005249, 0.432, -0.1566162, 0.432, 0.8015267, 0.432, 0.9389313, 0.432, -3.2748091
0.0516176, -0.0142672, 0.43875, -0.0397339, 0.43875, -1.0047607, 0.43875, -0.1540527, 0.43875, 0.9007633, 0.43875, 0.7938932, 0.43875, -3.1679389
0.0524118, -0.0115816, 0.4455, -0.0415039, 0.4455, -1.0064087, 0.4455, -0.1550903, 0.4455, 0.9007633, 0.4455, 0.740458, 0.4455, -3.221374
0.0532059, -0.01561, 0.45225, -0.0391235, 0.45225, -1.0079956, 0.45225, -0.1550293, 0.45225, 0.8854962, 0.45225, 0.5725191, 0.45225, -3.1832061
0.054, -0.0171206, 0.459, -0.0426636, 0.459, -1.0060425, 0.459, -0.1553345, 0.459, 0.9160305, 0.459, 0.6259542, 0.459, -3.2671757
0.0547941, -0.0166171, 0.46575, -0.0420532, 0.46575, -1.0040894, 0.46575, -0.1560669, 0.46575, 0.9694657, 0.46575, 0.6335878, 0.46575, -3.2671757
0.0555882, -0.0149386, 0.4725, -0.0402832, 0.4725, -1.0036621, 0.4725, -0.1560059, 0.4725, 0.9007633, 0.4725, 0.480916, 0.4725, -3.2671757
0.0563824, -0.0142672, 0.47925, -0.0374146, 0.47925, -1.00177, 0.47925, -0.1537476, 0.47925, 0.9236641, 0.47925, 0.5419847, 0.47925, -3.2977099
0.0571765, -0.0179599, 0.486, -0.0365601, 0.486, -1.0033569, 0.486, -0.1552734, 0.486, 1.0458015, 0.486, 0.6717557, 0.486, -3.5038168
0.0579706, -0.01561, 0.49275, -0.0368652, 0.49275, -1.0053101, 0.49275, -0.1571045, 0.49275, 1.091603, 0.49275, 0.7938932, 0.49275, -3.1755726
0.0587647, -0.01561, 0.4995, -0.0383911, 0.4995, -1.0084839, 0.4995, -0.1548462, 0.4995, 0.9770992, 0.4995, 0.9770992, 0.4995, -3.2748091
0.0595588, -0.0159457, 0.50625, -0.043457, 0.50625, -1.0070801, 0.50625, -0.1546631, 0.50625, 1.0458015, 0.50625, 0.9236641, 0.50625, -2.9770992
0.0603529, -0.0198062, 0.513, -0.0408325, 0.513, -1.0040283, 0.513, -0.1558838, 0.513, 1.0763359, 0.513, 1.0534351, 0.513, -3.1221373
0.0611471, -0.01561, 0.51975, -0.0413208, 0.51975, -1.0054932, 0.51975, -0.1548462, 0.51975, 1.0839695, 0.51975, 0.8854962, 0.51975, -3.1755726
0.0619412, -0.012253, 0.5265, -0.0385132, 0.5265, -1.0061646, 0.5265, -0.1549072, 0.5265, 1.0458015, 0.5265, 0.8167939, 0.5265, -3.2519083
0.0627353, -0.0139315, 0.53325, -0.0355835, 0.53325, -1.0031738, 0.53325, -0.156189, 0.53325, 1.0458015, 0.53325, 0.870229, 0.53325, -3.2442749
0.0635294, -0.0159457, 0.54, -0.0376587, 0.54, -1.0042114, 0.54, -0.1566162, 0.54, 0.908397, 0.54, 0.6717557, 0.54, -3.1984732
0.0643235, -0.0109102, 0.54675, -0.0344849, 0.54675, -1.0038452, 0.54675, -0.156311, 0.54675, 1.0229008, 0.54675, 0.6717557, 0.54675, -3.4427481
0.0651176, -0.0135958, 0.5535, -0.0372314, 0.5535, -1.0032959, 0.5535, -0.1542358, 0.5535, 1, 0.5535, 0.8091603, 0.5535, -3.2290077
0.0659118, -0.0154421, 0.56025, -0.0367432, 0.56025, -1.0059204, 0.56025, -0.1553955, 0.56025, 1.091603, 0.56025, 0.7022901, 0.56025, -3.2519083
0.0667059, -0.0135958, 0.567, -0.0388184, 0.567, -1.0047607, 0.567, -0.1542358, 0.567, 1.0610687, 0.567, 0.5496183, 0.567, -3.2290077
0.0675, -0.0125887, 0.57375, -0.0409546, 0.57375, -1.0078735, 0.57375, -0.1564941, 0.57375, 1.0687023, 0.57375, 0.7022901, 0.57375, -3.1526718
0.0682941, -0.0129244, 0.5805, -0.0407715, 0.5805, -1.006897, 0.5805, -0.1572266, 0.5805, 0.9847328, 0.5805, 0.7862595, 0.5805, -3.1908398
0.0690882, -0.0149386, 0.58725, -0.0390015, 0.58725, -1.0064087, 0.58725, -0.1537476, 0.58725, 1.0992366, 0.58725, 0.6183206, 0.58725, -3.351145
0.0698824, -0.0162814, 0.594, -0.0389404, 0.594, -1.0028687, 0.594, -0.1532593, 0.594, 1.0992366, 0.594, 0.6412213, 0.594, -3.1145039
0.0706765, -0.0115816, 0.60075, -0.0369263, 0.60075, -1.0045166, 0.60075, -0.1524658, 0.60075, 0.9923664, 0.60075, 0.740458, 0.60075, -3.2061069
0.0714706, -0.0135958, 0.6075, -0.0362549, 0.6075, -1.0059204, 0.6075, -0.1535034, 0.6075, 0.908397, 0.6075, 0.8931298, 0.6075, -3.1221373
0.0722647, -0.0162814, 0.61425, -0.0385742, 0.61425, -1.0032959, 0.61425, -0.1525879, 0.61425, 1.1526718, 0.61425, 0.8244275, 0.61425, -3.1603053
0.0730588, -0.0179599, 0.621, -0.038269, 0.621, -1.0050049, 0.621, -0.1508789, 0.621, 0.9923664, 0.621, 0.9694657, 0.621, -3.259542
0.0738529, -0.0146029, 0.62775, -0.0397339, 0.62775, -1.0047607, 0.62775, -0.152832, 0.62775, 0.9160305, 0.62775, 0.9389313, 0.62775, -3.1679389
0.0746471, -0.0092317, 0.6345, -0.0410767, 0.6345, -1.0066528, 0.6345, -0.1519775, 0.6345, 1.0763359, 0.6345, 0.8931298, 0.6345, -3.0152671
0.0754412, -0.0105745, 0.64125, -0.0387573, 0.64125, -1.0057983, 0.64125, -0.1528931, 0.64125, 1.0763359, 0.64125, 0.8396947, 0.64125, -3.0610688
0.0762353, -0.0129244, 0.648, -0.0394897, 0.648, -1.0046387, 0.648, -0.1538086, 0.648, 0.9770992, 0.648, 0.6717557, 0.648, -3.2824428
0.0770294, -0.0129244, 0.65475, -0.0431519, 0.65475, -1.0070801, 0.65475, -0.1533203, 0.65475, 0.9465649, 0.65475, 0.6641222, 0.65475, -3.1068702
0.0778235, -0.0129244, 0.6615, -0.0397949, 0.6615, -1.0055542, 0.6615, -0.1529541, 0.6615, 0.9236641, 0.6615, 0.6564885, 0.6615, -3.2366412
0.0786176, -0.0157778, 0.66825, -0.0411987, 0.66825, -1.0029907, 0.66825, -0.1525879, 0.66825, 0.9694657, 0.66825, 0.5725191, 0.66825, -3.0839694
0.0794118, -0.0171206, 0.675, -0.0368652, 0.675, -1.0047607, 0.675, -0.1539917, 0.675, 0.9847328, 0.675, 0.5954198, 0.675, -3.2366412
0.0802059, -0.0176242, 0.68175, -0.0373535, 0.68175, -1.0027466, 0.68175, -0.1526489, 0.68175, 0.8854962, 0.68175, 0.6564885, 0.68175, -3.2519083
0.081, -0.0179599, 0.6885, -0.0377197, 0.6885, -1.0047607, 0.6885, -0.1564941, 0.6885, 0.9923664, 0.6885, 0.6641222, 0.6885, -3.0305343
0.0817941, -0.0162814, 0.69525, -0.038147, 0.69525, -1.0039673, 0.69525, -0.1558838, 0.69525, 0.8625954, 0.69525, 0.908397, 0.69525, -3.1145039
0.0825882, -0.0157778, 0.702, -0.0374146, 0.702, -1.0067749, 0.702, -0.154541, 0.702, 0.9312977, 0.702, 0.8396947, 0.702, -3.0610688
0.0833824, -0.0162814, 0.70875, -0.0393677, 0.70875, -1.0043335, 0.70875, -0.1554565, 0.70875, 0.961832, 0.70875, 0.9236641, 0.70875, -3.1068702
0.0841765, -0.0135958, 0.7155, -0.0397339, 0.7155, -1.006897, 0.7155, -0.1546021, 0.7155, 0.8320611, 0.7155, 1.0305344, 0.7155, -3.0534351
0.0849706, -0.0169528, 0.72225, -0.0429688, 0.72225, -1.0058594, 0.72225, -0.1552734, 0.72225, 0.9770992, 0.72225, 0.8625954, 0.72225, -3.2442749
0.0857647, -0.0169528, 0.729, -0.0412598, 0.729, -1.0060425, 0.729, -0.1570435, 0.729, 0.961832, 0.729, 0.8091603, 0.729, -3.0534351
0.0865588, -0.0154421, 0.73575, -0.0394287, 0.73575, -1.0046387, 0.73575, -0.1560059, 0.73575, 0.7557252, 0.73575, 0.5267175, 0.73575, -2.961832
0.0873529, -0.0209812, 0.7425, -0.0393066, 0.7425, -1.0056152, 0.7425, -0.1573486, 0.7425, 1.1068702, 0.7425, 0.4351145, 0.7425, -3.0839694
0.0881471, -0.0204776, 0.74925, -0.0391235, 0.74925, -1.0044556, 0.74925, -0.1568604, 0.74925, 0.7862595, 0.74925, 0.610687, 0.74925, -3.1068702
0.0889412, -0.0149386, 0.756, -0.0375366, 0.756, -1.0040894, 0.756, -0.154541, 0.756, 0.9389313, 0.756, 0.6183206, 0.756, -3.0076337
0.0897353, -0.0137636, 0.76275, -0.0388184, 0.76275, -1.0050659, 0.76275, -0.1532593, 0.76275, 0.9541985, 0.76275, 0.7022901, 0.76275, -2.9312978
0.0905294, -0.0119173, 0.7695, -0.0376587, 0.7695, -1.0078125, 0.7695, -0.1557007, 0.7695, 0.9236641, 0.7695, 0.5725191, 0.7695, -3.0076337
0.0913235, -0.0115816, 0.77625, -0.0397949, 0.77625, -1.0082397, 0.77625, -0.15448, 0.77625, 0.778626, 0.77625, 0.4656489, 0.77625, -2.9465649
0.0921176, -0.0109102, 0.783, -0.0461426, 0.783, -1.0063477, 0.783, -0.1540527, 0.783, 0.9923664, 0.783, 0.4885496, 0.783, -3.0534351
0.0929118, -0.0112459, 0.78975, -0.0414429, 0.78975, -1.0033569, 0.78975, -0.1555786, 0.78975, 1.0076336, 0.78975, 0.5725191, 0.78975, -3.0992367
0.0937059, -0.0105745, 0.7965, -0.0415649, 0.7965, -1.0063477, 0.7965, -0.1558838, 0.7965, 0.8167939, 0.7965, 0.4732825, 0.7965, -2.9541984
0.0945, -0.0097353, 0.80325, -0.0396729, 0.80325, -1.0092163, 0.80325, -0.1542358, 0.80325, 0.8931298, 0.80325, 0.5954198, 0.80325, -2.9236641
0.0952941, -0.0099031, 0.81, -0.0396729, 0.81, -1.0046997, 0.81, -0.1556396, 0.81, 0.9465649, 0.81, 0.648855, 0.81, -3.038168
0.0960882, -0.0095674, 0.81675, -0.0411377, 0.81675, -1.0046997, 0.81675, -0.1570435, 0.81675, 0.9770992, 0.81675, 0.8778626, 0.81675, -3.1374047
0.0968824, -0.0102388, 0.8235, -0.0378418, 0.8235, -1.0037842, 0.8235, -0.1555176, 0.8235, 0.8473282, 0.8235, 0.9160305, 0.8235, -3.091603
0.0976765, -0.0142672, 0.83025, -0.0402832, 0.83025, -1.0094604, 0.83025, -0.1584473, 0.83025, 1, 0.83025, 0.9007633, 0.83025, -2.9389312
0.0984706, -0.0171206, 0.837, -0.0406494, 0.837, -1.005127, 0.837, -0.1569824, 0.837, 0.8549618, 0.837, 0.870229, 0.837, -2.9923663
0.0992647, -0.0171206, 0.84375, -0.0413208, 0.84375, -1.0026245, 0.84375, -0.1578369, 0.84375, 1, 0.84375, 0.5725191, 0.84375, -3.1145039
0.1000588, -0.0186313, 0.8505, -0.0420532, 0.8505, -1.0045776, 0.8505, -0.1569824, 0.8505, 1.1832061, 0.8505, 0.5114504, 0.8505, -2.9007633
0.1008529, -0.0169528, 0.85725, -0.0424805, 0.85725, -1.006897, 0.85725, -0.1571655, 0.85725, 1.129771, 0.85725, 0.4732825, 0.85725, -2.961832
0.1016471, -0.0112459, 0.864, -0.0402222, 0.864, -1.0048218, 0.864, -0.1570435, 0.864, 1.0229008, 0.864, 0.389313, 0.864, -3.1984732
0.1024412, -0.0117494, 0.87075, -0.0393677, 0.87075, -1.0055542, 0.87075, -0.1574707, 0.87075, 1.0763359, 0.87075, 0.2748092, 0.87075, -3.1526718
0.1032353, -0.0152743, 0.8775, -0.0394897, 0.8775, -1.0057373, 0.8775, -0.1572266, 0.8775, 1.1145039, 0.8775, 0.2442748, 0.8775, -3.221374
0.1040294, -0.0142672, 0.88425, -0.0386963, 0.88425, -1.0028687, 0.88425, -0.1560059, 0.88425, 0.9007633, 0.88425, 0.480916, 0.88425, -3.1908398
0.1048235, -0.0129244, 0.891, -0.0389404, 0.891, -1.005127, 0.891, -0.1517334, 0.891, 1, 0.891, 0.6564885, 0.891, -3.1603053
0.1056176, -0.0142672, 0.89775, -0.0397339, 0.89775, -1.0044556, 0.89775, -0.1550293, 0.89775, 1.0992366, 0.89775, 0.7557252, 0.89775, -3.129771
0.1064118, -0.0146029, 0.9045, -0.043396, 0.9045, -1.0047607, 0.9045, -0.1536865, 0.9045, 0.9770992, 0.9045, 0.610687, 0.9045, -2.9923663
0.1072059, -0.0162814, 0.91125, -0.0420532, 0.91125, -1.00354, 0.91125, -0.1546021, 0.91125, 0.9770992, 0.91125, 0.8473282, 0.91125, -3.0076337
0.108, -0.0125887, 0.918, -0.0435181, 0.918, -1.0029907, 0.918, -0.1548462, 0.918, 1.0534351, 0.918, 0.8549618, 0.918, -3.091603
0.1087941, -0.0124208, 0.92475, -0.0404053, 0.92475, -1.0037842, 0.92475, -0.1550903, 0.92475, 1.0687023, 0.92475, 0.740458, 0.92475, -3.1068702
0.1095882, -0.0149386, 0.9315, -0.0411377, 0.9315, -1.0062866, 0.9315, -0.1514282, 0.9315, 1.0229008, 0.9315, 0.7022901, 0.9315, -2.8778627
0.1103824, -0.0162814, 0.93825, -0.0396118, 0.93825, -1.0046997, 0.93825, -0.1559448, 0.93825, 1.0458015, 0.93825, 0.8091603, 0.93825, -2.870229
0.1111765, -0.0182956, 0.945, -0.0371704, 0.945, -1.0058594, 0.945, -0.15448, 0.945, 1.0534351, 0.945, 0.648855, 0.945, -3.1145039
0.1119706, -0.0149386, 0.95175, -0.0379639, 0.95175, -1.0028687, 0.95175, -0.1567993, 0.95175, 1, 0.95175, 0.7862595, 0.95175, -3.1068702
0.1127647, -0.0105745, 0.9585, -0.0394897, 0.9585, -1.0046997, 0.9585, -0.1540527, 0.9585, 0.9007633, 0.9585, 0.7633588, 0.9585, -3.091603
0.1135588, -0.0087282, 0.96525, -0.0376587, 0.96525, -1.008728, 0.96525, -0.1548462, 0.96525, 1.1068702, 0.96525, 0.7709923, 0.96525, -3.1145039
0.1143529, -0.0105745, 0.972, -0.0422974, 0.972, -1.0059204, 0.972, -0.1533813, 0.972, 1.129771, 0.972, 0.5954198, 0.972, -3.0458016
0.1151471, -0.0099031, 0.97875, -0.0419312, 0.97875, -1.0037231, 0.97875, -0.1522217, 0.97875, 1.0229008, 0.97875, 0.7709923, 0.97875, -3.0305343
0.1159412, -0.012253, 0.9855, -0.0397339, 0.9855, -1.005127, 0.9855, -0.1550293, 0.9855, 1.0763359, 0.9855, 0.5725191, 0.9855, -3.1603053
0.1167353, -0.012253, 0.99225, -0.0397949, 0.99225, -1.006958, 0.99225, -0.1539307, 0.99225, 1.038168, 0.99225, 0.7099237, 0.99225, -3.0992367
0.1175294, -0.0109102, 0.999, -0.0378418, 0.999, -1.0082397, 0.999, -0.1569824, 0.999, 1, 0.999, 0.8473282, 0.999, -3.2366412
0.1183235, -0.0135958, 1.00575, -0.0405273, 1.00575, -1.0071411, 1.00575, -0.1564331, 1.00575, 1.0687023, 1.00575, 0.9694657, 1.00575, -3.1374047
0.1191176, -0.0164492, 1.0125, -0.039917, 1.0125, -1.0058594, 1.0125, -0.1555176, 1.0125, 1.1526718, 1.0125, 0.9236641, 1.0125, -3.1221373
0.1199118, -0.0161135, 1.01925, -0.041748, 1.01925, -1.0037842, 1.01925, -0.1519165, 1.01925, 1.0076336, 1.01925, 0.9312977, 1.01925, -3.1832061
0.1207059, -0.0132601, 1.026, -0.0437622, 1.026, -1.0068359, 1.026, -0.1578369, 1.026, 1.0305344, 1.026, 0.7480916, 1.026, -3.1145039
0.1215, -0.0179599, 1.03275, -0.0450439, 1.03275, -1.005127, 1.03275, -0.1564331, 1.03275, 1.0610687, 1.03275, 0.7022901, 1.03275, -3.2290077
0.1222941, -0.018967, 1.0395, -0.0444946, 1.0395, -1.0062256, 1.0395, -0.1565552, 1.0395, 0.9694657, 1.0395, 0.5725191, 1.0395, -3.2442749
0.1230882, -0.0169528, 1.04625, -0.0404663, 1.04625, -1.0032349, 1.04625, -0.1538696, 1.04625, 1.1603054, 1.04625, 0.4732825, 1.04625, -3.1145039
0.1238824, -0.0182956, 1.053, -0.0426025, 1.053, -1.0043335, 1.053, -0.1541748, 1.053, 1.0839695, 1.053, 0.5267175, 1.053, -3.0610688
0.1246765, -0.0203098, 1.05975, -0.0385132, 1.05975, -1.0031738, 1.05975, -0.1536865, 1.05975, 1.1679389, 1.05975, 0.6030535, 1.05975, -2.908397
0.1254706, -0.018967, 1.0665, -0.0383301, 1.0665, -1.0012817, 1.0665, -0.1523438, 1.0665, 1.2366412, 1.0665, 0.7175573, 1.0665, -3.1984732
0.1262647, -0.018967, 1.07325, -0.0402832, 1.07325, -1.0025024, 1.07325, -0.1519775, 1.07325, 1.1526718, 1.07325, 0.8778626, 1.07325, -3.2748091
0.1270588, -0.0166171, 1.08, -0.0400391, 1.08, -1.0006714, 1.08, -0.1533203, 1.08, 1.0610687, 1.08, 0.8396947, 1.08, -3.1145039
0.1278529, -0.0171206, 1.08675, -0.0404663, 1.08675, -1.0011597, 1.08675, -0.1533203, 1.08675, 0.8625954, 1.08675, 0.6717557, 1.08675, -3.1450381
0.1286471, -0.0151064, 1.0935, -0.041626, 1.0935, -1.0028687, 1.0935, -0.1539307, 1.0935, 0.9160305, 1.0935, 0.648855, 1.0935, -3.3053436
0.1294412, -0.01561, 1.10025, -0.0380859, 1.10025, -1.0010376, 1.10025, -0.1547241, 1.10025, 1.1374046, 1.10025, 0.610687, 1.10025, -3.1145039
0.1302353, -0.0182956, 1.107, -0.0352783, 1.107, -0.999939, 1.107, -0.1535645, 1.107, 0.9847328, 1.107, 0.8625954, 1.107, -3.1755726
0.1310294, -0.0157778, 1.11375, -0.0378418, 1.11375, -1.0047607, 1.11375, -0.1554565, 1.11375, 0.9389313, 1.11375, 0.7633588, 1.11375, -3.1221373
0.1318235, -0.012253, 1.1205, -0.0395508, 1.1205, -1.0056763, 1.1205, -0.1516724, 1.1205, 0.9694657, 1.1205, 0.9312977, 1.1205, -3.1526718
0.1326176, -0.0125887, 1.12725, -0.0408325, 1.12725, -1.0055542, 1.12725, -0.1546631, 1.12725, 0.908397, 1.12725, 0.9160305, 1.12725, -3.129771
0.1334118, -0.0149386, 1.134, -0.043457, 1.134, -1.0054932, 1.134, -0.1552734, 1.134, 0.9007633, 1.134, 1.0229008, 1.134, -3.0763359
0.1342059, -0.0161135, 1.14075, -0.0421143, 1.14075, -1.006958, 1.14075, -0.1530762, 1.14075, 0.9770992, 1.14075, 0.7709923, 1.14075, -3.038168
0.135, -0.0152743, 1.1475, -0.0424194, 1.1475, -1.0065918, 1.1475, -0.1539917, 1.1475, 0.9694657, 1.1475, 0.7938932, 1.1475, -3.1145039
0.1357941, -0.0142672, 1.15425, -0.039978, 1.15425, -1.0075073, 1.15425, -0.1552124, 1.15425, 0.6717557, 1.15425, 0.7862595, 1.15425, -3.2061069
0.1365882, -0.0132601, 1.161, -0.0394897, 1.161, -1.005249, 1.161, -0.1549072, 1.161, 0.870229, 1.161, 0.8931298, 1.161, -3.0534351
0.1373824, -0.0159457, 1.16775, -0.0397949, 1.16775, -1.0062866, 1.16775, -0.1536255, 1.16775, 0.8320611, 1.16775, 0.9312977, 1.16775, -3.2748091
0.1381765, -0.0149386, 1.1745, -0.039856, 1.1745, -1.0066528, 1.1745, -0.154541, 1.1745, 1.0763359, 1.1745, 0.9160305, 1.1745, -3.1755726
0.1389706, -0.0125887, 1.18125, -0.0410767, 1.18125, -1.0072021, 1.18125, -0.1580811, 1.18125, 1.091603, 1.18125, 0.7328244, 1.18125, -3.1450381
0.1397647, -0.0139315, 1.188, -0.041748, 1.188, -1.0042725, 1.188, -0.1556396, 1.188, 1.0076336, 1.188, 0.5496183, 1.188, -3.2442749
0.1405588, -0.0149386, 1.19475, -0.0424805, 1.19475, -1.0030518, 1.19475, -0.1574707, 1.19475, 0.8854962, 1.19475, 0.5419847, 1.19475, -3.2061069
0.1413529, -0.0146029, 1.2015, -0.0423584, 1.2015, -1.0033569, 1.2015, -0.1555786, 1.2015, 0.9007633, 1.2015, 0.6030535, 1.2015, -3.1755726
0.1421471, -0.0149386, 1.20825, -0.0390015, 1.20825, -1.0033569, 1.20825, -0.1575928, 1.20825, 0.9465649, 1.20825, 0.389313, 1.20825, -3.3129771
0.1429412, -0.0129244, 1.215, -0.043457, 1.215, -1.0043945, 1.215, -0.1567383, 1.215, 0.9007633, 1.215, 0.6183206, 1.215, -3.1908398
0.1437353, -0.0137636, 1.22175, -0.0410767, 1.22175, -1.0055542, 1.22175, -0.1550293, 1.22175, 0.961832, 1.22175, 0.5877863, 1.22175, -3.0839694
0.1445294, -0.0166171, 1.2285, -0.039978, 1.2285, -1.0026245, 1.2285, -0.1572266, 1.2285, 1.1832061, 1.2285, 0.4885496, 1.2285, -3.1832061
0.1453235, -0.0172885, 1.23525, -0.043457, 1.23525, -1.0033569, 1.23525, -0.1543579, 1.23525, 1.1068702, 1.23525, 0.6412213, 1.23525, -3.3358779
0.1461176, -0.0186313, 1.242, -0.0427246, 1.242, -1.0020142, 1.242, -0.1552124, 1.242, 1.0610687, 1.242, 0.6870229, 1.242, -3.1908398
0.1469118, -0.01561, 1.24875, -0.0430298, 1.24875, -1.0032959, 1.24875, -0.1529541, 1.24875, 1.0839695, 1.24875, 0.5114504, 1.24875, -3.221374
0.1477059, -0.0125887, 1.2555, -0.0394897, 1.2555, -1.005188, 1.2555, -0.1537476, 1.2555, 1.1450381, 1.2555, 0.6641222, 1.2555, -3.221374
0.1485, -0.0142672, 1.26225, -0.038147, 1.26225, -1.0049438, 1.26225, -0.1588135, 1.26225, 1.1221374, 1.26225, 0.8244275, 1.26225, -3.1221373
0.1492941, -0.017792, 1.269, -0.0413818, 1.269, -1.0061646, 1.269, -0.1541748, 1.269, 0.9923664, 1.269, 0.7633588, 1.269, -3.2519083
0.1500882, -0.0142672, 1.27575, -0.0408325, 1.27575, -1.0072021, 1.27575, -0.1552734, 1.27575, 0.9541985, 1.27575, 0.778626, 1.27575, -3.3664122
0.1508824, -0.014435, 1.2825, -0.041748, 1.2825, -1.0076294, 1.2825, -0.1572266, 1.2825, 1.0458015, 1.2825, 0.5572519, 1.2825, -3.4045801
0.1516765, -0.0149386, 1.28925, -0.0414429, 1.28925, -1.0053711, 1.28925, -0.1539917, 1.28925, 1.1145039, 1.28925, 0.5877863, 1.28925, -3.2442749
0.1524706, -0.0135958, 1.296, -0.0435181, 1.296, -1.0046997, 1.296, -0.1554565, 1.296, 1.1221374, 1.296, 0.480916, 1.296, -3.4045801
0.1532647, -0.0115816, 1.30275, -0.0412598, 1.30275, -1.0039673, 1.30275, -0.1547241, 1.30275, 1.0458015, 1.30275, 0.4885496, 1.30275, -3.4122138
0.1540588, -0.0073854, 1.3095, -0.0372925, 1.3095, -1.0046997, 1.3095, -0.1517944, 1.3095, 1.2061069, 1.3095, 0.5877863, 1.3095, -3.2442749
0.1548529, -0.0097353, 1.31625, -0.0341797, 1.31625, -1.0061035, 1.31625, -0.1533203, 1.31625, 1.2290076, 1.31625, 0.6946565, 1.31625, -3.1908398
0.1556471, -0.0137636, 1.323, -0.0383911, 1.323, -1.0073242, 1.323, -0.1552734, 1.323, 1.1374046, 1.323, 0.870229, 1.323, -3.2748091
0.1564412, -0.0152743, 1.32975, -0.0377808, 1.32975, -1.0054932, 1.32975, -0.1547852, 1.32975, 0.9923664, 1.32975, 0.8854962, 1.32975, -3.1908398
0.1572353, -0.0203098, 1.3365, -0.0404053, 1.3365, -1.0039062, 1.3365, -0.1524658, 1.3365, 1.1374046, 1.3365, 0.961832, 1.3365, -3.1450381
0.1580294, -0.0181277, 1.34325, -0.0440674, 1.34325, -1.0046387, 1.34325, -0.1554565, 1.34325, 0.9770992, 1.34325, 1.1221374, 1.34325, -3.2061069
0.1588235, -0.0157778, 1.35, -0.043335, 1.35, -1.0039673, 1.35, -0.1560059, 1.35, 1.351145, 1.35, 0.8091603, 1.35, -3.221374
0.1596176, -0.0174563, 1.35675, -0.0426025, 1.35675, -1.0005493, 1.35675, -0.1552124, 1.35675, 1.2137405, 1.35675, 0.8320611, 1.35675, -3.0229008
0.1604118, -0.0179599, 1.3635, -0.0427856, 1.3635, -1.0047607, 1.3635, -0.1570435, 1.3635, 1.1450381, 1.3635, 0.8320611, 1.3635, -3.1450381
0.1612059, -0.0119173, 1.37025, -0.0420532, 1.37025, -1.0026245, 1.37025, -0.1560059, 1.37025, 1.1908396, 1.37025, 0.7099237, 1.37025, -3.1908398
0.162, -0.0099031, 1.377, -0.0426636, 1.377, -1.0021362, 1.377, -0.156311, 1.377, 1.2061069, 1.377, 0.6793893, 1.377, -3.4198472
0.1627941, -0.0132601, 1.38375, -0.0402832, 1.38375, -1.0039062, 1.38375, -0.154541, 1.38375, 1.1603054, 1.38375, 0.6870229, 1.38375, -3.3587787
0.1635882, -0.0135958, 1.3905, -0.0397949, 1.3905, -1.005188, 1.3905, -0.1543579, 1.3905, 1.0305344, 1.3905, 0.9389313, 1.3905, -3.1679389
0.1643824, -0.01561, 1.39725, -0.0385742, 1.39725, -1.0030518, 1.39725, -0.1539917, 1.39725, 1.2977099, 1.39725, 0.9923664, 1.39725, -3.2824428
0.1651765, -0.0149386, 1.404, -0.0395508, 1.404, -1.0030518, 1.404, -0.1524658, 1.404, 1.2137405, 1.404, 1, 1.404, -3.1984732
0.1659706, -0.0169528, 1.41075, -0.0380249, 1.41075, -1.0042114, 1.41075, -0.1494751, 1.41075, 1.1526718, 1.41075, 0.8625954, 1.41075, -3.4045801
0.1667647, -0.0142672, 1.4175, -0.0388794, 1.4175, -1.0057983, 1.4175, -0.1538086, 1.4175, 1.1145039, 1.4175, 1.0152671, 1.4175, -3.2366412
0.1675588, -0.0135958, 1.42425, -0.0435181, 1.42425, -1.0028687, 1.42425, -0.1558228, 1.42425, 1.2824427, 1.42425, 1.0534351, 1.42425, -3.2519083
0.1683529, -0.0159457, 1.431, -0.0389404, 1.431, -1.0039062, 1.431, -0.1518555, 1.431, 1.129771, 1.431, 0.7480916, 1.431, -3.3435113
0.1691471, -0.0176242, 1.43775, -0.0386353, 1.43775, -1.0037231, 1.43775, -0.1524048, 1.43775, 1.0076336, 1.43775, 0.6259542, 1.43775, -3.1450381
0.1699412, -0.0176242, 1.4445, -0.0383911, 1.4445, -1.0056763, 1.4445, -0.1515503, 1.4445, 0.9770992, 1.4445, 0.4961832, 1.4445, -3.2137403
0.1707353, -0.0146029, 1.45125, -0.0415039, 1.45125, -1.0029907, 1.45125, -0.1553345, 1.45125, 0.9923664, 1.45125, 0.740458, 1.45125, -3.3206108
0.1715294, -0.0125887, 1.458, -0.0408936, 1.458, -1.0043945, 1.458, -0.1553345, 1.458, 1.091603, 1.458, 0.7709923, 1.458, -3.2977099
0.1723235, -0.0129244, 1.46475, -0.0438232, 1.46475, -1.0057373, 1.46475, -0.1538086, 1.46475, 1.0458015, 1.46475, 0.8396947, 1.46475, -3.1908398
0.1731176, -0.0102388, 1.4715, -0.0422363, 1.4715, -1.00177, 1.4715, -0.152832, 1.4715, 1.2137405, 1.4715, 0.7022901, 1.4715, -3.2442749
0.1739118, -0.0132601, 1.47825, -0.0420532, 1.47825, -1.003418, 1.47825, -0.1575928, 1.47825, 1.1679389, 1.47825, 0.6793893, 1.47825, -3.2900763
0.1747059, -0.0162814, 1.485, -0.0422363, 1.485, -1.0048218, 1.485, -0.1553345, 1.485, 1.4122137, 1.485, 0.7175573, 1.485, -3.091603
0.1755, -0.0109102, 1.49175, -0.0405273, 1.49175, -1.0048218, 1.49175, -0.1539917, 1.49175, 1.2977099, 1.49175, 0.4961832, 1.49175, -3.2519083
0.1762941, -0.0112459, 1.4985, -0.0386963, 1.4985, -1.003479, 1.4985, -0.1506348, 1.4985, 1.3664122, 1.4985, 0.6183206, 1.4985, -3.3282442
0.1770882, -0.0149386, 1.50525, -0.0367432, 1.50525, -1.0061035, 1.50525, -0.147583, 1.50525, 1.1908396, 1.50525, 0.5267175, 1.50525, -3.4122138
0.1778824, -0.01561, 1.512, -0.0362549, 1.512, -1.0060425, 1.512, -0.152832, 1.512, 1.1603054, 1.512, 0.6259542, 1.512, -3.2442749
0.1786765, -0.0169528, 1.51875, -0.0370483, 1.51875, -1.0061646, 1.51875, -0.1499023, 1.51875, 1.2061069, 1.51875, 0.4122137, 1.51875, -3.3664122
0.1794706, -0.0162814, 1.5255, -0.0380249, 1.5255, -1.0073853, 1.5255, -0.1500854, 1.5255, 1.0534351, 1.5255, 0.5496183, 1.5255, -3.4351146
0.1802647, -0.0167849, 1.53225, -0.0371704, 1.53225, -1.0080566, 1.53225, -0.1490479, 1.53225, 1.1450381, 1.53225, 0.3053435, 1.53225, -3.6030533
0.1810588, -0.0191348, 1.539, -0.0391235, 1.539, -1.0064087, 1.539, -0.147583, 1.539, 1.1526718, 1.539, 0.3358779, 1.539, -3.5038168
0.1818529, -0.018967, 1.54575, -0.0372314, 1.54575, -1.0060425, 1.54575, -0.1528931, 1.54575, 1.091603, 1.54575, 0.4274809, 1.54575, -3.2290077
0.1826471, -0.0172885, 1.5525, -0.0393677, 1.5525, -1.0055542, 1.5525, -0.1522217, 1.5525, 0.9007633, 1.5525, 0.6946565, 1.5525, -3.3358779
0.1834412, -0.0172885, 1.55925, -0.0397339, 1.55925, -1.0056763, 1.55925, -0.1524048, 1.55925, 0.9694657, 1.55925, 0.9007633, 1.55925, -3.3053436
0.1842353, -0.0157778, 1.566, -0.0403442, 1.566, -1.0033569, 1.566, -0.1515503, 1.566, 0.9007633, 1.566, 0.8167939, 1.566, -3.3587787
0.1850294, -0.0142672, 1.57275, -0.0436401, 1.57275, -1.0043945, 1.57275, -0.1571045, 1.57275, 0.9465649, 1.57275, 0.8625954, 1.57275, -3.3282442
0.1858235, -0.0149386, 1.5795, -0.043335, 1.5795, -1.005249, 1.5795, -0.1591187, 1.5795, 1.038168, 1.5795, 0.8473282, 1.5795, -3.2137403
0.1866176, -0.0162814, 1.58625, -0.0412598, 1.58625, -1.0020752, 1.58625, -0.1577148, 1.58625, 0.7709923, 1.58625, 0.7938932, 1.58625, -3.1526718
0.1874118, -0.0152743, 1.593, -0.0401001, 1.593, -1.0029297, 1.593, -0.1586304, 1.593, 0.9236641, 1.593, 0.6946565, 1.593, -3.2900763
0.1882059, -0.0179599, 1.59975, -0.0395508, 1.59975, -1.00177, 1.59975, -0.1554565, 1.59975, 1.1374046, 1.59975, 0.7633588, 1.59975, -3.3740458
0.189, -0.0162814, 1.6065, -0.038269, 1.6065, -1.0042725, 1.6065, -0.1594238, 1.6065, 1.0687023, 1.6065, 0.740458, 1.6065, -3.1832061
0.1897941, -0.0142672, 1.61325, -0.0366211, 1.61325, -1.0021362, 1.61325, -0.1600342, 1.61325, 1.389313, 1.61325, 0.7938932, 1.61325, -3.1832061
0.1905882, -0.0182956, 1.62, -0.0401001, 1.62, -1.0014648, 1.62, -0.1616211, 1.62, 1.259542, 1.62, 0.7175573, 1.62, -3.3129771
0.1913824, -0.0216526, 1.62675, -0.0386353, 1.62675, -1.00354, 1.62675, -0.1582031, 1.62675, 1.129771, 1.62675, 0.610687, 1.62675, -3.3053436
0.1921765, -0.0219883, 1.6335, -0.0443115, 1.6335, -1.0040283, 1.6335, -0.1612549, 1.6335, 1.2290076, 1.6335, 0.6946565, 1.6335, -3.2290077
0.1929706, -0.0203098, 1.64025, -0.043396, 1.64025, -1.0089111, 1.64025, -0.1554565, 1.64025, 1.351145, 1.64025, 0.3282443, 1.64025, -3.3206108
0.1937647, -0.0162814, 1.647, -0.0377197, 1.647, -1.0101929, 1.647, -0.1505127, 1.647, 1.480916, 1.647, -0.1908397, 1.647, -3.5114503
0.1945588, -0.0149386, 1.65375, -0.031311, 1.65375, -1.0107422, 1.65375, -0.1436157, 1.65375, 1.6946565, 1.65375, -0.3053435, 1.65375, -3.5572519
0.1953529, -0.0112459, 1.6605, -0.0302124, 1.6605, -1.0075073, 1.6605, -0.1452637, 1.6605, 1.740458, 1.6605, 0.1755725, 1.6605, -3.6335878
0.1961471, -0.0102388, 1.66725, -0.0307007, 1.66725, -1.005188, 1.66725, -0.1464844, 1.66725, 1.5954199, 1.66725, 1.1755725, 1.66725, -3.2900763
0.1969412, -0.012253, 1.674, -0.0384521, 1.674, -1.0084839, 1.674, -0.1438599, 1.674, 1.5038168, 1.674, 1.8549619, 1.674, -3.4351146
0.1977353, -0.0105745, 1.68075, -0.0493164, 1.68075, -1.0117188, 1.68075, -0.1442261, 1.68075, 1.8473282, 1.68075, 2.091603, 1.68075, -3.4732823
0.1985294, -0.012253, 1.6875, -0.0521851, 1.6875, -1.0056152, 1.6875, -0.1505737, 1.6875, 2.0534351, 1.6875, 1.6335878, 1.6875, -3.5038168
0.1993235, -0.0135958, 1.69425, -0.0490723, 1.69425, -0.9953003, 1.69425, -0.1543579, 1.69425, 1.8244275, 1.69425, 1.3282443, 1.69425, -3.3282442
0.2001176, -0.0095674, 1.701, -0.038208, 1.701, -0.9942627, 1.701, -0.1612549, 1.701, 2, 1.701, 1.4045801, 1.701, -3.3740458
0.2009118, -0.0109102, 1.70775, -0.0317993, 1.70775, -0.9917603, 1.70775, -0.1491089, 1.70775, 2.0534351, 1.70775, 0.8625954, 1.70775, -3.4274809
0.2017059, -0.0115816, 1.7145, -0.013855, 1.7145, -1.0014648, 1.7145, -0.1263428, 1.7145, 2.2366412, 1.7145, 0.6564885, 1.7145, -3.4045801
0.2025, -0.0132601, 1.72125, -0.0007324, 1.72125, -1.0093384, 1.72125, -0.1254272, 1.72125, 2.6564887, 1.72125, 1.3358779, 1.72125, -3.6183207
0.2032941, -0.0115816, 1.728, 0.0020752, 1.728, -0.9991455, 1.728, -0.1379395, 1.728, 2.8396947, 1.728, 2.8473282, 1.728, -3.6335878
0.2040882, -0.0095674, 1.73475, 0.0018921, 1.73475, -1.0062256, 1.73475, -0.1367798, 1.73475, 2.4656489, 1.73475, 4.8167939, 1.73475, -3.4885497
0.2048824, -0.0082246, 1.7415, -0.0262451, 1.7415, -1.0170898, 1.7415, -0.1380005, 1.7415, 2.2977099, 1.7415, 6.8473282, 1.7415, -3.4503818
0.2056765, -0.008896, 1.74825, -0.0574951, 1.74825, -1.0231934, 1.74825, -0.1345825, 1.74825, 2.4503818, 1.74825, 6.6717558, 1.74825, -3.259542
0.2064706, -0.0142672, 1.755, -0.079895, 1.755, -1.0269775, 1.755, -0.1416016, 1.755, 2.4961832, 1.755, 5.5954199, 1.755, -3.4885497
0.2072647, -0.0130922, 1.76175, -0.0827026, 1.76175, -1.015686, 1.76175, -0.15802, 1.76175, 2.7862597, 1.76175, 4.1984735, 1.76175, -3.519084
0.2080588, -0.0151064, 1.7685, -0.0805054, 1.7685, -1.0067749, 1.7685, -0.1592407, 1.7685, 2.3740458, 1.7685, 2.3206108, 1.7685, -3.4580152
0.2088529, -0.0166171, 1.77525, -0.0620728, 1.77525, -1.0023193, 1.77525, -0.1535645, 1.77525, 1.8167939, 1.77525, 1.1526718, 1.77525, -3.648855
0.2096471, -0.0194705, 1.782, -0.046936, 1.782, -1.00354, 1.782, -0.1540527, 1.782, 2.0763359, 1.782, 1.129771, 1.782, -3.6870229
0.2104412, -0.0196384, 1.78875, -0.0370483, 1.78875, -0.9993896, 1.78875, -0.1524658, 1.78875, 1.9007634, 1.78875, 1.2748091, 1.78875, -3.5954199
0.2112353, -0.0193027, 1.7955, -0.03125, 1.7955, -0.9949951, 1.7955, -0.1496582, 1.7955, 1.961832, 1.7955, 1.5954199, 1.7955, -3.6793892
0.2120294, -0.0198062, 1.80225, -0.0234985, 1.80225, -0.9968262, 1.80225, -0.1489258, 1.80225, 1.7557251, 1.80225, 2.0992367, 1.80225, -3.5114503
0.2128235, -0.0179599, 1.809, -0.0297241, 1.809, -0.9960938, 1.809, -0.1516724, 1.809, 1.3969465, 1.809, 2.8320611, 1.809, -3.2977099
0.2136176, -0.0169528, 1.81575, -0.0366821, 1.81575, -0.9991455, 1.81575, -0.1535645, 1.81575, 1.3587786, 1.81575, 2.9312978, 1.81575, -3.3206108
0.2144118, -0.0139315, 1.8225, -0.0454712, 1.8225, -0.9992676, 1.8225, -0.1578979, 1.8225, 1.1755725, 1.8225, 2.3664122, 1.8225, -3.389313
0.2152059, -0.0095674, 1.82925, -0.0471191, 1.82925, -1.0020142, 1.82925, -0.1625977, 1.82925, 1.1450381, 1.82925, 1.8396946, 1.82925, -3.129771
0.216, -0.0119173, 1.836, -0.0441284, 1.836, -1.0076294, 1.836, -0.1646729, 1.836, 1.4351145, 1.836, 1.2290076, 1.836, -3.1984732
0.2167941, -0.0119173, 1.84275, -0.0402222, 1.84275, -1.0095825, 1.84275, -0.1625366, 1.84275, 1.4503816, 1.84275, 0.5572519, 1.84275, -3.5038168
0.2175882, -0.0139315, 1.8495, -0.0362549, 1.8495, -1.0109253, 1.8495, -0.15979, 1.8495, 1.9770992, 1.8495, 0.221374, 1.8495, -3.480916
0.2183824, -0.0139315, 1.85625, -0.0301514, 1.85625, -1.0178223, 1.85625, -0.1501465, 1.85625, 2.2671757, 1.85625, 0.2290076, 1.85625, -3.3664122
0.2191765, -0.0140993, 1.863, -0.024292, 1.863, -1.0194702, 1.863, -0.147583, 1.863, 2.610687, 1.863, 0.7938932, 1.863, -3.5114503
0.2199706, -0.0115816, 1.86975, -0.0251465, 1.86975, -1.0135498, 1.86975, -0.1570435, 1.86975, 2.5801528, 1.86975, 1.1603054, 1.86975, -3.4503818
0.2207647, -0.0065461, 1.8765, -0.0274048, 1.8765, -1.0112915, 1.8765, -0.15625, 1.8765, 2.4961832, 1.8765, 1.9694656, 1.8765, -3.2748091
0.2215588, -0.0068818, 1.88325, -0.0370483, 1.88325, -1.0178223, 1.88325, -0.1456299, 1.88325, 2.2824428, 1.88325, 2.8854961, 1.88325, -2.9694657
0.2223529, -0.0112459, 1.89, -0.0436401, 1.89, -1.0143433, 1.89, -0.1461182, 1.89, 2.2519083, 1.89, 3.4198472, 1.89, -2.9465649
0.2231471, -0.0125887, 1.89675, -0.0460205, 1.89675, -1.0090942, 1.89675, -0.1460571, 1.89675, 2.1908398, 1.89675, 3.1984732, 1.89675, -2.8396947
0.2239412, -0.0129244, 1.9035, -0.0394897, 1.9035, -1.0079346, 1.9035, -0.1503296, 1.9035, 2.0152671, 1.9035, 2.7251909, 1.9035, -2.7175572
0.2247353, -0.0115816, 1.91025, -0.0298462, 1.91025, -1.0054321, 1.91025, -0.1419678, 1.91025, 1.9847329, 1.91025, 2.2748091, 1.91025, -2.5572519
0.2255294, -0.0112459, 1.917, -0.0218506, 1.917, -1.001709, 1.917, -0.1425171, 1.917, 1.8549619, 1.917, 2.5801528, 1.917, -2.6870229
0.2263235, -0.0125887, 1.92375, -0.0231934, 1.92375, -1.0002441, 1.92375, -0.1459961, 1.92375, 1.5648855, 1.92375, 2.9541984, 1.92375, -2.4427481
0.2271176, -0.0129244, 1.9305, -0.0291138, 1.9305, -1.0001221, 1.9305, -0.1467285, 1.9305, 1.1526718, 1.9305, 3.2442749, 1.9305, -2.4122138
0.2279118, -0.0135958, 1.93725, -0.0307617, 1.93725, -0.9986572, 1.93725, -0.1463013, 1.93725, 1.1450381, 1.93725, 3.7938931, 1.93725, -2.3664122
0.2287059, -0.0115816, 1.944, -0.0373535, 1.944, -0.9967651, 1.944, -0.1491089, 1.944, 0.9694657, 1.944, 3.7709923, 1.944, -2.4656489
0.2295, -0.012253, 1.95075, -0.0466919, 1.95075, -0.9940796, 1.95075, -0.1491089, 1.95075, 0.9160305, 1.95075, 3.648855, 1.95075, -2.5572519
0.2302941, -0.014435, 1.9575, -0.0504761, 1.9575, -0.9942017, 1.9575, -0.1486816, 1.9575, 0.8549618, 1.9575, 3.3206108, 1.9575, -2.4732823
0.2310882, -0.0139315, 1.96425, -0.0479126, 1.96425, -0.9971924, 1.96425, -0.1519775, 1.96425, 0.610687, 1.96425, 2.8244274, 1.96425, -2.3358779
0.2318824, -0.0171206, 1.971, -0.0483398, 1.971, -0.9971313, 1.971, -0.1530762, 1.971, 0.5419847, 1.971, 2.4885497, 1.971, -2.6412213
0.2326765, -0.0162814, 1.97775, -0.0463867, 1.97775, -0.9979858, 1.97775, -0.1517334, 1.97775, 0.6030535, 1.97775, 2.129771, 1.97775, -2.7633588
0.2334706, -0.0169528, 1.9845, -0.0452271, 1.9845, -1.0037842, 1.9845, -0.1535034, 1.9845, 0.5877863, 1.9845, 1.5801526, 1.9845, -2.8244274
0.2342647, -0.0191348, 1.99125, -0.0496826, 1.99125, -1.0070801, 1.99125, -0.1575928, 1.99125, 0.6793893, 1.99125, 0.908397, 1.99125, -2.9541984
0.2350588, -0.0176242, 1.998, -0.0490723, 1.998, -1.0095215, 1.998, -0.1565552, 1.998, 0.6183206, 1.998, 0.519084, 1.998, -3.0076337
0.2358529, -0.01561, 2.00475, -0.0487671, 2.00475, -1.0111084, 2.00475, -0.1519775, 2.00475, 1.1526718, 2.00475, 0.0534351, 2.00475, -3.1526718
0.2366471, -0.0169528, 2.0115, -0.0456543, 2.0115, -1.0114136, 2.0115, -0.1536255, 2.0115, 1.2442749, 2.0115, 0.1145038, 2.0115, -3.2671757
0.2374412, -0.0193027, 2.01825, -0.0512085, 2.01825, -1.0093384, 2.01825, -0.1557617, 2.01825, 1.038168, 2.01825, 0.221374, 2.01825, -3.259542
0.2382353, -0.0196384, 2.025, -0.0541992, 2.025, -1.0050659, 2.025, -0.1567993, 2.025, 1.1145039, 2.025, 0.2900763, 2.025, -3.2748091
0.2390294, -0.0166171, 2.03175, -0.0568237, 2.03175, -1.0079956, 2.03175, -0.1587524, 2.03175, 1.1755725, 2.03175, 0.2748092, 2.03175, -3.2671757
0.2398235, -0.01561, 2.0385, -0.0531006, 2.0385, -1.006958, 2.0385, -0.1580811, 2.0385, 1.1679389, 2.0385, 0.0992366, 2.0385, -3.2748091
0.2406176, -0.0184634, 2.04525, -0.0484009, 2.04525, -1.0025024, 2.04525, -0.1591187, 2.04525, 1.0076336, 2.04525, -0.2824427, 2.04525, -3.480916
0.2414118, -0.018967, 2.052, -0.0422363, 2.052, -1.0064087, 2.052, -0.1605225, 2.052, 1.1679389, 2.052, -0.4198473, 2.052, -3.5572519
0.2422059, -0.0164492, 2.05875, -0.0418091, 2.05875, -1.0059204, 2.05875, -0.1641846, 2.05875, 1.3664122, 2.05875, -0.4198473, 2.05875, -3.6259542
0.243, -0.0149386, 2.0655, -0.0374146, 2.0655, -1.007019, 2.0655, -0.1637573, 2.0655, 1.3129771, 2.0655, -0.4961832, 2.0655, -3.6870229
0.2437941, -0.0159457, 2.07225, -0.0390015, 2.07225, -1.0012817, 2.07225, -0.1652222, 2.07225, 1.5725191, 2.07225, -0.480916, 2.07225, -3.6030533
0.2445882, -0.0176242, 2.079, -0.0400391, 2.079, -1.0014648, 2.079, -0.1654053, 2.079, 1.4961832, 2.079, -0.870229, 2.079, -3.8549619
0.2453824, -0.0154421, 2.08575, -0.0444946, 2.08575, -1.0015869, 2.08575, -0.1641846, 2.08575, 1.5038168, 2.08575, -1.0534351, 2.08575, -4.0076337
0.2461765, -0.0152743, 2.0925, -0.0474854, 2.0925, -1.0054932, 2.0925, -0.1608276, 2.0925, 1.7099236, 2.0925, -1.2977099, 2.0925, -4
0.2469706, -0.017792, 2.09925, -0.0480957, 2.09925, -1.0036621, 2.09925, -0.1542358, 2.09925, 1.8244275, 2.09925, -1.5801526, 2.09925, -3.9236641
0.2477647, -0.014435, 2.106, -0.045105, 2.106, -1.0059204, 2.106, -0.1515503, 2.106, 2.0763359, 2.106, -1.9694656, 2.106, -4.1221375
0.2485588, -0.0130922, 2.11275, -0.0441284, 2.11275, -1.0014648, 2.11275, -0.1517334, 2.11275, 2.2824428, 2.11275, -1.8320611, 2.11275, -4.1450381
0.2493529, -0.0135958, 2.1195, -0.039978, 2.1195, -1.0007935, 2.1195, -0.1511841, 2.1195, 2.0610688, 2.1195, -1.5343511, 2.1195, -4.2442746
0.2501471, -0.0166171, 2.12625, -0.041626, 2.12625, -1.000061, 2.12625, -0.1437378, 2.12625, 2, 2.12625, -1.2900764, 2.12625, -4.2290077
0.2509412, -0.017792, 2.133, -0.0357666, 2.133, -1.0063477, 2.133, -0.1415405, 2.133, 2.0610688, 2.133, -0.9847328, 2.133, -4.2519083
0.2517353, -0.014435, 2.13975, -0.0366211, 2.13975, -0.9995117, 2.13975, -0.1444702, 2.13975, 1.9694656, 2.13975, -0.3816794, 2.13975, -4.4045801
0.2525294, -0.0142672, 2.1465, -0.0410156, 2.1465, -0.9978638, 2.1465, -0.145752, 2.1465, 1.7709924, 2.1465, -0.0152672, 2.1465, -4.1297708
0.2533235, -0.0114137, 2.15325, -0.0391846, 2.15325, -0.999939, 2.15325, -0.1446533, 2.15325, 1.6946565, 2.15325, -0.0916031, 2.15325, -4.1908398
0.2541176, -0.0112459, 2.16, -0.039917, 2.16, -1.00177, 2.16, -0.1411743, 2.16, 1.7328244, 2.16, -0.4427481, 2.16, -4.1450381
0.2549118, -0.0149386, 2.16675, -0.0325317, 2.16675, -1.0036621, 2.16675, -0.1364136, 2.16675, 1.9007634, 2.16675, -0.3816794, 2.16675, -4.1526718
0.2557059, -0.0135958, 2.1735, -0.0271606, 2.1735, -1.0067139, 2.1735, -0.1409302, 2.1735, 1.908397, 2.1735, -0.1145038, 2.1735, -3.908397
0.2565, -0.0095674, 2.18025, -0.0252686, 2.18025, -1.0083008, 2.18025, -0.1386719, 2.18025, 1.9312977, 2.18025, 0.3587786, 2.18025, -3.9923663
0.2572941, -0.0109102, 2.187, -0.0252075, 2.187, -1.0073242, 2.187, -0.140625, 2.187, 1.8167939, 2.187, 0.8396947, 2.187, -4.0152674
0.2580882, -0.0129244, 2.19375, -0.0319824, 2.19375, -1.0097046, 2.19375, -0.1403198, 2.19375, 2.0458016, 2.19375, 0.9236641, 2.19375, -4.1145039
0.2588824, -0.0125887, 2.2005, -0.038208, 2.2005, -1.0095825, 2.2005, -0.1480103, 2.2005, 1.9160305, 2.2005, 0.8091603, 2.2005, -4.3435116
0.2596765, -0.0125887, 2.20725, -0.0413818, 2.20725, -1.0078735, 2.20725, -0.1488647, 2.20725, 1.9236641, 2.20725, 1.3053435, 2.20725, -4.1984735
0.2604706, -0.0124208, 2.214, -0.0386353, 2.214, -1.0097046, 2.214, -0.1460571, 2.214, 1.9007634, 2.214, 1.2290076, 2.214, -4.4885497
0.2612647, -0.0109102, 2.22075, -0.0319824, 2.22075, -1.0054932, 2.22075, -0.144104, 2.22075, 1.8931298, 2.22075, 1.2137405, 2.22075, -4.3969464
0.2620588, -0.0124208, 2.2275, -0.0296021, 2.2275, -1.0039062, 2.2275, -0.144043, 2.2275, 1.8549619, 2.2275, 1.3282443, 2.2275, -4.2824426
0.2628529, -0.0132601, 2.23425, -0.0313721, 2.23425, -1.0029297, 2.23425, -0.1460571, 2.23425, 1.8167939, 2.23425, 1.9923664, 2.23425, -4.1068702
0.2636471, -0.0151064, 2.241, -0.0291138, 2.241, -1.0027466, 2.241, -0.1453247, 2.241, 1.7022901, 2.241, 2.8015268, 2.241, -4.2442746
0.2644412, -0.0146029, 2.24775, -0.0357056, 2.24775, -1.0065308, 2.24775, -0.1394043, 2.24775, 1.9007634, 2.24775, 3.129771, 2.24775, -4.2137403
0.2652353, -0.0176242, 2.2545, -0.0343628, 2.2545, -1.0023804, 2.2545, -0.1430054, 2.2545, 2.0076337, 2.2545, 2.9694657, 2.2545, -4.3206105
0.2660294, -0.0186313, 2.26125, -0.0288086, 2.26125, -1.0055542, 2.26125, -0.1445312, 2.26125, 1.8778626, 2.26125, 3.0076337, 2.26125, -4.1450381
0.2668235, -0.0176242, 2.268, -0.027832, 2.268, -1.0012207, 2.268, -0.144104, 2.268, 1.5954199, 2.268, 3.0076337, 2.268, -3.9694657
0.2676176, -0.0209812, 2.27475, -0.0234985, 2.27475, -1.003418, 2.27475, -0.1401978, 2.27475, 1.3282443, 2.27475, 3.3129771, 2.27475, -3.9923663
0.2684118, -0.018967, 2.2815, -0.0238647, 2.2815, -1.006958, 2.2815, -0.1361084, 2.2815, 1.3816794, 2.2815, 3.9465649, 2.2815, -4
0.2692059, -0.0186313, 2.28825, -0.0252686, 2.28825, -1.0057983, 2.28825, -0.1381226, 2.28825, 1.5496184, 2.28825, 4.4122138, 2.28825, -3.9236641
0.27, -0.0146029, 2.295, -0.0292358, 2.295, -1.0040894, 2.295, -0.1437988, 2.295, 1.7022901, 2.295, 4.6946564, 2.295, -3.7633588
0.2707941, -0.0135958, 2.30175, -0.03125, 2.30175, -1.0048218, 2.30175, -0.1434326, 2.30175, 1.7022901, 2.30175, 4.9541984, 2.30175, -3.5496182
0.2715882, -0.0127565, 2.3085, -0.0292969, 2.3085, -1.0076294, 2.3085, -0.1422119, 2.3085, 1.5954199, 2.3085, 5.1526718, 2.3085, -3.4656489
0.2723824, -0.0139315, 2.31525, -0.0261841, 2.31525, -1.0088501, 2.31525, -0.1422119, 2.31525, 1.7251909, 2.31525, 5.1679387, 2.31525, -3.5267177
0.2731765, -0.0142672, 2.322, -0.0296021, 2.322, -1.0088501, 2.322, -0.1436768, 2.322, 1.6335878, 2.322, 5.2977099, 2.322, -3.4122138
0.2739706, -0.0115816, 2.32875, -0.0294189, 2.32875, -1.0075684, 2.32875, -0.1437378, 2.32875, 1.6259542, 2.32875, 5.6259542, 2.32875, -3.3053436
0.2747647, -0.0124208, 2.3355, -0.0288086, 2.3355, -1.0076904, 2.3355, -0.1422729, 2.3355, 1.5114504, 2.3355, 5.8702292, 2.3355, -3.2900763
0.2755588, -0.01561, 2.34225, -0.0345459, 2.34225, -1.0071411, 2.34225, -0.1484375, 2.34225, 1.4122137, 2.34225, 6.4427481, 2.34225, -3.0458016
0.2763529, -0.0151064, 2.349, -0.0394897, 2.349, -1.0062866, 2.349, -0.1497803, 2.349, 1.4580153, 2.349, 6.2061067, 2.349, -3.1984732
0.2771471, -0.0130922, 2.35575, -0.0341187, 2.35575, -1.008606, 2.35575, -0.1463623, 2.35575, 1.3282443, 2.35575, 5.9236641, 2.35575, -2.9923663
0.2779412, -0.0125887, 2.3625, -0.0305176, 2.3625, -1.0083008, 2.3625, -0.1461792, 2.3625, 1.3206106, 2.3625, 5.8931298, 2.3625, -2.8473282
0.2787353, -0.0125887, 2.36925, -0.0325928, 2.36925, -1.0061646, 2.36925, -0.151001, 2.36925, 1.3587786, 2.36925, 6.0152674, 2.36925, -2.8549619
0.2795294, -0.0135958, 2.376, -0.0341797, 2.376, -1.0036621, 2.376, -0.1517334, 2.376, 1.3358779, 2.376, 6.1984735, 2.376, -2.8015268
0.2803235, -0.0124208, 2.38275, -0.0314941, 2.38275, -1.0018311, 2.38275, -0.1484375, 2.38275, 1.2137405, 2.38275, 6.1297708, 2.38275, -2.7251909
0.2811176, -0.0109102, 2.3895, -0.0322266, 2.3895, -1.0023193, 2.3895, -0.149353, 2.3895, 1.1755725, 2.3895, 5.8320613, 2.3895, -2.6259542
0.2819118, -0.0135958, 2.39625, -0.0307617, 2.39625, -1.0076294, 2.39625, -0.1451416, 2.39625, 1.0839695, 2.39625, 5.6793895, 2.39625, -2.6717558
0.2827059, -0.0169528, 2.403, -0.0302734, 2.403, -1.0088501, 2.403, -0.145752, 2.403, 1.6259542, 2.403, 5.4732823, 2.403, -2.7862597
0.2835, -0.0142672, 2.40975, -0.0285645, 2.40975, -1.0053711, 2.40975, -0.1427002, 2.40975, 1.5038168, 2.40975, 5.6488547, 2.40975, -2.740458
0.2842941, -0.0124208, 2.4165, -0.0289917, 2.4165, -1.0057983, 2.4165, -0.1433105, 2.4165, 1.4274809, 2.4165, 5.8244276, 2.4165, -2.610687
0.2850882, -0.01561, 2.42325, -0.0371704, 2.42325, -1.0073853, 2.42325, -0.1460571, 2.42325, 1.259542, 2.42325, 6.0152674, 2.42325, -2.6717558
0.2858824, -0.0149386, 2.43, -0.0441284, 2.43, -1.0055542, 2.43, -0.1488647, 2.43, 1.2137405, 2.43, 5.9541984, 2.43, -2.610687
0.2866765, -0.0146029, 2.43675, -0.0406494, 2.43675, -1.0016479, 2.43675, -0.1445312, 2.43675, 1.3053435, 2.43675, 5.5877862, 2.43675, -2.5954199
0.2874706, -0.0169528, 2.4435, -0.0420532, 2.4435, -1.0031128, 2.4435, -0.1446533, 2.4435, 1.091603, 2.4435, 5.0992365, 2.4435, -2.4656489
0.2882647, -0.0162814, 2.45025, -0.0409546, 2.45025, -1.0040894, 2.45025, -0.1478882, 2.45025, 0.9160305, 2.45025, 4.6335878, 2.45025, -2.389313
0.2890588, -0.0151064, 2.457, -0.0367432, 2.457, -1.0039673, 2.457, -0.1450806, 2.457, 0.7480916, 2.457, 4.519084, 2.457, -2.3587787
0.2898529, -0.0149386, 2.46375, -0.03479, 2.46375, -1.0011597, 2.46375, -0.145874, 2.46375, 0.4732825, 2.46375, 4.1984735, 2.46375, -2.351145
0.2906471, -0.0159457, 2.4705, -0.0351562, 2.4705, -1, 2.4705, -0.1446533, 2.4705, 0.6946565, 2.4705, 3.7557251, 2.4705, -2.1984732
0.2914412, -0.0167849, 2.47725, -0.0343018, 2.47725, -1.0019531, 2.47725, -0.1472778, 2.47725, 0.4656489, 2.47725, 3.6183207, 2.47725, -2.3358779
0.2922353, -0.01561, 2.484, -0.0322876, 2.484, -1.0002441, 2.484, -0.1439209, 2.484, 0.4274809, 2.484, 3.3740458, 2.484, -2.1908398
0.2930294, -0.0166171, 2.49075, -0.0316772, 2.49075, -1.0012207, 2.49075, -0.145752, 2.49075, 0.3053435, 2.49075, 3.2137403, 2.49075, -2.1603053
0.2938235, -0.0130922, 2.4975, -0.0358276, 2.4975, -1.0002441, 2.4975, -0.1452026, 2.4975, 0.4427481, 2.4975, 3.1221373, 2.4975, -2.2519083
0.2946176, -0.0119173, 2.50425, -0.0386963, 2.50425, -1.003418, 2.50425, -0.1494751, 2.50425, 0.5572519, 2.50425, 2.6870229, 2.50425, -2.259542
0.2954118, -0.0104067, 2.511, -0.0410767, 2.511, -1.0048828, 2.511, -0.1513672, 2.511, 0.480916, 2.511, 2.4045801, 2.511, -2.2824428
0.2962059, -0.0102388, 2.51775, -0.0369873, 2.51775, -1.0056152, 2.51775, -0.1497803, 2.51775, 0.4122137, 2.51775, 1.9160305, 2.51775, -2.4732823
0.297, -0.0119173, 2.5245, -0.0353394, 2.5245, -1.0064697, 2.5245, -0.1516113, 2.5245, 0.4503817, 2.5245, 1.5114504, 2.5245, -2.389313
0.2977941, -0.0115816, 2.53125, -0.0386963, 2.53125, -1.0095825, 2.53125, -0.1508789, 2.53125, 0.5343512, 2.53125, 1.5114504, 2.53125, -2.4351146
0.2985882, -0.012253, 2.538, -0.0343018, 2.538, -1.0108643, 2.538, -0.1495972, 2.538, 0.7480916, 2.538, 1.5648855, 2.538, -2.3969467
0.2993824, -0.0132601, 2.54475, -0.0390015, 2.54475, -1.0079956, 2.54475, -0.1516724, 2.54475, 0.7022901, 2.54475, 1.2900764, 2.54475, -2.3587787
0.3001765, -0.0152743, 2.5515, -0.0378418, 2.5515, -1.0057373, 2.5515, -0.1502686, 2.5515, 0.740458, 2.5515, 1.2671756, 2.5515, -2.2900763
0.3009706, -0.0184634, 2.55825, -0.0389404, 2.55825, -1.003418, 2.55825, -0.1459351, 2.55825, 0.610687, 2.55825, 0.961832, 2.55825, -2.2061069
0.3017647, -0.018967, 2.565, -0.0375977, 2.565, -1.0073853, 2.565, -0.1461792, 2.565, 0.5572519, 2.565, 0.8931298, 2.565, -2.3435113
0.3025588, -0.0162814, 2.57175, -0.0335083, 2.57175, -1.0044556, 2.57175, -0.1425171, 2.57175, 0.6259542, 2.57175, 1.0305344, 2.57175, -2.1450381
0.3033529, -0.0176242, 2.5785, -0.0332642, 2.5785, -1.0029297, 2.5785, -0.1414185, 2.5785, 0.3206107, 2.5785, 0.7022901, 2.5785, -2.1374047
0.3041471, -0.0182956, 2.58525, -0.0299683, 2.58525, -1.0028076, 2.58525, -0.1439819, 2.58525, 0.2748092, 2.58525, 0.4274809, 2.58525, -2.2900763
0.3049412, -0.0159457, 2.592, -0.0279541, 2.592, -1.0027466, 2.592, -0.142395, 2.592, 0.3129771, 2.592, 0.5496183, 2.592, -2.2671757
0.3057353, -0.0149386, 2.59875, -0.029541, 2.59875, -1.005188, 2.59875, -0.1452026, 2.59875, 0.1984733, 2.59875, 0.8015267, 2.59875, -2.1908398
0.3065294, -0.0152743, 2.6055, -0.0321655, 2.6055, -1.0058594, 2.6055, -0.1392822, 2.6055, 0.0687023, 2.6055, 0.4503817, 2.6055, -2.0076337
0.3073235, -0.0142672, 2.61225, -0.0333252, 2.61225, -1.012207, 2.61225, -0.1418457, 2.61225, 0.2900763, 2.61225, 0.4274809, 2.61225, -1.8778626
0.3081176, -0.0186313, 2.619, -0.0332642, 2.619, -1.0112305, 2.619, -0.1452637, 2.619, 0.480916, 2.619, 0.3587786, 2.619, -1.870229
0.3089118, -0.0194705, 2.62575, -0.0362549, 2.62575, -1.0085449, 2.62575, -0.1463013, 2.62575, 0.3129771, 2.62575, 0.4503817, 2.62575, -2
0.3097059, -0.0193027, 2.6325, -0.0379028, 2.6325, -1.0076904, 2.6325, -0.1422119, 2.6325, 0.4351145, 2.6325, 0.4122137, 2.6325, -1.8091604
0.3105, -0.0179599, 2.63925, -0.0388184, 2.63925, -1.0067749, 2.63925, -0.1489258, 2.63925, 0.6183206, 2.63925, 0.129771, 2.63925, -1.7557251
0.3112941, -0.0169528, 2.646, -0.0422363, 2.646, -1.0061646, 2.646, -0.1505127, 2.646, 0.5801527, 2.646, -0.2137405, 2.646, -1.8549619
0.3120882, -0.0142672, 2.65275, -0.0386353, 2.65275, -1.0033569, 2.65275, -0.1499634, 2.65275, 0.7480916, 2.65275, -0.2290076, 2.65275, -2.0152671
0.3128824, -0.0146029, 2.6595, -0.0352783, 2.6595, -1.0040894, 2.6595, -0.1489868, 2.6595, 0.7099237, 2.6595, -0.3358779, 2.6595, -1.9770992
0.3136765, -0.0146029, 2.66625, -0.0379639, 2.66625, -1.0057983, 2.66625, -0.1533813, 2.66625, 0.7328244, 2.66625, -0.6183206, 2.66625, -1.9541985
0.3144706, -0.0157778, 2.673, -0.036499, 2.673, -1.0002441, 2.673, -0.1553955, 2.673, 0.7328244, 2.673, -0.6717557, 2.673, -1.8931298
0.3152647, -0.0159457, 2.67975, -0.0391846, 2.67975, -1.0011597, 2.67975, -0.1503296, 2.67975, 0.648855, 2.67975, -0.7099237, 2.67975, -1.8320611
0.3160588, -0.01561, 2.6865, -0.039917, 2.6865, -1.0032349, 2.6865, -0.1502075, 2.6865, 0.7862595, 2.6865, -0.778626, 2.6865, -1.9007634
0.3168529, -0.0176242, 2.69325, -0.0419312, 2.69325, -1.0009766, 2.69325, -0.1499023, 2.69325, 0.610687, 2.69325, -0.7709923, 2.69325, -1.8167939
0.3176471, -0.018967, 2.7, -0.0423584, 2.7, -1.0019531, 2.7, -0.1498413, 2.7, 0.480916, 2.7, -0.9541985, 2.7, -1.8854961
0.3184412, -0.0169528, 2.70675, -0.043457, 2.70675, -0.999939, 2.70675, -0.1481934, 2.70675, 0.6183206, 2.70675, -0.8549618, 2.70675, -1.648855
0.3192353, -0.0135958, 2.7135, -0.0423584, 2.7135, -0.9995117, 2.7135, -0.147522, 2.7135, 0.5572519, 2.7135, -0.8473282, 2.7135, -1.6259542
0.3200294, -0.0109102, 2.72025, -0.0415039, 2.72025, -1.0007935, 2.72025, -0.149231, 2.72025, 0.5572519, 2.72025, -1.1832061, 2.72025, -1.6030535
0.3208235, -0.0109102, 2.727, -0.0409546, 2.727, -1.0049438, 2.727, -0.1486206, 2.727, 0.6335878, 2.727, -1, 2.727, -1.7709924
0.3216176, -0.0102388, 2.73375, -0.0400391, 2.73375, -1.0062256, 2.73375, -0.15271, 2.73375, 0.9236641, 2.73375, -0.9389313, 2.73375, -1.5648855
0.3224118, -0.0109102, 2.7405, -0.0376587, 2.7405, -1.00354, 2.7405, -0.1506958, 2.7405, 0.7251908, 2.7405, -1.1984733, 2.7405, -1.7175573
0.3232059, -0.0129244, 2.74725, -0.041748, 2.74725, -1.0033569, 2.74725, -0.1555176, 2.74725, 0.8244275, 2.74725, -1.0305344, 2.74725, -1.610687
0.324, -0.011078, 2.754, -0.0413818, 2.754, -1.005188, 2.754, -0.1542358, 2.754, 0.8625954, 2.754, -0.9847328, 2.754, -1.7709924
0.3247941, -0.0104067, 2.76075, -0.0407715, 2.76075, -1.0081787, 2.76075, -0.1560669, 2.76075, 1.0076336, 2.76075, -1.2061069, 2.76075, -1.7557251
0.3255882, -0.0129244, 2.7675, -0.0421143, 2.7675, -1.0078735, 2.7675, -0.1534424, 2.7675, 1.0992366, 2.7675, -1.3587786, 2.7675, -1.5725191
0.3263824, -0.0169528, 2.77425, -0.0427856, 2.77425, -1.0044556, 2.77425, -0.1501465, 2.77425, 1.3206106, 2.77425, -1.2824427, 2.77425, -1.6870229
0.3271765, -0.0152743, 2.781, -0.0419312, 2.781, -1.0065308, 2.781, -0.1519775, 2.781, 1.2748091, 2.781, -1.3358779, 2.781, -1.7633588
0.3279706, -0.0146029, 2.78775, -0.0428467, 2.78775, -1.0065308, 2.78775, -0.1496582, 2.78775, 1.3664122, 2.78775, -1.3816794, 2.78775, -1.8015267
0.3287647, -0.0125887, 2.7945, -0.0431519, 2.7945, -1.0062866, 2.7945, -0.1480713, 2.7945, 1.3740458, 2.7945, -1.3129771, 2.7945, -1.8015267
0.3295588, -0.0105745, 2.80125, -0.0432129, 2.80125, -1.0056763, 2.80125, -0.1469116, 2.80125, 1.3816794, 2.80125, -1.2977099, 2.80125, -1.7557251
0.3303529, -0.0095674, 2.808, -0.0471191, 2.808, -1.0056763, 2.808, -0.1519775, 2.808, 1.480916, 2.808, -1.3206106, 2.808, -1.7251909
0.3311471, -0.0112459, 2.81475, -0.0497437, 2.81475, -1.0040283, 2.81475, -0.1539307, 2.81475, 1.5648855, 2.81475, -1.3282443, 2.81475, -1.9389313
0.3319412, -0.0149386, 2.8215, -0.0495605, 2.8215, -1.0032959, 2.8215, -0.1548462, 2.8215, 1.4656489, 2.8215, -1.2061069, 2.8215, -1.9312977
0.3327353, -0.0169528, 2.82825, -0.0463257, 2.82825, -1.0062256, 2.82825, -0.1537476, 2.82825, 1.5343511, 2.82825, -1.4198474, 2.82825, -1.9007634
0.3335294, -0.0191348, 2.835, -0.0478516, 2.835, -1.0043945, 2.835, -0.1512451, 2.835, 1.5496184, 2.835, -1.5648855, 2.835, -1.7938931
0.3343235, -0.0169528, 2.84175, -0.0460205, 2.84175, -1.0021973, 2.84175, -0.1540527, 2.84175, 1.6259542, 2.84175, -1.5343511, 2.84175, -2.0076337
0.3351176, -0.0149386, 2.8485, -0.0459595, 2.8485, -1.0011597, 2.8485, -0.1530151, 2.8485, 1.648855, 2.8485, -1.389313, 2.8485, -1.8625954
0.3359118, -0.0162814, 2.85525, -0.0464478, 2.85525, -1.0025635, 2.85525, -0.1533203, 2.85525, 1.778626, 2.85525, -1.3206106, 2.85525, -2.1679389
0.3367059, -0.01561, 2.862, -0.0467529, 2.862, -1.0014648, 2.862, -0.1464233, 2.862, 1.8167939, 2.862, -1.4656489, 2.862, -2.221374
0.3375, -0.012253, 2.86875, -0.0430908, 2.86875, -1.0040894, 2.86875, -0.1447144, 2.86875, 1.9694656, 2.86875, -1.6793894, 2.86875, -2.2061069
0.3382941, -0.0137636, 2.8755, -0.0422363, 2.8755, -1.0039062, 2.8755, -0.1489868, 2.8755, 1.9694656, 2.8755, -1.3816794, 2.8755, -2.2671757
0.3390882, -0.012253, 2.88225, -0.0446167, 2.88225, -1.0075073, 2.88225, -0.1483154, 2.88225, 1.9160305, 2.88225, -1.4351145, 2.88225, -2.389313
0.3398824, -0.0117494, 2.889, -0.0449219, 2.889, -1.0048218, 2.889, -0.144165, 2.889, 1.9007634, 2.889, -1.3587786, 2.889, -2.4427481
0.3406765, -0.0146029, 2.89575, -0.0476685, 2.89575, -1.007019, 2.89575, -0.1491089, 2.89575, 2.0610688, 2.89575, -1.2519084, 2.89575, -2.2519083
0.3414706, -0.0130922, 2.9025, -0.0460815, 2.9025, -1.0040283, 2.9025, -0.1445312, 2.9025, 2.0534351, 2.9025, -1.3816794, 2.9025, -2.3206108
0.3422647, -0.0130922, 2.90925, -0.0480347, 2.90925, -1.0045776, 2.90925, -0.1453857, 2.90925, 2.091603, 2.90925, -1.5419847, 2.90925, -2.4045801
0.3430588, -0.0172885, 2.916, -0.0512085, 2.916, -1.0072632, 2.916, -0.1483154, 2.916, 2.0610688, 2.916, -1.5496184, 2.916, -2.5572519
0.3438529, -0.0176242, 2.92275, -0.0494385, 2.92275, -1.0079956, 2.92275, -0.1508789, 2.92275, 2.0152671, 2.92275, -1.5801526, 2.92275, -2.4045801
0.3446471, -0.0171206, 2.9295, -0.052002, 2.9295, -1.0074463, 2.9295, -0.1496582, 2.9295, 2.0534351, 2.9295, -1.5725191, 2.9295, -2.5648854
0.3454412, -0.01561, 2.93625, -0.0505981, 2.93625, -1.0095215, 2.93625, -0.1478882, 2.93625, 2.1145039, 2.93625, -1.6717557, 2.93625, -2.5572519
0.3462353, -0.0135958, 2.943, -0.0525513, 2.943, -1.0041504, 2.943, -0.147522, 2.943, 2.2977099, 2.943, -1.9236641, 2.943, -2.740458
0.3470294, -0.0152743, 2.94975, -0.0519409, 2.94975, -1.0061035, 2.94975, -0.1477051, 2.94975, 2.4351146, 2.94975, -2.221374, 2.94975, -2.6183207
0.3478235, -0.0159457, 2.9565, -0.0519409, 2.9565, -1.001709, 2.9565, -0.1490479, 2.9565, 2.389313, 2.9565, -2.389313, 2.9565, -2.7099237
0.3486176, -0.0149386, 2.96325, -0.0482788, 2.96325, -1.0010986, 2.96325, -0.1481323, 2.96325, 2.4045801, 2.96325, -2.6259542, 2.96325, -2.610687
0.3494118, -0.0129244, 2.97, -0.0452881, 2.97, -1.0045166, 2.97, -0.1456299, 2.97, 2.4732823, 2.97, -2.5419848, 2.97, -2.8931298
0.3502059, -0.0135958, 2.97675, -0.0452271, 2.97675, -1.0043945, 2.97675, -0.1447144, 2.97675, 2.5648854, 2.97675, -2.2977099, 2.97675, -2.8473282
0.351, -0.012253, 2.9835, -0.045166, 2.9835, -1.0046997, 2.9835, -0.1432495, 2.9835, 2.4656489, 2.9835, -2.4045801, 2.9835, -2.9770992
0.3517941, -0.0095674, 2.99025, -0.046814, 2.99025, -1.0080566, 2.99025, -0.1426392, 2.99025, 2.610687, 2.99025, -2.2977099, 2.99025, -3.0992367
0.3525882, -0.012253, 2.997, -0.0477905, 2.997, -1.0072632, 2.997, -0.1413574, 2.997, 2.5267177, 2.997, -2.3435113, 2.997, -2.9389312
0.3533824, -0.0164492, 3.00375, -0.0512695, 3.00375, -1.0039673, 3.00375, -0.1408691, 3.00375, 2.7099237, 3.00375, -2.2824428, 3.00375, -2.8931298
0.3541765, -0.0171206, 3.0105, -0.0496216, 3.0105, -1.005127, 3.0105, -0.1401978, 3.0105, 2.519084, 3.0105, -2.0763359, 3.0105, -3.0229008
0.3549706, -0.018967, 3.01725, -0.0487671, 3.01725, -1.0092773, 3.01725, -0.1412354, 3.01725, 2.5572519, 3.01725, -2.389313, 3.01725, -3.1908398
0.3557647, -0.0169528, 3.024, -0.0508423, 3.024, -1.0092773, 3.024, -0.1405029, 3.024, 2.4427481, 3.024, -2.3969467, 3.024, -3.2061069
0.3565588, -0.014435, 3.03075, -0.0515747, 3.03075, -1.0076904, 3.03075, -0.1381836, 3.03075, 2.4961832, 3.03075, -2.4580152, 3.03075, -3.0839694
0.3573529, -0.0129244, 3.0375, -0.0524902, 3.0375, -1.0093994, 3.0375, -0.1346436, 3.0375, 2.4351146, 3.0375, -2.4885497, 3.0375, -3.1832061
0.3581471, -0.0159457, 3.04425, -0.0513916, 3.04425, -1.0057983, 3.04425, -0.1392212, 3.04425, 2.6183207, 3.04425, -2.5725191, 3.04425, -3.2671757
0.3589412, -0.0167849, 3.051, -0.0526733, 3.051, -1.0092163, 3.051, -0.1408081, 3.051, 2.4656489, 3.051, -2.7251909, 3.051, -3.3435113
0.3597353, -0.0139315, 3.05775, -0.0518188, 3.05775, -1.0049438, 3.05775, -0.1379395, 3.05775, 2.6564887, 3.05775, -2.740458, 3.05775, -3.2824428
0.3605294, -0.0201419, 3.0645, -0.0507202, 3.0645, -1.0073242, 3.0645, -0.1408691, 3.0645, 2.7328243, 3.0645, -2.5801528, 3.0645, -3.389313
0.3613235, -0.0216526, 3.07125, -0.0543213, 3.07125, -1.0068359, 3.07125, -0.1433716, 3.07125, 2.6259542, 3.07125, -2.7099237, 3.07125, -3.5114503
0.3621176, -0.0186313, 3.078, -0.0549927, 3.078, -1.0041504, 3.078, -0.1387939, 3.078, 2.7862597, 3.078, -2.7328243, 3.078, -3.4351146
0.3629118, -0.0162814, 3.08475, -0.0562744, 3.08475, -1.0033569, 3.08475, -0.1414185, 3.08475, 2.8320611, 3.08475, -2.8625953, 3.08475, -3.5496182
0.3637059, -0.012253, 3.0915, -0.0576172, 3.0915, -1.0048828, 3.0915, -0.1453247, 3.0915, 2.8778627, 3.0915, -3.3587787, 3.0915, -3.5725191
0.3645, -0.0129244, 3.09825, -0.0559692, 3.09825, -1.0031128, 3.09825, -0.1500854, 3.09825, 3.0687022, 3.09825, -4.0687022, 3.09825, -3.8091602
0.3652941, -0.0129244, 3.105, -0.0567627, 3.105, -1.003418, 3.105, -0.1497192, 3.105, 3.1908398, 3.105, -4.4656487, 3.105, -3.7938931
0.3660882, -0.0129244, 3.11175, -0.0543823, 3.11175, -1.0043335, 3.11175, -0.1486206, 3.11175, 3.3587787, 3.11175, -4.480916, 3.11175, -3.9160306
0.3668824, -0.0117494, 3.1185, -0.0543213, 3.1185, -1.0003052, 3.1185, -0.1491699, 3.1185, 3.259542, 3.1185, -5.0610685, 3.1185, -3.9923663
0.3676765, -0.0135958, 3.12525, -0.0559082, 3.12525, -1.0010986, 3.12525, -0.1449585, 3.12525, 3.3129771, 3.12525, -5.4580154, 3.12525, -4.1297708
0.3684706, -0.0164492, 3.132, -0.0541382, 3.132, -1.0010986, 3.132, -0.1472778, 3.132, 3.4885497, 3.132, -5.6717558, 3.132, -4.3664122
0.3692647, -0.0176242, 3.13875, -0.0517578, 3.13875, -1.007019, 3.13875, -0.1396484, 3.13875, 3.5801528, 3.13875, -5.9847326, 3.13875, -4.5877862
0.3700588, -0.0172885, 3.1455, -0.0512695, 3.1455, -1.0032349, 3.1455, -0.1390991, 3.1455, 3.5419848, 3.1455, -6.0076337, 3.1455, -4.6793895
0.3708529, -0.0157778, 3.15225, -0.0488892, 3.15225, -1.0042114, 3.15225, -0.1402588, 3.15225, 3.6183207, 3.15225, -5.9847326, 3.15225, -4.7175574
0.3716471, -0.0149386, 3.159, -0.0501099, 3.159, -1.0028076, 3.159, -0.138916, 3.159, 3.6335878, 3.159, -5.9007635, 3.159, -4.8396945
0.3724412, -0.0164492, 3.16575, -0.0519409, 3.16575, -1.0064697, 3.16575, -0.1403809, 3.16575, 3.5267177, 3.16575, -5.8167939, 3.16575, -4.9923663
0.3732353, -0.0172885, 3.1725, -0.0553589, 3.1725, -1.008667, 3.1725, -0.1334839, 3.1725, 3.6870229, 3.1725, -5.6717558, 3.1725, -5.0305343
0.3740294, -0.0142672, 3.17925, -0.0523682, 3.17925, -1.0100708, 3.17925, -0.131897, 3.17925, 3.7862597, 3.17925, -5.8473282, 3.17925, -4.9770994
0.3748235, -0.0162814, 3.186, -0.0534058, 3.186, -1.0108032, 3.186, -0.133667, 3.186, 3.7709923, 3.186, -5.778626, 3.186, -5.0305343
0.3756176, -0.0157778, 3.19275, -0.0540771, 3.19275, -1.0099487, 3.19275, -0.1322632, 3.19275, 3.7938931, 3.19275, -5.8473282, 3.19275, -5.2519083
0.3764118, -0.0179599, 3.1995, -0.0505981, 3.1995, -1.0160522, 3.1995, -0.1340332, 3.1995, 3.8549619, 3.1995, -5.9083967, 3.1995, -5.2442746
0.3772059, -0.0151064, 3.20625, -0.0518799, 3.20625, -1.0175781, 3.20625, -0.1323853, 3.20625, 3.9312978, 3.20625, -6.0305343, 3.20625, -5.480916
0.378, -0.012253, 3.213, -0.0480347, 3.213, -1.0176392, 3.213, -0.1314697, 3.213, 4.1221375, 3.213, -6.1679387, 3.213, -5.6259542
0.3787941, -0.011078, 3.21975, -0.0524292, 3.21975, -1.017334, 3.21975, -0.1335449, 3.21975, 4.1679387, 3.21975, -5.9770994, 3.21975, -5.7175574
0.3795882, -0.0125887, 3.2265, -0.0507812, 3.2265, -1.0169067, 3.2265, -0.1328735, 3.2265, 4.2061067, 3.2265, -5.9465647, 3.2265, -5.8320613
0.3803824, -0.0132601, 3.23325, -0.0571289, 3.23325, -1.0134277, 3.23325, -0.1300659, 3.23325, 4.5038166, 3.23325, -6.0534353, 3.23325, -5.9160304
0.3811765, -0.0129244, 3.24, -0.0554199, 3.24, -1.0131836, 3.24, -0.1287231, 3.24, 4.3969464, 3.24, -6.0076337, 3.24, -6.0916033
0.3819706, -0.0119173, 3.24675, -0.0493774, 3.24675, -1.010376, 3.24675, -0.1224976, 3.24675, 4.5572519, 3.24675, -6.2519083, 3.24675, -6.0152674
0.3827647, -0.012253, 3.2535, -0.038147, 3.2535, -1.015564, 3.2535, -0.1210327, 3.2535, 4.480916, 3.2535, -5.7862597, 3.2535, -6.2748094
0.3835588, -0.0099031, 3.26025, -0.0303345, 3.26025, -1.0155029, 3.26025, -0.1169434, 3.26025, 4.5725193, 3.26025, -4.8167939, 3.26025, -6.0839696
0.3843529, -0.0095674, 3.267, -0.0359497, 3.267, -1.0108643, 3.267, -0.1239624, 3.267, 4.5343513, 3.267, -4.1068702, 3.267, -6.0152674
0.3851471, -0.0109102, 3.27375, -0.0379028, 3.27375, -1.0089722, 3.27375, -0.1222534, 3.27375, 4.0534353, 3.27375, -3.1908398, 3.27375, -6.038168
0.3859412, -0.0115816, 3.2805, -0.0384521, 3.2805, -1.0128784, 3.2805, -0.1151123, 3.2805, 3.6412213, 3.2805, -2.8167939, 3.2805, -6.1908398
0.3867353, -0.0102388, 3.28725, -0.0419312, 3.28725, -1.0102539, 3.28725, -0.1102295, 3.28725, 3.6412213, 3.28725, -2.6793892, 3.28725, -6.0534353
0.3875294, -0.014435, 3.294, -0.0355835, 3.294, -1.0076294, 3.294, -0.1129761, 3.294, 3.5496182, 3.294, -2.6946564, 3.294, -5.8473282
0.3883235, -0.01561, 3.30075, -0.0362549, 3.30075, -0.9980469, 3.30075, -0.1187134, 3.30075, 3.0763359, 3.30075, -2.351145, 3.30075, -5.8854961
0.3891176, -0.0151064, 3.3075, -0.0264893, 3.3075, -0.9957886, 3.3075, -0.1200562, 3.3075, 2.6946564, 3.3075, -2.1832061, 3.3075, -5.5648856
0.3899118, -0.0142672, 3.31425, -0.0186768, 3.31425, -0.9970703, 3.31425, -0.1191406, 3.31425, 2.2519083, 3.31425, -1.9007634, 3.31425, -5.4580154
0.3907059, -0.0162814, 3.321, -0.0130005, 3.321, -0.9977417, 3.321, -0.1202393, 3.321, 2.0687022, 3.321, -1.4274809, 3.321, -5.3053436
0.3915, -0.0139315, 3.32775, -0.0109253, 3.32775, -0.9896851, 3.32775, -0.1135864, 3.32775, 2.0610688, 3.32775, -0.6412213, 3.32775, -5.4351144
0.3922941, -0.0129244, 3.3345, -0.0200195, 3.3345, -0.9860229, 3.3345, -0.1224976, 3.3345, 1.5801526, 3.3345, 0.5343512, 3.3345, -5.1755724
0.3930882, -0.0162814, 3.34125, -0.0186768, 3.34125, -0.9869995, 3.34125, -0.1311646, 3.34125, 1.1450381, 3.34125, 0.5419847, 3.34125, -4.778626
0.3938824, -0.0162814, 3.348, -0.0177612, 3.348, -0.9897461, 3.348, -0.1252441, 3.348, 1.0229008, 3.348, 0.778626, 3.348, -4.8549619
0.3946765, -0.0176242, 3.35475, -0.0169678, 3.35475, -0.9897461, 3.35475, -0.1259155, 3.35475, 0.7633588, 3.35475, 1.4961832, 3.35475, -4.6259542
0.3954706, -0.0172885, 3.3615, -0.0140381, 3.3615, -0.9906006, 3.3615, -0.1328735, 3.3615, 0.3435115, 3.3615, 2.091603, 3.3615, -4.519084
0.3962647, -0.0179599, 3.36825, -0.0092163, 3.36825, -0.9950562, 3.36825, -0.1265869, 3.36825, 0.0458015, 3.36825, 2.4274809, 3.36825, -4.3587785
0.3970588, -0.0204776, 3.375, -0.0082397, 3.375, -0.99646, 3.375, -0.1257324, 3.375, 0.0610687, 3.375, 3.5038168, 3.375, -4.1221375
0.3978529, -0.017792, 3.38175, -0.0120239, 3.38175, -0.9973755, 3.38175, -0.1297607, 3.38175, -0.0610687, 3.38175, 4.5877862, 3.38175, -3.8931298
0.3986471, -0.0166171, 3.3885, -0.0166626, 3.3885, -1.00354, 3.3885, -0.1229858, 3.3885, -0.2366412, 3.3885, 5.3129773, 3.3885, -3.8091602
0.3994412, -0.0166171, 3.39525, -0.0205078, 3.39525, -1.0076904, 3.39525, -0.1245728, 3.39525, -0.3740458, 3.39525, 6.1068702, 3.39525, -3.7480917
0.4002353, -0.0142672, 3.402, -0.0239258, 3.402, -1.0080566, 3.402, -0.1279297, 3.402, -0.2061069, 3.402, 6.6488547, 3.402, -3.7175572
0.4010294, -0.0127565, 3.40875, -0.0246582, 3.40875, -1.0049438, 3.40875, -0.1315308, 3.40875, -0.0305344, 3.40875, 7.2442746, 3.40875, -3.7633588
0.4018235, -0.0095674, 3.4155, -0.032959, 3.4155, -1.0016479, 3.4155, -0.133728, 3.4155, -0.259542, 3.4155, 7.3740458, 3.4155, -3.7022901
0.4026176, -0.0105745, 3.42225, -0.0459595, 3.42225, -1.0071411, 3.42225, -0.1377563, 3.42225, -0.1755725, 3.42225, 7.5114503, 3.42225, -3.6946564
0.4034118, -0.0139315, 3.429, -0.0471802, 3.429, -1.0117798, 3.429, -0.1412964, 3.429, -0.0916031, 3.429, 7.3969464, 3.429, -3.7633588
0.4042059, -0.0139315, 3.43575, -0.0488892, 3.43575, -1.0099487, 3.43575, -0.1397095, 3.43575, 0.2290076, 3.43575, 7.1374044, 3.43575, -3.7022901
0.405, -0.0162814, 3.4425, -0.0472412, 3.4425, -1.010498, 3.4425, -0.1385498, 3.4425, 0.1984733, 3.4425, 6.6335878, 3.4425, -3.7480917
0.4057941, -0.0146029, 3.44925, -0.0496826, 3.44925, -1.0093384, 3.44925, -0.1409302, 3.44925, 0.389313, 3.44925, 6.4351144, 3.44925, -3.8778627
0.4065882, -0.0132601, 3.456, -0.0475464, 3.456, -1.0073853, 3.456, -0.1405029, 3.456, 0.3129771, 3.456, 6.259542, 3.456, -4.0839696
0.4073824, -0.0129244, 3.46275, -0.0507812, 3.46275, -1.0082397, 3.46275, -0.135498, 3.46275, 0.4351145, 3.46275, 6.2824426, 3.46275, -4.1450381
0.4081765, -0.0112459, 3.4695, -0.0537109, 3.4695, -1.0044556, 3.4695, -0.1420288, 3.4695, 0.8549618, 3.4695, 6.0076337, 3.4695, -4.1450381
0.4089706, -0.0127565, 3.47625, -0.055481, 3.47625, -1.0008545, 3.47625, -0.1448364, 3.47625, 0.9465649, 3.47625, 5.7328243, 3.47625, -4.0992365
0.4097647, -0.01561, 3.483, -0.0568848, 3.483, -1.0065308, 3.483, -0.1434937, 3.483, 0.9923664, 3.483, 5.4427481, 3.483, -4.4580154
0.4105588, -0.0149386, 3.48975, -0.053833, 3.48975, -1.0053101, 3.48975, -0.1436157, 3.48975, 1.2137405, 3.48975, 5.0992365, 3.48975, -4.4656487
0.4113529, -0.0115816, 3.4965, -0.0534668, 3.4965, -1.0020752, 3.4965, -0.1434937, 3.4965, 1.4503816, 3.4965, 4.2977099, 3.4965, -4.7480917
0.4121471, -0.0142672, 3.50325, -0.0518799, 3.50325, -1.005127, 3.50325, -0.1450806, 3.50325, 1.6183206, 3.50325, 4.0076337, 3.50325, -4.8473282
0.4129412, -0.0135958, 3.51, -0.0480957, 3.51, -1.006958, 3.51, -0.144165, 3.51, 1.740458, 3.51, 3.6641221, 3.51, -4.9236641
0.4137353, -0.0152743, 3.51675, -0.0422363, 3.51675, -1.0042725, 3.51675, -0.1437988, 3.51675, 1.8549619, 3.51675, 3.3435113, 3.51675, -4.7480917
0.4145294, -0.0162814, 3.5235, -0.0377808, 3.5235, -1.0043335, 3.5235, -0.1433716, 3.5235, 2.0763359, 3.5235, 3.0229008, 3.5235, -4.8625956
0.4153235, -0.0169528, 3.53025, -0.0367432, 3.53025, -1.0061035, 3.53025, -0.1407471, 3.53025, 2.0610688, 3.53025, 2.5267177, 3.53025, -5.0076337
0.4161176, -0.0193027, 3.537, -0.0379028, 3.537, -1.0080566, 3.537, -0.1397095, 3.537, 2.3740458, 3.537, 2.259542, 3.537, -5.3511453
0.4169118, -0.0119173, 3.54375, -0.0411377, 3.54375, -1.0093384, 3.54375, -0.1428833, 3.54375, 2.389313, 3.54375, 2.4198472, 3.54375, -5.4503818
0.4177059, -0.011078, 3.5505, -0.0427246, 3.5505, -1.0117798, 3.5505, -0.1410522, 3.5505, 2.6641221, 3.5505, 1.8473282, 3.5505, -5.519084
0.4185, -0.0129244, 3.55725, -0.0426025, 3.55725, -1.0097656, 3.55725, -0.1365967, 3.55725, 2.8854961, 3.55725, 0.9160305, 3.55725, -5.4732823
0.4192941, -0.0142672, 3.564, -0.0463867, 3.564, -1.0134277, 3.564, -0.1339722, 3.564, 3.0152671, 3.564, 0.5877863, 3.564, -5.3129773
0.4200882, -0.0124208, 3.57075, -0.0435791, 3.57075, -1.0144653, 3.57075, -0.138855, 3.57075, 3.3435113, 3.57075, 0.2061069, 3.57075, -5.5877862
0.4208824, -0.0149386, 3.5775, -0.0403442, 3.5775, -1.0090332, 3.5775, -0.1365967, 3.5775, 3.3435113, 3.5775, -0.0534351, 3.5775, -5.5419846
0.4216765, -0.0159457, 3.58425, -0.0339355, 3.58425, -1.0112915, 3.58425, -0.1367188, 3.58425, 3.4656489, 3.58425, -0.5038168, 3.58425, -5.6259542
0.4224706, -0.0130922, 3.591, -0.0274048, 3.591, -1.0089722, 3.591, -0.1325073, 3.591, 3.5801528, 3.591, -0.6946565, 3.591, -5.5038166
0.4232647, -0.0129244, 3.59775, -0.0256958, 3.59775, -1.0074463, 3.59775, -0.1312256, 3.59775, 3.740458, 3.59775, -0.5648855, 3.59775, -5.519084
0.4240588, -0.0142672, 3.6045, -0.026123, 3.6045, -1.0077515, 3.6045, -0.1317749, 3.6045, 3.9541984, 3.6045, -0.4732825, 3.6045, -5.4122138
0.4248529, -0.0135958, 3.61125, -0.0241089, 3.61125, -1.0057983, 3.61125, -0.1310425, 3.61125, 3.6870229, 3.61125, -0.8320611, 3.61125, -5.3969464
0.4256471, -0.0120851, 3.618, -0.0252075, 3.618, -1.0045166, 3.618, -0.1326904, 3.618, 3.6412213, 3.618, -1.1908396, 3.618, -5.3053436
0.4264412, -0.0142672, 3.62475, -0.024231, 3.62475, -1.0038452, 3.62475, -0.1292114, 3.62475, 3.5648854, 3.62475, -1.6870229, 3.62475, -5.3053436
0.4272353, -0.0182956, 3.6315, -0.0254517, 3.6315, -1.0033569, 3.6315, -0.1275635, 3.6315, 3.7480917, 3.6315, -1.9694656, 3.6315, -5.4274807
0.4280294, -0.0179599, 3.63825, -0.0271606, 3.63825, -1.0058594, 3.63825, -0.1292725, 3.63825, 3.480916, 3.63825, -2.4198472, 3.63825, -5.221374
0.4288235, -0.017792, 3.645, -0.0211182, 3.645, -1.0037231, 3.645, -0.1282959, 3.645, 3.740458, 3.645, -2.7480917, 3.645, -5.1755724
0.4296176, -0.0176242, 3.65175, -0.020752, 3.65175, -1.0028687, 3.65175, -0.1292725, 3.65175, 3.5114503, 3.65175, -2.8396947, 3.65175, -5.1450381
0.4304118, -0.0162814, 3.6585, -0.0195312, 3.6585, -1.0021973, 3.6585, -0.1293335, 3.6585, 3.480916, 3.6585, -2.8015268, 3.6585, -5.2519083
0.4312059, -0.0147707, 3.66525, -0.017334, 3.66525, -1.0038452, 3.66525, -0.1252441, 3.66525, 3.3129771, 3.66525, -2.6259542, 3.66525, -4.9770994
0.432, -0.0176242, 3.672, -0.0194092, 3.672, -1.0047607, 3.672, -0.1219482, 3.672, 3.2977099, 3.672, -2.3206108, 3.672, -4.8549619
0.4327941, -0.0169528, 3.67875, -0.0223389, 3.67875, -1.0060425, 3.67875, -0.1259155, 3.67875, 3.3358779, 3.67875, -2.1679389, 3.67875, -4.7251906
0.4335882, -0.0164492, 3.6855, -0.024353, 3.6855, -1.0021973, 3.6855, -0.1263428, 3.6855, 3.3435113, 3.6855, -1.8091604, 3.6855, -4.6793895
0.4343824, -0.01561, 3.69225, -0.0247803, 3.69225, -1.0055542, 3.69225, -0.1256104, 3.69225, 3.221374, 3.69225, -1.8625954, 3.69225, -4.4198475
0.4351765, -0.0179599, 3.699, -0.0261841, 3.699, -1.0098877, 3.699, -0.1218262, 3.699, 3.1755726, 3.699, -1.8854961, 3.699, -4.5343513
0.4359706, -0.0166171, 3.70575, -0.0246582, 3.70575, -1.0098267, 3.70575, -0.1226196, 3.70575, 3.3282442, 3.70575, -2.0076337, 3.70575, -4.2977099
0.4367647, -0.0172885, 3.7125, -0.0222168, 3.7125, -1.0103149, 3.7125, -0.1201172, 3.7125, 3.3282442, 3.7125, -2.0534351, 3.7125, -4.2977099
0.4375588, -0.01561, 3.71925, -0.0227051, 3.71925, -1.005249, 3.71925, -0.1190796, 3.71925, 3.3435113, 3.71925, -1.740458, 3.71925, -4.0916033
0.4383529, -0.0149386, 3.726, -0.0174561, 3.726, -1.0012207, 3.726, -0.1200562, 3.726, 3.2519083, 3.726, -1.5496184, 3.726, -4.1068702
0.4391471, -0.014435, 3.73275, -0.0205078, 3.73275, -1.0064697, 3.73275, -0.1192627, 3.73275, 3.1526718, 3.73275, -1.3206106, 3.73275, -3.9312978
0.4399412, -0.0130922, 3.7395, -0.0204468, 3.7395, -1.0059814, 3.7395, -0.1148071, 3.7395, 2.9389312, 3.7395, -0.9312977, 3.7395, -3.8244274
0.4407353, -0.0135958, 3.74625, -0.019104, 3.74625, -1.0040283, 3.74625, -0.112915, 3.74625, 2.7633588, 3.74625, -0.8625954, 3.74625, -3.9312978
0.4415294, -0.0124208, 3.753, -0.0187378, 3.753, -0.9987793, 3.753, -0.1152344, 3.753, 2.7099237, 3.753, -0.6793893, 3.753, -3.7099237
0.4423235, -0.0095674, 3.75975, -0.0203247, 3.75975, -1.0050049, 3.75975, -0.1138306, 3.75975, 2.610687, 3.75975, -0.519084, 3.75975, -3.6641221
0.4431176, -0.0129244, 3.7665, -0.0189819, 3.7665, -1.0050659, 3.7665, -0.1153564, 3.7665, 2.4274809, 3.7665, -0.1221374, 3.7665, -3.5343511
0.4439118, -0.0167849, 3.77325, -0.0197144, 3.77325, -1.0045776, 3.77325, -0.1152954, 3.77325, 2.4351146, 3.77325, 0.1832061, 3.77325, -3.6183207
0.4447059, -0.0169528, 3.78, -0.0205078, 3.78, -1.0026855, 3.78, -0.1159668, 3.78, 2.1755726, 3.78, 0.3969466, 3.78, -3.4503818
0.4455, -0.0199741, 3.78675, -0.0247192, 3.78675, -1.0030518, 3.78675, -0.1164551, 3.78675, 2.0610688, 3.78675, 0.3816794, 3.78675, -3.4045801
0.4462941, -0.0169528, 3.7935, -0.0310669, 3.7935, -1.0059814, 3.7935, -0.1183472, 3.7935, 2.0458016, 3.7935, 0.1984733, 3.7935, -3.3053436
0.4470882, -0.0125887, 3.80025, -0.0314941, 3.80025, -1.008606, 3.80025, -0.1149292, 3.80025, 2.259542, 3.80025, 0.0839695, 3.80025, -3.3435113
0.4478824, -0.0149386, 3.807, -0.0305786, 3.807, -1.0100098, 3.807, -0.1203003, 3.807, 2.1068702, 3.807, 0.1603053, 3.807, -3.648855
0.4486765, -0.0142672, 3.81375, -0.0315552, 3.81375, -1.0097046, 3.81375, -0.1193237, 3.81375, 2.1984732, 3.81375, 0.3129771, 3.81375, -3.351145
0.4494706, -0.012253, 3.8205, -0.0330811, 3.8205, -1.0095825, 3.8205, -0.1199341, 3.8205, 2.2900763, 3.8205, 0.4427481, 3.8205, -3.4503818
0.4502647, -0.0147707, 3.82725, -0.0344849, 3.82725, -1.0053101, 3.82725, -0.1196289, 3.82725, 2.3587787, 3.82725, 0.610687, 3.82725, -3.4198472
0.4510588, -0.0176242, 3.834, -0.0303345, 3.834, -1.0080566, 3.834, -0.1185303, 3.834, 2.038168, 3.834, 0.6793893, 3.834, -3.221374
0.4518529, -0.0157778, 3.84075, -0.0316162, 3.84075, -1.0059814, 3.84075, -0.1162109, 3.84075, 2.0534351, 3.84075, 0.5496183, 3.84075, -3.1984732
0.4526471, -0.0164492, 3.8475, -0.0288086, 3.8475, -1.005127, 3.8475, -0.1149292, 3.8475, 2.1145039, 3.8475, 0.9007633, 3.8475, -3.2442749
0.4534412, -0.0172885, 3.85425, -0.0263062, 3.85425, -1.0050659, 3.85425, -0.1190186, 3.85425, 2.129771, 3.85425, 1.0229008, 3.85425, -3.2519083
0.4542353, -0.0186313, 3.861, -0.0279541, 3.861, -1.005249, 3.861, -0.116333, 3.861, 2.1908398, 3.861, 0.9389313, 3.861, -3.3053436
0.4550294, -0.0176242, 3.86775, -0.0275269, 3.86775, -1.0081177, 3.86775, -0.1193848, 3.86775, 2.0687022, 3.86775, 0.7022901, 3.86775, -3.3664122
0.4558235, -0.0151064, 3.8745, -0.0278931, 3.8745, -1.006897, 3.8745, -0.1169434, 3.8745, 2.0610688, 3.8745, 0.6259542, 3.8745, -3.259542
0.4566176, -0.0182956, 3.88125, -0.0258179, 3.88125, -1.0107422, 3.88125, -0.1184082, 3.88125, 1.8778626, 3.88125, 0.6412213, 3.88125, -3.2824428
0.4574118, -0.0194705, 3.888, -0.0252686, 3.888, -1.0080566, 3.888, -0.1234741, 3.888, 1.9847329, 3.888, 0.8244275, 3.888, -3.1832061
0.4582059, -0.01561, 3.89475, -0.0250854, 3.89475, -1.0097656, 3.89475, -0.1209717, 3.89475, 1.9160305, 3.89475, 0.6335878, 3.89475, -3.221374
0.459, -0.0112459, 3.9015, -0.0294189, 3.9015, -1.0084839, 3.9015, -0.1196899, 3.9015, 2.0992367, 3.9015, 0.3129771, 3.9015, -3.3282442
0.4597941, -0.0119173, 3.90825, -0.0300903, 3.90825, -1.0067139, 3.90825, -0.1147461, 3.90825, 1.8854961, 3.90825, 0.0458015, 3.90825, -3.2290077
0.4605882, -0.0151064, 3.915, -0.0221558, 3.915, -1.0073242, 3.915, -0.1099243, 3.915, 2.0076337, 3.915, -0.2900763, 3.915, -3.2748091
0.4613824, -0.0139315, 3.92175, -0.0192871, 3.92175, -1.0056763, 3.92175, -0.1107788, 3.92175, 2.0458016, 3.92175, -0.3664122, 3.92175, -3.1145039
0.4621765, -0.0132601, 3.9285, -0.0187988, 3.9285, -1.006897, 3.9285, -0.1110229, 3.9285, 1.908397, 3.9285, 0.0381679, 3.9285, -3.1221373
0.4629706, -0.0129244, 3.93525, -0.0201416, 3.93525, -1.003418, 3.93525, -0.1124878, 3.93525, 1.8244275, 3.93525, 0.1145038, 3.93525, -3.0152671
0.4637647, -0.0117494, 3.942, -0.022522, 3.942, -1.0043945, 3.942, -0.1119995, 3.942, 1.5267175, 3.942, 0.1908397, 3.942, -2.8396947
0.4645588, -0.0112459, 3.94875, -0.0228271, 3.94875, -1.0073853, 3.94875, -0.1107788, 3.94875, 1.2519084, 3.94875, 0.0916031, 3.94875, -2.8320611
0.4653529, -0.0119173, 3.9555, -0.0213623, 3.9555, -1.0068359, 3.9555, -0.1110229, 3.9555, 1.2442749, 3.9555, -0.0916031, 3.9555, -2.8091602
0.4661471, -0.0129244, 3.96225, -0.022644, 3.96225, -1.0039062, 3.96225, -0.1132202, 3.96225, 1.3664122, 3.96225, -0.2290076, 3.96225, -2.7633588
0.4669412, -0.0132601, 3.969, -0.0201416, 3.969, -1.0065308, 3.969, -0.1109009, 3.969, 1.1679389, 3.969, -0.1526718, 3.969, -2.6412213
0.4677353, -0.0102388, 3.97575, -0.0170288, 3.97575, -1.0058594, 3.97575, -0.1132812, 3.97575, 0.8396947, 3.97575, -0.221374, 3.97575, -2.5496182
0.4685294, -0.0087282, 3.9825, -0.0199585, 3.9825, -1.0084839, 3.9825, -0.1134644, 3.9825, 0.9541985, 3.9825, -0.0687023, 3.9825, -2.5267177
0.4693235, -0.0080568, 3.98925, -0.0196533, 3.98925, -1.0055542, 3.98925, -0.1107788, 3.98925, 1.0076336, 3.98925, 0.0687023, 3.98925, -2.4351146
0.4701176, -0.010071, 3.996, -0.0214844, 3.996, -1.0056152, 3.996, -0.114502, 3.996, 0.8778626, 3.996, -0.0305344, 3.996, -2.4427481
0.4709118, -0.0115816, 4.00275, -0.0222778, 4.00275, -1.0066528, 4.00275, -0.1173706, 4.00275, 0.5877863, 4.00275, 0.2442748, 4.00275, -2.2366412
0.4717059, -0.008896, 4.0095, -0.024353, 4.0095, -1.0037231, 4.0095, -0.1137085, 4.0095, 0.5877863, 4.0095, 0.2900763, 4.0095, -2.2519083
0.4725, -0.0102388, 4.01625, -0.0240479, 4.01625, -1.0037842, 4.01625, -0.1135864, 4.01625, 0.610687, 4.01625, 0.0152672, 4.01625, -2.2366412
0.4732941, -0.0132601, 4.023, -0.0249634, 4.023, -1.0062256, 4.023, -0.1118774, 4.023, 0.4351145, 4.023, -0.2366412, 4.023, -2.4122138
0.4740882, -0.012253, 4.02975, -0.0224609, 4.02975, -1.0071411, 4.02975, -0.1117554, 4.02975, 0.4351145, 4.02975, 0.1068702, 4.02975, -2.221374
0.4748824, -0.0146029, 4.0365, -0.0220337, 4.0365, -1.0079956, 4.0365, -0.1164551, 4.0365, 0.2366412, 4.0365, 0.4885496, 4.0365, -2.0229008
0.4756765, -0.014435, 4.04325, -0.0238037, 4.04325, -1.0061035, 4.04325, -0.1170044, 4.04325, 0.1374046, 4.04325, 0.5114504, 4.04325, -2.1145039
0.4764706, -0.0151064, 4.05, -0.0234375, 4.05, -1.0056152, 4.05, -0.112854, 4.05, 0.0076336, 4.05, 0.6793893, 4.05, -2.0076337
0.4772647, -0.0162814, 4.05675, -0.0250244, 4.05675, -1.0082397, 4.05675, -0.1112671, 4.05675, 0.0229008, 4.05675, 0.7938932, 4.05675, -1.9389313
0.4780588, -0.0169528, 4.0635, -0.0294189, 4.0635, -1.0082397, 4.0635, -0.1151123, 4.0635, 0.0687023, 4.0635, 1.1221374, 4.0635, -1.8931298
0.4788529, -0.0130922, 4.07025, -0.0285645, 4.07025, -1.0062256, 4.07025, -0.1200562, 4.07025, 0.2748092, 4.07025, 1.3969465, 4.07025, -1.9160305
0.4796471, -0.0149386, 4.077, -0.0335083, 4.077, -1.0065918, 4.077, -0.1217041, 4.077, 0.1068702, 4.077, 1.2366412, 4.077, -1.9389313
0.4804412, -0.0132601, 4.08375, -0.0302124, 4.08375, -1.0082397, 4.08375, -0.1184692, 4.08375, 0.1374046, 4.08375, 1.3969465, 4.08375, -1.8625954
0.4812353, -0.0129244, 4.0905, -0.0366821, 4.0905, -1.0048828, 4.0905, -0.1217041, 4.0905, 0.2824427, 4.0905, 1.3587786, 4.0905, -1.8320611
0.4820294, -0.014435, 4.09725, -0.0343628, 4.09725, -1.0046997, 4.09725, -0.1223145, 4.09725, 0.0076336, 4.09725, 1.1145039, 4.09725, -1.8167939
0.4828235, -0.0142672, 4.104, -0.0324707, 4.104, -1.0053101, 4.104, -0.1245117, 4.104, 0.0916031, 4.104, 0.8320611, 4.104, -1.7938931
0.4836176, -0.0130922, 4.11075, -0.0317383, 4.11075, -1.0065918, 4.11075, -0.1231689, 4.11075, 0.1526718, 4.11075, 0.8015267, 4.11075, -1.9312977
0.4844118, -0.0142672, 4.1175, -0.0286865, 4.1175, -1.0047607, 4.1175, -0.12323, 4.1175, 0.2137405, 4.1175, 0.7709923, 4.1175, -1.8091604
0.4852059, -0.0164492, 4.12425, -0.0274658, 4.12425, -1.0057983, 4.12425, -0.1228027, 4.12425, 0.2137405, 4.12425, 0.8320611, 4.12425, -1.9312977
0.486, -0.0151064, 4.131, -0.0307007, 4.131, -1.0076294, 4.131, -0.1227417, 4.131, 0.2519084, 4.131, 0.7328244, 4.131, -2.0305343
0.4867941, -0.0135958, 4.13775, -0.031311, 4.13775, -1.0084839, 4.13775, -0.1182861, 4.13775, 0.221374, 4.13775, 0.519084, 4.13775, -2
0.4875882, -0.0112459, 4.1445, -0.0305176, 4.1445, -1.0046387, 4.1445, -0.1132812, 4.1445, 0.5343512, 4.1445, 0.3969466, 4.1445, -2.2137403
0.4883824, -0.0109102, 4.15125, -0.0273438, 4.15125, -1.001709, 4.15125, -0.1141357, 4.15125, 0.4503817, 4.15125, 0.3587786, 4.15125, -2.1679389
0.4891765, -0.0127565, 4.158, -0.0245361, 4.158, -1.0009155, 4.158, -0.1152954, 4.158, 0.2977099, 4.158, 0.7862595, 4.158, -2.1526718
0.4899706, -0.0102388, 4.16475, -0.026062, 4.16475, -1.0009155, 4.16475, -0.1127319, 4.16475, 0.1145038, 4.16475, 1.0763359, 4.16475, -2.1526718
0.4907647, -0.0095674, 4.1715, -0.0292358, 4.1715, -1.003418, 4.1715, -0.114624, 4.1715, 0.0610687, 4.1715, 1.4732825, 4.1715, -1.9847329
0.4915588, -0.011078, 4.17825, -0.0324707, 4.17825, -1.0043335, 4.17825, -0.1088257, 4.17825, 0.1450382, 4.17825, 1.4885496, 4.17825, -2.0839694
0.4923529, -0.012253, 4.185, -0.034668, 4.185, -1.00177, 4.185, -0.118042, 4.185, -0.0610687, 4.185, 1.389313, 4.185, -1.9847329
0.4931471, -0.0112459, 4.19175, -0.0358887, 4.19175, -1.0039673, 4.19175, -0.1218872, 4.19175, -0.221374, 4.19175, 1.3816794, 4.19175, -2.0534351
0.4939412, -0.0102388, 4.1985, -0.034668, 4.1985, -1.0066528, 4.1985, -0.1227417, 4.1985, -0.221374, 4.1985, 1.3282443, 4.1985, -2.0763359
0.4947353, -0.0137636, 4.20525, -0.0349731, 4.20525, -1.007019, 4.20525, -0.1209106, 4.20525, -0.3587786, 4.20525, 1, 4.20525, -1.9923664
0.4955294, -0.0162814, 4.212, -0.0341187, 4.212, -1.0083618, 4.212, -0.1195068, 4.212, -0.3740458, 4.212, 0.8473282, 4.212, -2.1679389
0.4963235, -0.0184634, 4.21875, -0.0346069, 4.21875, -1.008667, 4.21875, -0.1199951, 4.21875, -0.3053435, 4.21875, 0.8167939, 4.21875, -2.3282442
0.4971176, -0.0182956, 4.2255, -0.0319824, 4.2255, -1.008667, 4.2255, -0.1203613, 4.2255, -0.3664122, 4.2255, 0.9541985, 4.2255, -2.2519083
0.4979118, -0.0204776, 4.23225, -0.0314941, 4.23225, -1.0040894, 4.23225, -0.1193848, 4.23225, -0.2900763, 4.23225, 1.2671756, 4.23225, -2.2900763
0.4987059, -0.0182956, 4.239, -0.0316772, 4.239, -1.0062256, 4.239, -0.1204834, 4.239, -0.3969466, 4.239, 1.5419847, 4.239, -2.2137403
0.4995, -0.0193027, 4.24575, -0.0369873, 4.24575, -1.0048828, 4.24575, -0.1234131, 4.24575, -0.4045801, 4.24575, 1.2900764, 4.24575, -2.2977099
0.5002941, -0.0184634, 4.2525, -0.0386353, 4.2525, -1.0055542, 4.2525, -0.1226196, 4.2525, -0.3053435, 4.2525, 1.2977099, 4.2525, -2.2824428
0.5010882, -0.0166171, 4.25925, -0.0391846, 4.25925, -1.0057373, 4.25925, -0.1228027, 4.25925, -0.3053435, 4.25925, 1.4122137, 4.25925, -2.4274809
0.5018824, -0.0206455, 4.266, -0.0393066, 4.266, -1.0080566, 4.266, -0.1278687, 4.266, -0.3740458, 4.266, 1.1450381, 4.266, -2.5496182
0.5026765, -0.018967, 4.27275, -0.0391846, 4.27275, -1.0072632, 4.27275, -0.1247559, 4.27275, -0.221374, 4.27275, 1.2137405, 4.27275, -2.6946564
0.5034706, -0.018967, 4.2795, -0.0397339, 4.2795, -1.008667, 4.2795, -0.1257324, 4.2795, -0.2671756, 4.2795, 1.0076336, 4.2795, -2.7557251
0.5042647, -0.014435, 4.28625, -0.0391846, 4.28625, -1.0100708, 4.28625, -0.1255493, 4.28625, -0.3587786, 4.28625, 1.129771, 4.28625, -2.7251909
0.5050588, -0.0149386, 4.293, -0.0407104, 4.293, -1.0097046, 4.293, -0.1204834, 4.293, -0.2290076, 4.293, 0.8778626, 4.293, -2.8091602
0.5058529, -0.01561, 4.29975, -0.034668, 4.29975, -1.0071411, 4.29975, -0.1182861, 4.29975, 0.0687023, 4.29975, 0.8625954, 4.29975, -2.7633588
0.5066471, -0.0162814, 4.3065, -0.0325928, 4.3065, -1.0041504, 4.3065, -0.1218872, 4.3065, -0.0916031, 4.3065, 1.3282443, 4.3065, -2.8473282
0.5074412, -0.0162814, 4.31325, -0.0342407, 4.31325, -1.0028687, 4.31325, -0.1199341, 4.31325, -0.1068702, 4.31325, 1.648855, 4.31325, -2.8091602
0.5082353, -0.0171206, 4.32, -0.03302, 4.32, -0.9981079, 4.32, -0.1165771, 4.32, -0.3740458, 4.32, 2.1221373, 4.32, -2.9160306
0.5090294, -0.0151064, 4.32675, -0.0332031, 4.32675, -1.0007324, 4.32675, -0.1182861, 4.32675, -0.4045801, 4.32675, 2.4732823, 4.32675, -2.961832
0.5098235, -0.0139315, 4.3335, -0.0365601, 4.3335, -1.0012207, 4.3335, -0.1192017, 4.3335, -0.5419847, 4.3335, 2.7251909, 4.3335, -2.9923663
0.5106176, -0.0149386, 4.34025, -0.0357666, 4.34025, -1.0031128, 4.34025, -0.1201782, 4.34025, -0.4427481, 4.34025, 2.6793892, 4.34025, -2.8167939
0.5114118, -0.0162814, 4.347, -0.0331421, 4.347, -1.0039673, 4.347, -0.1237183, 4.347, -0.7557252, 4.347, 3, 4.347, -2.7862597
0.5122059, -0.0157778, 4.35375, -0.0350342, 4.35375, -1.0028687, 4.35375, -0.1273804, 4.35375, -0.6183206, 4.35375, 2.961832, 4.35375, -2.8473282
0.513, -0.0146029, 4.3605, -0.0332642, 4.3605, -1.0077515, 4.3605, -0.1237183, 4.3605, -0.7709923, 4.3605, 2.9694657, 4.3605, -2.8473282
0.5137941, -0.0146029, 4.36725, -0.0320435, 4.36725, -1.0056763, 4.36725, -0.125061, 4.36725, -0.5114504, 4.36725, 2.7633588, 4.36725, -2.9923663
0.5145882, -0.0149386, 4.374, -0.0352783, 4.374, -1.0043945, 4.374, -0.1289673, 4.374, -0.5572519, 4.374, 2.6564887, 4.374, -2.9465649
0.5153824, -0.0154421, 4.38075, -0.0333862, 4.38075, -1.0050049, 4.38075, -0.1291504, 4.38075, -0.7251908, 4.38075, 2.6717558, 4.38075, -3.0229008
0.5161765, -0.0129244, 4.3875, -0.0308838, 4.3875, -1.0062866, 4.3875, -0.1240845, 4.3875, -0.870229, 4.3875, 2.6641221, 4.3875, -3.0305343
0.5169706, -0.0142672, 4.39425, -0.0318604, 4.39425, -1.0031738, 4.39425, -0.121521, 4.39425, -0.648855, 4.39425, 2.6030533, 4.39425, -3.038168
0.5177647, -0.0149386, 4.401, -0.034668, 4.401, -1.0031738, 4.401, -0.1224976, 4.401, -0.7709923, 4.401, 2.6793892, 4.401, -2.9847329
0.5185588, -0.0147707, 4.40775, -0.0378418, 4.40775, -1.0010986, 4.40775, -0.1252441, 4.40775, -0.6870229, 4.40775, 2.8625953, 4.40775, -3.0076337
0.5193529, -0.0164492, 4.4145, -0.0361328, 4.4145, -1.0007324, 4.4145, -0.1308594, 4.4145, -0.7557252, 4.4145, 2.7633588, 4.4145, -3.1068702
0.5201471, -0.01561, 4.42125, -0.0352783, 4.42125, -1.0039062, 4.42125, -0.1292725, 4.42125, -0.6946565, 4.42125, 2.4732823, 4.42125, -2.8931298
0.5209412, -0.0206455, 4.428, -0.0325928, 4.428, -1.0037231, 4.428, -0.12677, 4.428, -0.5801527, 4.428, 2.4885497, 4.428, -3.1374047
0.5217353, -0.0203098, 4.43475, -0.0354614, 4.43475, -1.0081787, 4.43475, -0.1314697, 4.43475, -0.5038168, 4.43475, 2.6717558, 4.43475, -3.2824428
0.5225294, -0.018967, 4.4415, -0.0356445, 4.4415, -1.0049438, 4.4415, -0.1309204, 4.4415, -0.3816794, 4.4415, 2.9694657, 4.4415, -3.2748091
0.5233235, -0.0184634, 4.44825, -0.0372925, 4.44825, -1.0040283, 4.44825, -0.1351318, 4.44825, -0.3664122, 4.44825, 3.2671757, 4.44825, -3.2061069
0.5241176, -0.0213169, 4.455, -0.0406494, 4.455, -1.007019, 4.455, -0.1340942, 4.455, -0.3587786, 4.455, 3, 4.455, -3.3129771
0.5249118, -0.018967, 4.46175, -0.0415649, 4.46175, -1.006958, 4.46175, -0.1311646, 4.46175, -0.2824427, 4.46175, 3, 4.46175, -3.5038168
0.5257059, -0.0182956, 4.4685, -0.0405884, 4.4685, -1.0067139, 4.4685, -0.1328735, 4.4685, -0.221374, 4.4685, 2.9847329, 4.4685, -3.3129771
0.5265, -0.0198062, 4.47525, -0.038147, 4.47525, -1.0042114, 4.47525, -0.1335449, 4.47525, -0.1374046, 4.47525, 2.740458, 4.47525, -3.1526718
0.5272941, -0.0169528, 4.482, -0.0400391, 4.482, -1.0040283, 4.482, -0.1386108, 4.482, -0.0610687, 4.482, 2.8015268, 4.482, -3.3587787
0.5280882, -0.012253, 4.48875, -0.0413208, 4.48875, -1.0076904, 4.48875, -0.1362305, 4.48875, -0.2366412, 4.48875, 2.610687, 4.48875, -3.3587787
0.5288824, -0.0132601, 4.4955, -0.0404053, 4.4955, -1.0060425, 4.4955, -0.1295166, 4.4955, -0.0534351, 4.4955, 2.1832061, 4.4955, -3.4274809
0.5296765, -0.0117494, 4.50225, -0.0374146, 4.50225, -1.0054932, 4.50225, -0.1321411, 4.50225, -0.0152672, 4.50225, 1.8320611, 4.50225, -3.610687
0.5304706, -0.0082246, 4.509, -0.0335083, 4.509, -1.0040283, 4.509, -0.1304321, 4.509, -0.0152672, 4.509, 1.7251909, 4.509, -3.5572519
0.5312647, -0.0082246, 4.51575, -0.0285645, 4.51575, -1.0021973, 4.51575, -0.1303101, 4.51575, -0.0992366, 4.51575, 1.8091604, 4.51575, -3.4885497
0.5320588, -0.0124208, 4.5225, -0.0266113, 4.5225, -1.0009155, 4.5225, -0.1265259, 4.5225, -0.2519084, 4.5225, 2.1145039, 4.5225, -3.4656489
0.5328529, -0.0159457, 4.52925, -0.0292969, 4.52925, -1.0059814, 4.52925, -0.125, 4.52925, -0.1603053, 4.52925, 2.4122138, 4.52925, -3.5725191
0.5336471, -0.01561, 4.536, -0.0297241, 4.536, -1.0053711, 4.536, -0.1268921, 4.536, -0.3053435, 4.536, 2.5725191, 4.536, -3.519084
0.5344412, -0.0129244, 4.54275, -0.0324097, 4.54275, -1.0084229, 4.54275, -0.1244507, 4.54275, -0.1068702, 4.54275, 2.7633588, 4.54275, -3.6641221
0.5352353, -0.0112459, 4.5495, -0.036438, 4.5495, -1.0055542, 4.5495, -0.1283569, 4.5495, -0.0381679, 4.5495, 2.9160306, 4.5495, -3.6641221
0.5360294, -0.012253, 4.55625, -0.0372314, 4.55625, -1.0072021, 4.55625, -0.1265869, 4.55625, -0.0534351, 4.55625, 2.8778627, 4.55625, -3.7175572
0.5368235, -0.0137636, 4.563, -0.0402832, 4.563, -1.0066528, 4.563, -0.1283569, 4.563, 0.1374046, 4.563, 2.7709923, 4.563, -3.740458
0.5376176, -0.0139315, 4.56975, -0.0370483, 4.56975, -1.0064697, 4.56975, -0.1294556, 4.56975, 0.1145038, 4.56975, 2.5877862, 4.56975, -3.6717558
0.5384118, -0.011078, 4.5765, -0.0340576, 4.5765, -1.0081787, 4.5765, -0.1350098, 4.5765, 0.2366412, 4.5765, 2.389313, 4.5765, -3.8244274
0.5392059, -0.0132601, 4.58325, -0.0362549, 4.58325, -1.0065308, 4.58325, -0.1363525, 4.58325, 0.1755725, 4.58325, 2.389313, 4.58325, -3.8625953
0.54, -0.0109102, 4.59, -0.0360718, 4.59, -1.0076294, 4.59, -0.1383667, 4.59, 0.1450382, 4.59, 2.3053436, 4.59, -3.8320611
0.5407941, -0.0097353, 4.59675, -0.0356445, 4.59675, -1.008606, 4.59675, -0.1397705, 4.59675, -0.0152672, 4.59675, 2.129771, 4.59675, -3.870229
0.5415882, -0.0152743, 4.6035, -0.0369263, 4.6035, -1.0078125, 4.6035, -0.1398926, 4.6035, 0.1679389, 4.6035, 1.8778626, 4.6035, -3.8625953
0.5423824, -0.0115816, 4.61025, -0.0379639, 4.61025, -1.0134888, 4.61025, -0.1404419, 4.61025, 0.2442748, 4.61025, 1.648855, 4.61025, -3.9694657
0.5431765, -0.0090639, 4.617, -0.0368652, 4.617, -1.0083008, 4.617, -0.138916, 4.617, 0.389313, 4.617, 1.2519084, 4.617, -4.1068702
0.5439706, -0.0132601, 4.62375, -0.0430908, 4.62375, -1.0136719, 4.62375, -0.1393433, 4.62375, 0.4503817, 4.62375, 0.8396947, 4.62375, -4.1374044
0.5447647, -0.0182956, 4.6305, -0.0378418, 4.6305, -1.0167236, 4.6305, -0.138855, 4.6305, 0.7633588, 4.6305, 0.3435115, 4.6305, -4.2061067
0.5455588, -0.0196384, 4.63725, -0.0353394, 4.63725, -1.0139771, 4.63725, -0.1348877, 4.63725, 0.8549618, 4.63725, 0.0839695, 4.63725, -4.2290077
0.5463529, -0.01561, 4.644, -0.0379028, 4.644, -1.0117188, 4.644, -0.1351929, 4.644, 1.0076336, 4.644, -0.1984733, 4.644, -4.2442746
0.5471471, -0.0166171, 4.65075, -0.0390015, 4.65075, -1.0087891, 4.65075, -0.1386108, 4.65075, 1.0687023, 4.65075, -0.3358779, 4.65075, -4.1832061
0.5479412, -0.0176242, 4.6575, -0.0324097, 4.6575, -1.0093384, 4.6575, -0.1362915, 4.6575, 1.0992366, 4.6575, -0.5877863, 4.6575, -4.2290077
0.5487353, -0.0179599, 4.66425, -0.0317383, 4.66425, -1.008606, 4.66425, -0.1349487, 4.66425, 1.1908396, 4.66425, -0.6946565, 4.66425, -4.3816795
0.5495294, -0.0193027, 4.671, -0.0279541, 4.671, -1.0111694, 4.671, -0.1307983, 4.671, 1.3969465, 4.671, -0.7099237, 4.671, -4.1603055
0.5503235, -0.0196384, 4.67775, -0.0282593, 4.67775, -1.0056152, 4.67775, -0.1304932, 4.67775, 1.519084, 4.67775, -0.3740458, 4.67775, -4.3893127
0.5511176, -0.0196384, 4.6845, -0.0230103, 4.6845, -1.0028687, 4.6845, -0.1277466, 4.6845, 1.3435115, 4.6845, -0.129771, 4.6845, -4.2519083
0.5519118, -0.0169528, 4.69125, -0.0269165, 4.69125, -1.0038452, 4.69125, -0.1268311, 4.69125, 1.4122137, 4.69125, -0.0992366, 4.69125, -4.0839696
0.5527059, -0.0132601, 4.698, -0.0236816, 4.698, -1.0090332, 4.698, -0.125061, 4.698, 1.5038168, 4.698, -0.0610687, 4.698, -4.0458016
0.5535, -0.0147707, 4.70475, -0.0205078, 4.70475, -1.00354, 4.70475, -0.1224365, 4.70475, 1.4198474, 4.70475, 0.0992366, 4.70475, -3.8244274
0.5542941, -0.012253, 4.7115, -0.0186768, 4.7115, -1.0039673, 4.7115, -0.1193848, 4.7115, 1.3282443, 4.7115, 0.6183206, 4.7115, -3.6946564
0.5550882, -0.0102388, 4.71825, -0.0162354, 4.71825, -1.0015869, 4.71825, -0.1207886, 4.71825, 1.221374, 4.71825, 0.7633588, 4.71825, -3.7328243
0.5558824, -0.0119173, 4.725, -0.0134888, 4.725, -1.0010986, 4.725, -0.1237793, 4.725, 0.961832, 4.725, 0.9923664, 4.725, -3.389313
0.5566765, -0.0112459, 4.73175, -0.0142822, 4.73175, -1.00177, 4.73175, -0.1207275, 4.73175, 1.0152671, 4.73175, 1.2137405, 4.73175, -3.3435113
0.5574706, -0.0095674, 4.7385, -0.0171509, 4.7385, -1.0013428, 4.7385, -0.1216431, 4.7385, 0.7633588, 4.7385, 1.2519084, 4.7385, -3.0763359
0.5582647, -0.012253, 4.74525, -0.0155029, 4.74525, -1.0039062, 4.74525, -0.1206665, 4.74525, 0.7480916, 4.74525, 1.351145, 4.74525, -3.0458016
0.5590588, -0.0149386, 4.752, -0.0155029, 4.752, -1.0050049, 4.752, -0.1227417, 4.752, 0.6717557, 4.752, 1.4045801, 4.752, -2.8396947
0.5598529, -0.0152743, 4.75875, -0.0153198, 4.75875, -1.0041504, 4.75875, -0.1217041, 4.75875, 0.5267175, 4.75875, 1.4580153, 4.75875, -2.7328243
0.5606471, -0.0142672, 4.7655, -0.0166626, 4.7655, -1.0037842, 4.7655, -0.1204834, 4.7655, 0.3358779, 4.7655, 1.6564885, 4.7655, -2.5877862
0.5614412, -0.0149386, 4.77225, -0.0147705, 4.77225, -1.0055542, 4.77225, -0.1234741, 4.77225, 0.351145, 4.77225, 1.8931298, 4.77225, -2.480916
0.5622353, -0.01561, 4.779, -0.0174561, 4.779, -1.0076904, 4.779, -0.121582, 4.779, -0.0305344, 4.779, 2.091603, 4.779, -2.5419848
0.5630294, -0.01561, 4.78575, -0.0182495, 4.78575, -1.0107422, 4.78575, -0.1210938, 4.78575, -0.0152672, 4.78575, 2.3816793, 4.78575, -2.3664122
0.5638235, -0.0135958, 4.7925, -0.0223999, 4.7925, -1.008606, 4.7925, -0.1240234, 4.7925, -0.0305344, 4.7925, 2.6335878, 4.7925, -2.221374
0.5646176, -0.0137636, 4.79925, -0.020874, 4.79925, -1.0118408, 4.79925, -0.124939, 4.79925, -0.1145038, 4.79925, 2.6335878, 4.79925, -2.1374047
0.5654118, -0.0146029, 4.806, -0.0248413, 4.806, -1.0089722, 4.806, -0.1278076, 4.806, -0.2137405, 4.806, 2.6564887, 4.806, -2.038168
0.5662059, -0.0162814, 4.81275, -0.0286255, 4.81275, -1.0135498, 4.81275, -0.128479, 4.81275, -0.2290076, 4.81275, 2.7251909, 4.81275, -1.908397
0.567, -0.0162814, 4.8195, -0.0306396, 4.8195, -1.0111694, 4.8195, -0.1288452, 4.8195, -0.259542, 4.8195, 2.7480917, 4.8195, -1.9847329
0.5677941, -0.0169528, 4.82625, -0.0344849, 4.82625, -1.0079956, 4.82625, -0.1290894, 4.82625, -0.3740458, 4.82625, 2.6412213, 4.82625, -1.870229
0.5685882, -0.0146029, 4.833, -0.0306396, 4.833, -1.006958, 4.833, -0.1323853, 4.833, -0.3129771, 4.833, 2.6259542, 4.833, -1.870229
0.5693824, -0.008896, 4.83975, -0.0316772, 4.83975, -1.0075684, 4.83975, -0.131958, 4.83975, -0.389313, 4.83975, 2.4656489, 4.83975, -1.9465649
0.5701765, -0.0068818, 4.8465, -0.0285645, 4.8465, -1.0070801, 4.8465, -0.1304932, 4.8465, -0.3664122, 4.8465, 2.4732823, 4.8465, -1.8015267
0.5709706, -0.0085603, 4.85325, -0.0299683, 4.85325, -1.0054321, 4.85325, -0.1326904, 4.85325, -0.1984733, 4.85325, 2.519084, 4.85325, -1.9541985
0.5717647, -0.0085603, 4.86, -0.0351562, 4.86, -1.0081787, 4.86, -0.1314697, 4.86, -0.221374, 4.86, 2.5725191, 4.86, -1.8931298
0.5725588, -0.0102388, 4.86675, -0.0361938, 4.86675, -1.0058594, 4.86675, -0.1350098, 4.86675, 0.0916031, 4.86675, 2.610687, 4.86675, -1.8244275
0.5733529, -0.0125887, 4.8735, -0.0355835, 4.8735, -1.0079956, 4.8735, -0.1368408, 4.8735, 0.1145038, 4.8735, 2.3053436, 4.8735, -1.9694656
0.5741471, -0.0139315, 4.88025, -0.0373535, 4.88025, -1.0072021, 4.88025, -0.1355591, 4.88025, 0.1221374, 4.88025, 1.9847329, 4.88025, -1.9160305
0.5749412, -0.0142672, 4.887, -0.0367432, 4.887, -1.0073242, 4.887, -0.1363525, 4.887, 0.3358779, 4.887, 1.8320611, 4.887, -2.0305343
0.5757353, -0.0176242, 4.89375, -0.0378418, 4.89375, -1.0059204, 4.89375, -0.1346436, 4.89375, 0.1679389, 4.89375, 1.480916, 4.89375, -2.1068702
0.5765294, -0.0149386, 4.9005, -0.0367432, 4.9005, -1.0074463, 4.9005, -0.137207, 4.9005, 0.1755725, 4.9005, 1.4122137, 4.9005, -2.0992367
0.5773235, -0.012253, 4.90725, -0.0371704, 4.90725, -1.0066528, 4.90725, -0.1381226, 4.90725, 0.4045801, 4.90725, 1.3587786, 4.90725, -2.3969467
0.5781176, -0.0135958, 4.914, -0.0438232, 4.914, -1.0089722, 4.914, -0.1399536, 4.914, 0.6717557, 4.914, 1.3435115, 4.914, -2.3282442
0.5789118, -0.0149386, 4.92075, -0.0388794, 4.92075, -1.0055542, 4.92075, -0.138855, 4.92075, 0.4580153, 4.92075, 1.221374, 4.92075, -2.3816793
0.5797059, -0.0159457, 4.9275, -0.0395508, 4.9275, -1.007019, 4.9275, -0.1346436, 4.9275, 0.4885496, 4.9275, 1.0534351, 4.9275, -2.3053436
0.5805, -0.0186313, 4.93425, -0.0383301, 4.93425, -1.0053101, 4.93425, -0.135498, 4.93425, 0.7022901, 4.93425, 0.908397, 4.93425, -2.3816793
0.5812941, -0.0166171, 4.941, -0.0392456, 4.941, -1.0054321, 4.941, -0.1349487, 4.941, 0.6946565, 4.941, 0.8167939, 4.941, -2.6259542
0.5820882, -0.0176242, 4.94775, -0.0426636, 4.94775, -1.0046387, 4.94775, -0.135498, 4.94775, 0.5648855, 4.94775, 0.8091603, 4.94775, -2.5801528
0.5828824, -0.0171206, 4.9545, -0.0379639, 4.9545, -1.0026855, 4.9545, -0.1343994, 4.9545, 0.6946565, 4.9545, 0.7633588, 4.9545, -2.6412213
0.5836765, -0.0162814, 4.96125, -0.0378418, 4.96125, -1.005188, 4.96125, -0.1327515, 4.96125, 0.6946565, 4.96125, 0.8244275, 4.96125, -2.6259542
0.5844706, -0.0162814, 4.968, -0.0343018, 4.968, -1.0039673, 4.968, -0.1340332, 4.968, 0.5877863, 4.968, 0.6870229, 4.968, -2.5419848
0.5852647, -0.0132601, 4.97475, -0.0341797, 4.97475, -1.0048218, 4.97475, -0.1312256, 4.97475, 0.5954198, 4.97475, 0.7175573, 4.97475, -2.5954199
0.5860588, -0.0162814, 4.9815, -0.0350952, 4.9815, -1.0026855, 4.9815, -0.1314087, 4.9815, 0.4580153, 4.9815, 0.7099237, 4.9815, -2.5801528
0.5868529, -0.018967, 4.98825, -0.0335693, 4.98825, -1.0043335, 4.98825, -0.1307983, 4.98825, 0.3282443, 4.98825, 0.6793893, 4.98825, -2.6335878
0.5876471, -0.0172885, 4.995, -0.0363159, 4.995, -1.0047607, 4.995, -0.1307373, 4.995, 0.5496183, 4.995, 0.5343512, 4.995, -2.6564887
0.5884412, -0.0176242, 5.00175, -0.0341797, 5.00175, -1.0073242, 5.00175, -0.1315308, 5.00175, 0.3282443, 5.00175, 0.3740458, 5.00175, -2.4885497
0.5892353, -0.0184634, 5.0085, -0.0354004, 5.0085, -1.0049438, 5.0085, -0.1293335, 5.0085, 0.5343512, 5.0085, 0.259542, 5.0085, -2.8473282
0.5900294, -0.0169528, 5.01525, -0.0350952, 5.01525, -1.0061646, 5.01525, -0.130249, 5.01525, 0.3969466, 5.01525, 0.3282443, 5.01525, -2.9465649
0.5908235, -0.0164492, 5.022, -0.0385132, 5.022, -1.0065308, 5.022, -0.1328125, 5.022, 0.480916, 5.022, 0.1603053, 5.022, -3.0458016
0.5916176, -0.0109102, 5.02875, -0.0396729, 5.02875, -1.0067749, 5.02875, -0.1342163, 5.02875, 0.3129771, 5.02875, 0.1603053, 5.02875, -2.8854961
0.5924118, -0.008896, 5.0355, -0.0410767, 5.0355, -1.0085449, 5.0355, -0.135498, 5.0355, 0.519084, 5.0355, 0.2671756, 5.0355, -2.778626
0.5932059, -0.0105745, 5.04225, -0.0375366, 5.04225, -1.0059204, 5.04225, -0.1384277, 5.04225, 0.7099237, 5.04225, -0.0381679, 5.04225, -2.9312978
0.594, -0.0109102, 5.049, -0.0358276, 5.049, -1.0063477, 5.049, -0.1369019, 5.049, 0.648855, 5.049, -0.0076336, 5.049, -2.778626
0.5947941, -0.0125887, 5.05575, -0.0341797, 5.05575, -1.0055542, 5.05575, -0.1362915, 5.05575, 0.9160305, 5.05575, 0.0687023, 5.05575, -2.8549619
0.5955882, -0.0159457, 5.0625, -0.0346069, 5.0625, -1.0071411, 5.0625, -0.1363525, 5.0625, 0.908397, 5.0625, 0.1755725, 5.0625, -2.9694657
0.5963824, -0.0166171, 5.06925, -0.0338135, 5.06925, -1.0059204, 5.06925, -0.1398926, 5.06925, 0.9923664, 5.06925, 0.2290076, 5.06925, -3.0076337
0.5971765, -0.0152743, 5.076, -0.0366821, 5.076, -1.0033569, 5.076, -0.1365967, 5.076, 0.8015267, 5.076, 0.1221374, 5.076, -3.0076337
0.5979706, -0.0149386, 5.08275, -0.0368042, 5.08275, -1.0029297, 5.08275, -0.1355591, 5.08275, 0.908397, 5.08275, 0.1908397, 5.08275, -2.9923663
0.5987647, -0.014435, 5.0895, -0.0377808, 5.0895, -1.0026245, 5.0895, -0.1364136, 5.0895, 0.9923664, 5.0895, 0.0992366, 5.0895, -2.8244274
0.5995588, -0.0124208, 5.09625, -0.036438, 5.09625, -1.0050659, 5.09625, -0.1404419, 5.09625, 0.8320611, 5.09625, 0.1450382, 5.09625, -2.8167939
0.6003529, -0.012253, 5.103, -0.02948, 5.103, -1.0023193, 5.103, -0.1351929, 5.103, 0.9312977, 5.103, 0.1908397, 5.103, -2.7633588
0.6011471, -0.0149386, 5.10975, -0.0304565, 5.10975, -1.00354, 5.10975, -0.1347046, 5.10975, 0.9923664, 5.10975, 0.2977099, 5.10975, -2.7633588
0.6019412, -0.0171206, 5.1165, -0.0297852, 5.1165, -1.0032959, 5.1165, -0.1340942, 5.1165, 0.8167939, 5.1165, 0.2748092, 5.1165, -2.908397
0.6027353, -0.0169528, 5.12325, -0.0291138, 5.12325, -1.0029297, 5.12325, -0.1327515, 5.12325, 0.6793893, 5.12325, 0.1450382, 5.12325, -3.0458016
0.6035294, -0.0166171, 5.13, -0.0297852, 5.13, -1.0042114, 5.13, -0.1320801, 5.13, 0.6183206, 5.13, 0.2366412, 5.13, -3.0534351
0.6043235, -0.0142672, 5.13675, -0.0317383, 5.13675, -1.0046997, 5.13675, -0.1303101, 5.13675, 0.8320611, 5.13675, 0.6564885, 5.13675, -2.778626
0.6051176, -0.0129244, 5.1435, -0.0328979, 5.1435, -1.0046387, 5.1435, -0.1335449, 5.1435, 0.6030535, 5.1435, 0.4961832, 5.1435, -2.7709923
0.6059118, -0.0135958, 5.15025, -0.034729, 5.15025, -1.0044556, 5.15025, -0.1323853, 5.15025, 0.4656489, 5.15025, 0.6259542, 5.15025, -2.7480917
0.6067059, -0.012253, 5.157, -0.0355225, 5.157, -1.0095215, 5.157, -0.1309204, 5.157, 0.6335878, 5.157, 0.6335878, 5.157, -2.7862597
0.6075, -0.011078, 5.16375, -0.0376587, 5.16375, -1.0057373, 5.16375, -0.1362305, 5.16375, 0.5801527, 5.16375, 0.6870229, 5.16375, -2.778626
0.6082941, -0.0149386, 5.1705, -0.03302, 5.1705, -1.0025635, 5.1705, -0.1365967, 5.1705, 0.740458, 5.1705, 0.778626, 5.1705, -2.6717558
0.6090882, -0.0162814, 5.17725, -0.0333862, 5.17725, -1.005249, 5.17725, -0.1347656, 5.17725, 0.4961832, 5.17725, 1, 5.17725, -2.7480917
0.6098824, -0.01561, 5.184, -0.0325317, 5.184, -1.0054932, 5.184, -0.1346436, 5.184, 0.6717557, 5.184, 1.1374046, 5.184, -2.6335878
0.6106765, -0.0169528, 5.19075, -0.0338135, 5.19075, -1.0078735, 5.19075, -0.1359863, 5.19075, 0.5877863, 5.19075, 1.4351145, 5.19075, -2.8854961
0.6114706, -0.0162814, 5.1975, -0.0345459, 5.1975, -1.0095215, 5.1975, -0.1351929, 5.1975, 0.5648855, 5.1975, 1.2748091, 5.1975, -2.870229
0.6122647, -0.0166171, 5.20425, -0.0384521, 5.20425, -1.0078735, 5.20425, -0.1339722, 5.20425, 0.9847328, 5.20425, 1.1679389, 5.20425, -2.8854961
0.6130588, -0.0137636, 5.211, -0.0378418, 5.211, -1.0066528, 5.211, -0.1343384, 5.211, 0.6793893, 5.211, 1.038168, 5.211, -2.7557251
0.6138529, -0.0139315, 5.21775, -0.0348511, 5.21775, -1.0056763, 5.21775, -0.1361694, 5.21775, 0.7938932, 5.21775, 0.8244275, 5.21775, -2.7709923
0.6146471, -0.017792, 5.2245, -0.0339355, 5.2245, -1.0067139, 5.2245, -0.1376953, 5.2245, 0.8091603, 5.2245, 0.7022901, 5.2245, -2.8625953
0.6154412, -0.0152743, 5.23125, -0.0354614, 5.23125, -1.0054321, 5.23125, -0.1357422, 5.23125, 0.6870229, 5.23125, 0.6564885, 5.23125, -2.870229
0.6162353, -0.0139315, 5.238, -0.0369873, 5.238, -1.0015259, 5.238, -0.1326904, 5.238, 0.778626, 5.238, 0.908397, 5.238, -2.9007633
0.6170294, -0.0162814, 5.24475, -0.0372314, 5.24475, -1.0038452, 5.24475, -0.1345215, 5.24475, 0.8473282, 5.24475, 1.0076336, 5.24475, -2.778626
0.6178235, -0.0171206, 5.2515, -0.0365601, 5.2515, -1.0050049, 5.2515, -0.1326294, 5.2515, 0.8396947, 5.2515, 0.9694657, 5.2515, -2.7709923
0.6186176, -0.0146029, 5.25825, -0.0374756, 5.25825, -1.0096436, 5.25825, -0.1347046, 5.25825, 0.8167939, 5.25825, 1.0839695, 5.25825, -2.6412213
0.6194118, -0.0146029, 5.265, -0.0388794, 5.265, -1.0083618, 5.265, -0.1350708, 5.265, 0.8549618, 5.265, 1.0992366, 5.265, -2.8091602
0.6202059, -0.0172885, 5.27175, -0.0380249, 5.27175, -1.0033569, 5.27175, -0.1305542, 5.27175, 0.8091603, 5.27175, 1.129771, 5.27175, -2.8320611
0.621, -0.0135958, 5.2785, -0.034668, 5.2785, -1.008728, 5.2785, -0.1342773, 5.2785, 0.8320611, 5.2785, 1.3206106, 5.2785, -2.7557251
0.6217941, -0.01561, 5.28525, -0.0360718, 5.28525, -1.0056152, 5.28525, -0.1345825, 5.28525, 0.7557252, 5.28525, 1.0992366, 5.28525, -2.8625953
0.6225882, -0.017792, 5.292, -0.0357666, 5.292, -1.0065918, 5.292, -0.135376, 5.292, 0.8473282, 5.292, 1.1450381, 5.292, -2.8244274
0.6233824, -0.0172885, 5.29875, -0.0386353, 5.29875, -1.0061646, 5.29875, -0.1351929, 5.29875, 0.9007633, 5.29875, 1.0610687, 5.29875, -3.0305343
0.6241765, -0.0176242, 5.3055, -0.038269, 5.3055, -1.0092773, 5.3055, -0.1340942, 5.3055, 0.8473282, 5.3055, 1.1221374, 5.3055, -3.0305343
0.6249706, -0.01561, 5.31225, -0.038269, 5.31225, -1.0084229, 5.31225, -0.1353149, 5.31225, 0.8778626, 5.31225, 0.8244275, 5.31225, -2.870229
0.6257647, -0.0176242, 5.319, -0.0327148, 5.319, -1.0097046, 5.319, -0.1328125, 5.319, 0.9465649, 5.319, 0.5038168, 5.319, -2.908397
0.6265588, -0.0142672, 5.32575, -0.0332031, 5.32575, -1.0064087, 5.32575, -0.1322021, 5.32575, 0.9694657, 5.32575, 0.3587786, 5.32575, -3.0229008
0.6273529, -0.0149386, 5.3325, -0.0339966, 5.3325, -1.0050049, 5.3325, -0.1312866, 5.3325, 0.778626, 5.3325, 0.4961832, 5.3325, -2.8854961
0.6281471, -0.0162814, 5.33925, -0.034729, 5.33925, -1.0092163, 5.33925, -0.1326904, 5.33925, 0.7862595, 5.33925, 0.5572519, 5.33925, -2.9236641
0.6289412, -0.012253, 5.346, -0.0355225, 5.346, -1.0053101, 5.346, -0.1317139, 5.346, 0.7709923, 5.346, 0.5801527, 5.346, -2.7480917
0.6297353, -0.0112459, 5.35275, -0.0361938, 5.35275, -1.0018311, 5.35275, -0.135376, 5.35275, 0.6793893, 5.35275, 0.4274809, 5.35275, -2.7633588
0.6305294, -0.0135958, 5.3595, -0.0363159, 5.3595, -1.0026855, 5.3595, -0.1334839, 5.3595, 0.6946565, 5.3595, 0.5343512, 5.3595, -2.9465649
0.6313235, -0.0105745, 5.36625, -0.0361938, 5.36625, -1.0063477, 5.36625, -0.1358643, 5.36625, 0.5114504, 5.36625, 0.5648855, 5.36625, -2.778626
0.6321176, -0.0129244, 5.373, -0.0373535, 5.373, -1.0089111, 5.373, -0.1345825, 5.373, 0.610687, 5.373, 0.4198473, 5.373, -2.8549619
0.6329118, -0.0125887, 5.37975, -0.0401001, 5.37975, -1.0059204, 5.37975, -0.1348877, 5.37975, 0.5648855, 5.37975, 0.6030535, 5.37975, -2.7862597
0.6337059, -0.012253, 5.3865, -0.0386963, 5.3865, -1.0054932, 5.3865, -0.1362305, 5.3865, 0.740458, 5.3865, 0.8167939, 5.3865, -2.7938931
0.6345, -0.0125887, 5.39325, -0.038269, 5.39325, -1.0038452, 5.39325, -0.1366577, 5.39325, 0.7022901, 5.39325, 0.870229, 5.39325, -2.8091602
0.6352941, -0.0115816, 5.4, -0.0370483, 5.4, -1.0046387, 5.4, -0.1373291, 5.4, 0.7328244, 5.4, 0.9770992, 5.4, -2.8931298
0.6360882, -0.0146029, 5.40675, -0.0376587, 5.40675, -1.0053101, 5.40675, -0.1364136, 5.40675, 0.5954198, 5.40675, 0.908397, 5.40675, -3.0152671
0.6368824, -0.0176242, 5.4135, -0.0380859, 5.4135, -1.0056763, 5.4135, -0.1364746, 5.4135, 0.6030535, 5.4135, 0.908397, 5.4135, -3.0152671
0.6376765, -0.0146029, 5.42025, -0.0370483, 5.42025, -1.0031128, 5.42025, -0.137207, 5.42025, 0.7328244, 5.42025, 0.7938932, 5.42025, -2.9236641
0.6384706, -0.0127565, 5.427, -0.0407104, 5.427, -1.0049438, 5.427, -0.1389771, 5.427, 0.6870229, 5.427, 0.778626, 5.427, -3.091603
0.6392647, -0.0125887, 5.43375, -0.0410767, 5.43375, -1.0037842, 5.43375, -0.1403198, 5.43375, 0.740458, 5.43375, 0.9312977, 5.43375, -3.1374047
0.6400588, -0.0132601, 5.4405, -0.0374146, 5.4405, -1.0057983, 5.4405, -0.1400757, 5.4405, 0.740458, 5.4405, 0.7938932, 5.4405, -3.1374047
0.6408529, -0.0157778, 5.44725, -0.0385132, 5.44725, -1.0053711, 5.44725, -0.1401367, 5.44725, 0.7938932, 5.44725, 0.648855, 5.44725, -3.0229008
0.6416471, -0.0159457, 5.454, -0.0379028, 5.454, -1.0067139, 5.454, -0.1383057, 5.454, 0.8091603, 5.454, 0.6030535, 5.454, -3.0305343
0.6424412, -0.0142672, 5.46075, -0.0397949, 5.46075, -1.0066528, 5.46075, -0.1383667, 5.46075, 0.9389313, 5.46075, 0.5419847, 5.46075, -3.0458016
0.6432353, -0.0125887, 5.4675, -0.0357666, 5.4675, -1.0072632, 5.4675, -0.1361694, 5.4675, 0.8473282, 5.4675, 0.5877863, 5.4675, -3.1526718
0.6440294, -0.0102388, 5.47425, -0.0366211, 5.47425, -1.0063477, 5.47425, -0.1329956, 5.47425, 0.7480916, 5.47425, 0.5419847, 5.47425, -3.1755726
0.6448235, -0.0129244, 5.481, -0.0350342, 5.481, -1.0073242, 5.481, -0.1337891, 5.481, 1.091603, 5.481, 0.610687, 5.481, -3.0305343
0.6456176, -0.0139315, 5.48775, -0.0365601, 5.48775, -1.003479, 5.48775, -0.1360474, 5.48775, 0.9694657, 5.48775, 0.6564885, 5.48775, -3.1908398
0.6464118, -0.0129244, 5.4945, -0.0372925, 5.4945, -1.0045776, 5.4945, -0.1347046, 5.4945, 0.908397, 5.4945, 0.8320611, 5.4945, -3.1221373
0.6472059, -0.0109102, 5.50125, -0.039856, 5.50125, -1.0059814, 5.50125, -0.1353149, 5.50125, 1.0076336, 5.50125, 0.5343512, 5.50125, -3.0610688
0.648, -0.0162814, 5.508, -0.039978, 5.508, -1.0075684, 5.508, -0.1349487, 5.508, 1.221374, 5.508, 0.8625954, 5.508, -3.1908398
0.6487941, -0.021149, 5.51475, -0.0394897, 5.51475, -1.0057373, 5.51475, -0.1362305, 5.51475, 1.221374, 5.51475, 0.8854962, 5.51475, -3.2519083
0.6495882, -0.0213169, 5.5215, -0.0393066, 5.5215, -1.0056152, 5.5215, -0.1410522, 5.5215, 1.2900764, 5.5215, 0.8854962, 5.5215, -3.2061069
0.6503824, -0.018967, 5.52825, -0.0355225, 5.52825, -1.0047607, 5.52825, -0.1390381, 5.52825, 1.3435115, 5.52825, 0.9236641, 5.52825, -3.1526718
0.6511765, -0.0179599, 5.535, -0.0363159, 5.535, -1.0092163, 5.535, -0.1395874, 5.535, 1.3358779, 5.535, 1.038168, 5.535, -3.0992367
0.6519706, -0.0169528, 5.54175, -0.0349121, 5.54175, -1.005249, 5.54175, -0.1404419, 5.54175, 1.3435115, 5.54175, 1.1221374, 5.54175, -3.1221373
0.6527647, -0.0129244, 5.5485, -0.0368042, 5.5485, -1.0064087, 5.5485, -0.1433105, 5.5485, 1.3206106, 5.5485, 1.0610687, 5.5485, -3.2061069
0.6535588, -0.0112459, 5.55525, -0.0393677, 5.55525, -1.005188, 5.55525, -0.1402588, 5.55525, 1.2748091, 5.55525, 1.0534351, 5.55525, -3.2366412
0.6543529, -0.01561, 5.562, -0.038208, 5.562, -1.0062256, 5.562, -0.1425171, 5.562, 1.4580153, 5.562, 0.9236641, 5.562, -3.3053436
0.6551471, -0.0152743, 5.56875, -0.0358887, 5.56875, -1.0068359, 5.56875, -0.1383667, 5.56875, 1.5038168, 5.56875, 0.7862595, 5.56875, -3.2061069
0.6559412, -0.0140993, 5.5755, -0.0350952, 5.5755, -1.0059204, 5.5755, -0.1380615, 5.5755, 1.6793894, 5.5755, 0.9389313, 5.5755, -3.3358779
0.6567353, -0.0142672, 5.58225, -0.0359497, 5.58225, -1.0094604, 5.58225, -0.1403809, 5.58225, 1.6412214, 5.58225, 0.6412213, 5.58225, -3.2519083
0.6575294, -0.0149386, 5.589, -0.034729, 5.589, -1.0078735, 5.589, -0.1348877, 5.589, 1.8244275, 5.589, 0.2748092, 5.589, -3.2900763
0.6583235, -0.0129244, 5.59575, -0.0339966, 5.59575, -1.0082397, 5.59575, -0.1370239, 5.59575, 1.8931298, 5.59575, 0.4198473, 5.59575, -3.3358779
0.6591176, -0.0127565, 5.6025, -0.0336914, 5.6025, -1.003479, 5.6025, -0.1411743, 5.6025, 1.7938931, 5.6025, 0.610687, 5.6025, -3.2442749
0.6599118, -0.0132601, 5.60925, -0.0351562, 5.60925, -1.0055542, 5.60925, -0.1420898, 5.60925, 1.8167939, 5.60925, 1.0839695, 5.60925, -3.1679389
0.6607059, -0.0142672, 5.616, -0.0363159, 5.616, -1.0067749, 5.616, -0.1384277, 5.616, 1.8778626, 5.616, 1.2671756, 5.616, -3.1679389
0.6615, -0.0176242, 5.62275, -0.0378418, 5.62275, -1.0023804, 5.62275, -0.138855, 5.62275, 1.908397, 5.62275, 1.4656489, 5.62275, -3.2824428
0.6622941, -0.0162814, 5.6295, -0.0386963, 5.6295, -1.0053101, 5.6295, -0.1383057, 5.6295, 2.0458016, 5.6295, 1.5648855, 5.6295, -3.2442749
0.6630882, -0.0162814, 5.63625, -0.0413208, 5.63625, -1.0054932, 5.63625, -0.1377563, 5.63625, 2.221374, 5.63625, 1.5496184, 5.63625, -3.2748091
0.6638824, -0.0172885, 5.643, -0.0410767, 5.643, -1.0057983, 5.643, -0.1365967, 5.643, 2.1984732, 5.643, 1.7557251, 5.643, -3.4045801
0.6646765, -0.0166171, 5.64975, -0.0412598, 5.64975, -1.0048218, 5.64975, -0.1380615, 5.64975, 2.3816793, 5.64975, 1.7709924, 5.64975, -3.3740458
0.6654706, -0.0151064, 5.6565, -0.0377808, 5.6565, -1.0048828, 5.6565, -0.1359253, 5.6565, 2.4885497, 5.6565, 1.6793894, 5.6565, -3.3740458
0.6662647, -0.0149386, 5.66325, -0.0368652, 5.66325, -1.0090332, 5.66325, -0.140564, 5.66325, 2.5725191, 5.66325, 1.5267175, 5.66325, -3.2824428
0.6670588, -0.0169528, 5.67, -0.034668, 5.67, -1.010376, 5.67, -0.1437988, 5.67, 2.7099237, 5.67, 1.7480916, 5.67, -3.259542
0.6678529, -0.0164492, 5.67675, -0.0354004, 5.67675, -1.0083618, 5.67675, -0.1424561, 5.67675, 2.9465649, 5.67675, 1.6946565, 5.67675, -3.1755726
0.6686471, -0.0166171, 5.6835, -0.0401001, 5.6835, -1.0093384, 5.6835, -0.1463623, 5.6835, 3.038168, 5.6835, 1.8473282, 5.6835, -3.1374047
0.6694412, -0.0169528, 5.69025, -0.0385132, 5.69025, -1.003418, 5.69025, -0.1467285, 5.69025, 3.1832061, 5.69025, 1.6335878, 5.69025, -3.351145
0.6702353, -0.0117494, 5.697, -0.0384521, 5.697, -1.0111694, 5.697, -0.1514893, 5.697, 3.5114503, 5.697, 1.4274809, 5.697, -3.1145039
0.6710294, -0.0105745, 5.70375, -0.0393066, 5.70375, -1.0135498, 5.70375, -0.1541138, 5.70375, 3.778626, 5.70375, 1.3816794, 5.70375, -3.1832061
0.6718235, -0.0135958, 5.7105, -0.0440063, 5.7105, -1.0111694, 5.7105, -0.1551514, 5.7105, 4.1145039, 5.7105, 1.1908396, 5.7105, -3.0992367
0.6726176, -0.0162814, 5.71725, -0.041748, 5.71725, -1.0092163, 5.71725, -0.1513062, 5.71725, 4.3206105, 5.71725, 0.5725191, 5.71725, -3.1679389
0.6734118, -0.0162814, 5.724, -0.0415039, 5.724, -1.0085449, 5.724, -0.1497192, 5.724, 4.5877862, 5.724, 0.0839695, 5.724, -3.038168
0.6742059, -0.0151064, 5.73075, -0.0397949, 5.73075, -1.0108643, 5.73075, -0.149292, 5.73075, 4.6412215, 5.73075, -0.4503817, 5.73075, -3.0534351
0.675, -0.0152743, 5.7375, -0.0426636, 5.7375, -1.0096436, 5.7375, -0.1430054, 5.7375, 4.7480917, 5.7375, -0.3740458, 5.7375, -3
