Application:, Trigno Discover (1.7.0)
Date/Time:, 2026/9/9 下午 02:38:45
Collection Length (seconds):, 46.629
Avanti Sensor 11 (69574)
sensor mode: 50
EMG 1 Time Series (s), EMG 1 (mV), ACC X Time Series (s), ACC X (G), ACC Y Time Series (s), ACC Y (G), ACC Z Time Series (s), ACC Z (G), GYRO X Time Series (s), GYRO X (deg/s), GYRO Y Time Series (s), GYRO Y (deg/s), GYRO Z Time Series (s), GYRO Z (deg/s)
, 1259.2593 Hz, , 148.1481 Hz, , 148.1481 Hz, , 148.1481 Hz, , 148.1481 Hz, , 148.1481 Hz, , 148.1481 Hz
0, -0.0149386, 0, 0.1079102, 0, -0.975708, 0, -0.324646, 0, 0.7328244, 0, 0.3358779, 0, -3.1526718
0.0007941, -0.0105745, 0.00675, 0.1087036, 0.00675, -0.9755249, 0.00675, -0.3241577, 0.00675, 0.7480916, 0.00675, 0.3358779, 0.00675, -3.1145039
0.0015882, -0.0109102, 0.0135, 0.1083984, 0.0135, -0.9761963, 0.0135, -0.3225098, 0.0135, 0.7633588, 0.0135, 0.4198473, 0.0135, -3.0839694
0.0023824, -0.0129244, 0.02025, 0.1066895, 0.02025, -0.9758301, 0.02025, -0.3218384, 0.02025, 0.8167939, 0.02025, 0.4885496, 0.02025, -3.1221373
0.0031765, -0.0169528, 0.027, 0.1104126, 0.027, -0.9732666, 0.027, -0.3216553, 0.027, 0.9541985, 0.027, 0.6412213, 0.027, -3.0687022
0.0039706, -0.0167849, 0.03375, 0.1088867, 0.03375, -0.9713745, 0.03375, -0.3239746, 0.03375, 0.9465649, 0.03375, 0.6717557, 0.03375, -3.1068702
0.0047647, -0.0135958, 0.0405, 0.109436, 0.0405, -0.9719849, 0.0405, -0.3240967, 0.0405, 1.0076336, 0.0405, 0.9389313, 0.0405, -3.0687022
0.0055588, -0.0172885, 0.04725, 0.109314, 0.04725, -0.9733276, 0.04725, -0.3254395, 0.04725, 0.9770992, 0.04725, 0.908397, 0.04725, -3.1603053
0.0063529, -0.0199741, 0.054, 0.1085205, 0.054, -0.9747314, 0.054, -0.3262329, 0.054, 1.0610687, 0.054, 0.778626, 0.054, -3.129771
0.0071471, -0.017792, 0.06075, 0.1113281, 0.06075, -0.9763184, 0.06075, -0.3293457, 0.06075, 1.2519084, 0.06075, 1.0687023, 0.06075, -3.0229008
0.0079412, -0.0179599, 0.0675, 0.1102905, 0.0675, -0.9758301, 0.0675, -0.3307495, 0.0675, 1.2671756, 0.0675, 0.7709923, 0.0675, -3.0076337
0.0087353, -0.0203098, 0.07425, 0.1127319, 0.07425, -0.9777832, 0.07425, -0.3258057, 0.07425, 1.0763359, 0.07425, 0.8549618, 0.07425, -3.0458016
0.0095294, -0.0169528, 0.081, 0.1101685, 0.081, -0.973938, 0.081, -0.3260498, 0.081, 0.7557252, 0.081, 0.8396947, 0.081, -2.9236641
0.0103235, -0.0157778, 0.08775, 0.1079102, 0.08775, -0.9711914, 0.08775, -0.3219604, 0.08775, 0.8549618, 0.08775, 0.7709923, 0.08775, -2.9694657
0.0111176, -0.0149386, 0.0945, 0.1079712, 0.0945, -0.9723511, 0.0945, -0.321167, 0.0945, 0.7557252, 0.0945, 0.7099237, 0.0945, -2.9541984
0.0119118, -0.012253, 0.10125, 0.1087036, 0.10125, -0.9750366, 0.10125, -0.3251953, 0.10125, 0.7557252, 0.10125, 0.8931298, 0.10125, -2.8473282
0.0127059, -0.012253, 0.108, 0.1083374, 0.108, -0.9758911, 0.108, -0.3249512, 0.108, 0.8854962, 0.108, 1.1221374, 0.108, -2.8549619
0.0135, -0.0152743, 0.11475, 0.1098633, 0.11475, -0.9727783, 0.11475, -0.3265381, 0.11475, 0.7709923, 0.11475, 1.3206106, 0.11475, -2.908397
0.0142941, -0.0162814, 0.1215, 0.1115723, 0.1215, -0.9714966, 0.1215, -0.3278198, 0.1215, 0.5267175, 0.1215, 1.4961832, 0.1215, -2.908397
0.0150882, -0.0179599, 0.12825, 0.1094971, 0.12825, -0.9703369, 0.12825, -0.3284302, 0.12825, 0.2442748, 0.12825, 1.389313, 0.12825, -2.870229
0.0158824, -0.018967, 0.135, 0.1077881, 0.135, -0.9725952, 0.135, -0.3233032, 0.135, 0.3129771, 0.135, 1.2977099, 0.135, -2.7557251
0.0166765, -0.0162814, 0.14175, 0.1056519, 0.14175, -0.9784546, 0.14175, -0.3286743, 0.14175, 0.2824427, 0.14175, 0.9923664, 0.14175, -2.8320611
0.0174706, -0.0142672, 0.1485, 0.1054688, 0.1485, -0.9783936, 0.1485, -0.3257446, 0.1485, 0.2671756, 0.1485, 0.8854962, 0.1485, -2.9312978
0.0182647, -0.0146029, 0.15525, 0.1062012, 0.15525, -0.975647, 0.15525, -0.3217163, 0.15525, 0.3587786, 0.15525, 0.7175573, 0.15525, -3.0839694
0.0190588, -0.01561, 0.162, 0.1088867, 0.162, -0.9744263, 0.162, -0.3260498, 0.162, 0.3969466, 0.162, 0.6335878, 0.162, -2.9923663
0.0198529, -0.0203098, 0.16875, 0.1079102, 0.16875, -0.9787598, 0.16875, -0.3214111, 0.16875, 0.5419847, 0.16875, 0.5954198, 0.16875, -2.8854961
0.0206471, -0.0167849, 0.1755, 0.1097412, 0.1755, -0.9743652, 0.1755, -0.3254395, 0.1755, 0.610687, 0.1755, 0.6717557, 0.1755, -2.908397
0.0214412, -0.014435, 0.18225, 0.1060181, 0.18225, -0.9771118, 0.18225, -0.3256836, 0.18225, 0.6412213, 0.18225, 0.7099237, 0.18225, -2.8473282
0.0222353, -0.0162814, 0.189, 0.1071167, 0.189, -0.9765015, 0.189, -0.3247681, 0.189, 0.8396947, 0.189, 0.7480916, 0.189, -2.9541984
0.0230294, -0.0162814, 0.19575, 0.1049805, 0.19575, -0.9741821, 0.19575, -0.3244019, 0.19575, 1.0305344, 0.19575, 0.4656489, 0.19575, -2.8320611
0.0238235, -0.0142672, 0.2025, 0.1054688, 0.2025, -0.9747925, 0.2025, -0.3258057, 0.2025, 1.1145039, 0.2025, 0.389313, 0.2025, -2.9236641
0.0246176, -0.0119173, 0.20925, 0.1032104, 0.20925, -0.9729614, 0.20925, -0.3287354, 0.20925, 1.1832061, 0.20925, 0.2748092, 0.20925, -2.9465649
0.0254118, -0.0115816, 0.216, 0.1072388, 0.216, -0.9718628, 0.216, -0.3192749, 0.216, 1.2137405, 0.216, 0.0839695, 0.216, -3.221374
0.0262059, -0.0129244, 0.22275, 0.109375, 0.22275, -0.9727173, 0.22275, -0.3218384, 0.22275, 1.2442749, 0.22275, 0.0534351, 0.22275, -3.0229008
0.027, -0.0142672, 0.2295, 0.1075439, 0.2295, -0.9747314, 0.2295, -0.319397, 0.2295, 1.1145039, 0.2295, -0.0152672, 0.2295, -3.1908398
0.0277941, -0.0129244, 0.23625, 0.1056519, 0.23625, -0.9755859, 0.23625, -0.3205566, 0.23625, 1.3740458, 0.23625, 0.0610687, 0.23625, -3.1221373
0.0285882, -0.0112459, 0.243, 0.1063232, 0.243, -0.9747314, 0.243, -0.3184814, 0.243, 1.3053435, 0.243, 0.2061069, 0.243, -3.1068702
0.0293824, -0.0125887, 0.24975, 0.1063843, 0.24975, -0.9732056, 0.24975, -0.3192749, 0.24975, 1.351145, 0.24975, 0.4961832, 0.24975, -3.2137403
0.0301765, -0.0115816, 0.2565, 0.1079102, 0.2565, -0.9741211, 0.2565, -0.3244629, 0.2565, 1.2824427, 0.2565, 0.7557252, 0.2565, -3.1374047
0.0309706, -0.0099031, 0.26325, 0.1083984, 0.26325, -0.9721069, 0.26325, -0.326416, 0.26325, 1.0839695, 0.26325, 0.8625954, 0.26325, -3.1526718
0.0317647, -0.0151064, 0.27, 0.1071777, 0.27, -0.9719238, 0.27, -0.3245239, 0.27, 0.870229, 0.27, 0.961832, 0.27, -3.3206108
0.0325588, -0.0198062, 0.27675, 0.1066895, 0.27675, -0.9725952, 0.27675, -0.3247681, 0.27675, 1.1068702, 0.27675, 0.8549618, 0.27675, -3.1603053
0.0333529, -0.018967, 0.2835, 0.1069946, 0.2835, -0.9745483, 0.2835, -0.3233032, 0.2835, 1.0610687, 0.2835, 0.8091603, 0.2835, -3.1526718
0.0341471, -0.0179599, 0.29025, 0.1055908, 0.29025, -0.9747314, 0.29025, -0.3252563, 0.29025, 1.1603054, 0.29025, 0.6793893, 0.29025, -3.2977099
0.0349412, -0.0199741, 0.297, 0.1016235, 0.297, -0.9758301, 0.297, -0.3258057, 0.297, 1.129771, 0.297, 0.6870229, 0.297, -3.3435113
0.0357353, -0.0203098, 0.30375, 0.1029663, 0.30375, -0.9724121, 0.30375, -0.3257446, 0.30375, 1.0152671, 0.30375, 0.4122137, 0.30375, -3.3129771
0.0365294, -0.0172885, 0.3105, 0.1069336, 0.3105, -0.9776611, 0.3105, -0.3230591, 0.3105, 1.2900764, 0.3105, 0.2137405, 0.3105, -3.2748091
0.0373235, -0.017792, 0.31725, 0.1088867, 0.31725, -0.9772949, 0.31725, -0.3239136, 0.31725, 1.2671756, 0.31725, 0.3053435, 0.31725, -3.259542
0.0381176, -0.0182956, 0.324, 0.1064453, 0.324, -0.9778442, 0.324, -0.3225708, 0.324, 1.3053435, 0.324, 0.5038168, 0.324, -3.259542
0.0389118, -0.0209812, 0.33075, 0.1077881, 0.33075, -0.977478, 0.33075, -0.3209229, 0.33075, 1.3282443, 0.33075, 0.5648855, 0.33075, -3.4045801
0.0397059, -0.0223239, 0.3375, 0.1090088, 0.3375, -0.9749146, 0.3375, -0.3254395, 0.3375, 1.1984733, 0.3375, 0.8320611, 0.3375, -3.1984732
0.0405, -0.0186313, 0.34425, 0.1090088, 0.34425, -0.9736328, 0.34425, -0.328125, 0.34425, 1.129771, 0.34425, 0.7633588, 0.34425, -3.1450381
0.0412941, -0.0159457, 0.351, 0.1070557, 0.351, -0.9740601, 0.351, -0.3251343, 0.351, 1.2137405, 0.351, 0.6870229, 0.351, -3.2519083
0.0420882, -0.0139315, 0.35775, 0.1084595, 0.35775, -0.975708, 0.35775, -0.3264771, 0.35775, 1.2061069, 0.35775, 0.8167939, 0.35775, -3.1984732
0.0428824, -0.008896, 0.3645, 0.112915, 0.3645, -0.973877, 0.3645, -0.3264771, 0.3645, 1.3282443, 0.3645, 0.8625954, 0.3645, -3.2442749
0.0436765, -0.0099031, 0.37125, 0.1121826, 0.37125, -0.9735718, 0.37125, -0.3297729, 0.37125, 1.3587786, 0.37125, 0.5801527, 0.37125, -3
0.0444706, -0.0176242, 0.378, 0.1110229, 0.378, -0.9731445, 0.378, -0.324707, 0.378, 1.3053435, 0.378, 0.8015267, 0.378, -3.1374047
0.0452647, -0.0209812, 0.38475, 0.1109619, 0.38475, -0.9698486, 0.38475, -0.3305054, 0.38475, 1.2290076, 0.38475, 0.480916, 0.38475, -3.1068702
0.0460588, -0.0159457, 0.3915, 0.1098633, 0.3915, -0.9702759, 0.3915, -0.329895, 0.3915, 0.9465649, 0.3915, 0.6183206, 0.3915, -2.9847329
0.0468529, -0.01561, 0.39825, 0.1127319, 0.39825, -0.9724121, 0.39825, -0.3282471, 0.39825, 0.8854962, 0.39825, 0.5343512, 0.39825, -3.0229008
0.0476471, -0.0149386, 0.405, 0.111084, 0.405, -0.9785156, 0.405, -0.3278809, 0.405, 1.2290076, 0.405, 0.4961832, 0.405, -2.9160306
0.0484412, -0.0114137, 0.41175, 0.1104126, 0.41175, -0.9775391, 0.41175, -0.3240356, 0.41175, 1.1984733, 0.41175, 0.3358779, 0.41175, -2.9312978
0.0492353, -0.0151064, 0.4185, 0.1066895, 0.4185, -0.9752197, 0.4185, -0.3245239, 0.4185, 1.1450381, 0.4185, 0.480916, 0.4185, -3.0534351
0.0500294, -0.0176242, 0.42525, 0.1051636, 0.42525, -0.9746704, 0.42525, -0.3189697, 0.42525, 1.2061069, 0.42525, 0.0305344, 0.42525, -3
0.0508235, -0.0182956, 0.432, 0.1066284, 0.432, -0.9749146, 0.432, -0.3262329, 0.432, 1.3358779, 0.432, 0.0916031, 0.432, -2.9160306
0.0516176, -0.0203098, 0.43875, 0.1045532, 0.43875, -0.977417, 0.43875, -0.3237915, 0.43875, 1.1145039, 0.43875, 0.2519084, 0.43875, -3.0534351
0.0524118, -0.0176242, 0.4455, 0.1062622, 0.4455, -0.977417, 0.4455, -0.3207397, 0.4455, 1.221374, 0.4455, 0.4045801, 0.4455, -2.9847329
0.0532059, -0.0182956, 0.45225, 0.1115723, 0.45225, -0.9750977, 0.45225, -0.3248901, 0.45225, 1.038168, 0.45225, 0.4961832, 0.45225, -3.0229008
0.054, -0.0182956, 0.459, 0.1073608, 0.459, -0.9743042, 0.459, -0.3234863, 0.459, 1.2137405, 0.459, 0.5419847, 0.459, -3.091603
0.0547941, -0.0172885, 0.46575, 0.1063232, 0.46575, -0.9733276, 0.46575, -0.3242188, 0.46575, 1.1068702, 0.46575, 0.4732825, 0.46575, -3.0687022
0.0555882, -0.0223239, 0.4725, 0.1061401, 0.4725, -0.9743652, 0.4725, -0.324707, 0.4725, 1.2366412, 0.4725, 0.4503817, 0.4725, -3.0992367
0.0563824, -0.017792, 0.47925, 0.1075439, 0.47925, -0.9713745, 0.47925, -0.3250122, 0.47925, 1.389313, 0.47925, 0.3664122, 0.47925, -3.0305343
0.0571765, -0.0146029, 0.486, 0.1072998, 0.486, -0.9767456, 0.486, -0.3273926, 0.486, 1.2137405, 0.486, 0.3358779, 0.486, -3.1984732
0.0579706, -0.0132601, 0.49275, 0.1081543, 0.49275, -0.977356, 0.49275, -0.3239746, 0.49275, 1.1984733, 0.49275, 0.259542, 0.49275, -2.9541984
0.0587647, -0.012253, 0.4995, 0.1091309, 0.4995, -0.9752197, 0.4995, -0.3236084, 0.4995, 1.610687, 0.4995, 0.3587786, 0.4995, -3.2061069
0.0595588, -0.0109102, 0.50625, 0.1079712, 0.50625, -0.9744263, 0.50625, -0.3205566, 0.50625, 1.5114504, 0.50625, 0.4122137, 0.50625, -3.1145039
0.0603529, -0.0142672, 0.513, 0.1079712, 0.513, -0.9758911, 0.513, -0.3225098, 0.513, 1.7328244, 0.513, 0.5419847, 0.513, -3.0687022
0.0611471, -0.0152743, 0.51975, 0.1077881, 0.51975, -0.9749756, 0.51975, -0.3227539, 0.51975, 1.6564885, 0.51975, 0.4961832, 0.51975, -3.0839694
0.0619412, -0.0102388, 0.5265, 0.1121216, 0.5265, -0.9729004, 0.5265, -0.3257446, 0.5265, 1.3969465, 0.5265, 0.7099237, 0.5265, -2.9541984
0.0627353, -0.0099031, 0.53325, 0.1088867, 0.53325, -0.9732666, 0.53325, -0.3237305, 0.53325, 1.259542, 0.53325, 0.7480916, 0.53325, -2.9847329
0.0635294, -0.0082246, 0.54, 0.1098633, 0.54, -0.9728394, 0.54, -0.3208008, 0.54, 1.4351145, 0.54, 0.8854962, 0.54, -2.9541984
0.0643235, -0.0041962, 0.54675, 0.1068726, 0.54675, -0.9750366, 0.54675, -0.3218994, 0.54675, 1.259542, 0.54675, 0.6564885, 0.54675, -3.0229008
0.0651176, -0.0068818, 0.5535, 0.1065063, 0.5535, -0.9760742, 0.5535, -0.3212891, 0.5535, 1.2671756, 0.5535, 0.648855, 0.5535, -3.1145039
0.0659118, -0.0092317, 0.56025, 0.1025391, 0.56025, -0.9758911, 0.56025, -0.3219604, 0.56025, 1.3282443, 0.56025, 0.8015267, 0.56025, -3.2671757
0.0667059, -0.0090639, 0.567, 0.1026611, 0.567, -0.9755249, 0.567, -0.3268433, 0.567, 1.3053435, 0.567, 0.8778626, 0.567, -3.2748091
0.0675, -0.008896, 0.57375, 0.104187, 0.57375, -0.973999, 0.57375, -0.3230591, 0.57375, 0.9236641, 0.57375, 0.8244275, 0.57375, -3.389313
0.0682941, -0.0129244, 0.5805, 0.1036377, 0.5805, -0.9765015, 0.5805, -0.3215332, 0.5805, 0.6717557, 0.5805, 0.5343512, 0.5805, -3.4885497
0.0690882, -0.0179599, 0.58725, 0.102356, 0.58725, -0.9751587, 0.58725, -0.3242798, 0.58725, 0.4503817, 0.58725, 0.5725191, 0.58725, -3.5267177
0.0698824, -0.0213169, 0.594, 0.1036377, 0.594, -0.9760132, 0.594, -0.3222656, 0.594, 0.519084, 0.594, 0.5267175, 0.594, -3.4274809
0.0706765, -0.0182956, 0.60075, 0.1066895, 0.60075, -0.9761353, 0.60075, -0.3255005, 0.60075, 0.4274809, 0.60075, 0.3740458, 0.60075, -3.5114503
0.0714706, -0.0164492, 0.6075, 0.107666, 0.6075, -0.9730225, 0.6075, -0.3217163, 0.6075, 0.4961832, 0.6075, 0.2442748, 0.6075, -3.5877862
0.0722647, -0.0082246, 0.61425, 0.1081543, 0.61425, -0.9719238, 0.61425, -0.3181152, 0.61425, 0.7328244, 0.61425, 0.5343512, 0.61425, -3.480916
0.0730588, -0.0041962, 0.621, 0.1127319, 0.621, -0.9733276, 0.621, -0.3198853, 0.621, 0.6717557, 0.621, 0.4656489, 0.621, -3.4961832
0.0738529, -0.0114137, 0.62775, 0.111145, 0.62775, -0.9753418, 0.62775, -0.3127441, 0.62775, 0.8320611, 0.62775, 0.4961832, 0.62775, -3.2977099
0.0746471, -0.0062104, 0.6345, 0.1149902, 0.6345, -0.9749756, 0.6345, -0.3148193, 0.6345, 0.8244275, 0.6345, 0.8015267, 0.6345, -3.2900763
0.0754412, -0.0085603, 0.64125, 0.1157837, 0.64125, -0.9728394, 0.64125, -0.3203125, 0.64125, 0.7099237, 0.64125, 0.9312977, 0.64125, -3.2061069
0.0762353, -0.0275273, 0.648, 0.1135254, 0.648, -0.9719238, 0.648, -0.3231812, 0.648, 0.8854962, 0.648, 1.4122137, 0.648, -3.1908398
0.0770294, -0.0310521, 0.65475, 0.1123657, 0.65475, -0.9750366, 0.65475, -0.3242188, 0.65475, 0.8396947, 0.65475, 1.6870229, 0.65475, -3.1679389
0.0778235, -0.0208133, 0.6615, 0.1099243, 0.6615, -0.975708, 0.6615, -0.3253784, 0.6615, 0.740458, 0.6615, 1.8625954, 0.6615, -3.0763359
0.0786176, -0.0129244, 0.66825, 0.1061401, 0.66825, -0.9766235, 0.66825, -0.3249512, 0.66825, 0.7709923, 0.66825, 1.6641221, 0.66825, -2.9541984
0.0794118, -0.0142672, 0.675, 0.1050415, 0.675, -0.9767456, 0.675, -0.3265991, 0.675, 0.9236641, 0.675, 1.1679389, 0.675, -3.0229008
0.0802059, -0.0162814, 0.68175, 0.1022949, 0.68175, -0.9765015, 0.68175, -0.3286743, 0.68175, 0.9847328, 0.68175, 0.8549618, 0.68175, -3.038168
0.081, -0.0109102, 0.6885, 0.1013184, 0.6885, -0.9718628, 0.6885, -0.3294067, 0.6885, 0.9389313, 0.6885, 0.389313, 0.6885, -3.0839694
0.0817941, -0.012253, 0.69525, 0.1047974, 0.69525, -0.9738159, 0.69525, -0.3292847, 0.69525, 1.129771, 0.69525, -0.0534351, 0.69525, -3.1908398
0.0825882, -0.0142672, 0.702, 0.1050415, 0.702, -0.9751587, 0.702, -0.3264771, 0.702, 0.9007633, 0.702, -0.2900763, 0.702, -3.221374
0.0833824, -0.0135958, 0.70875, 0.1096191, 0.70875, -0.9737549, 0.70875, -0.3224487, 0.70875, 0.9694657, 0.70875, -0.2061069, 0.70875, -3.3358779
0.0841765, -0.0132601, 0.7155, 0.1132812, 0.7155, -0.9734497, 0.7155, -0.3217773, 0.7155, 1.0763359, 0.7155, -0.0687023, 0.7155, -3.3358779
0.0849706, -0.0142672, 0.72225, 0.114502, 0.72225, -0.9728394, 0.72225, -0.3190308, 0.72225, 1.0992366, 0.72225, -0.0152672, 0.72225, -3.2671757
0.0857647, -0.012253, 0.729, 0.1165771, 0.729, -0.9766846, 0.729, -0.3184814, 0.729, 1.1450381, 0.729, 0.3969466, 0.729, -3.2824428
0.0865588, -0.0172885, 0.73575, 0.1172485, 0.73575, -0.9768066, 0.73575, -0.3215942, 0.73575, 1.2900764, 0.73575, 0.8473282, 0.73575, -2.9770992
0.0873529, -0.0162814, 0.7425, 0.1154785, 0.7425, -0.9766846, 0.7425, -0.3222046, 0.7425, 1.2442749, 0.7425, 0.9923664, 0.7425, -2.8549619
0.0881471, -0.0193027, 0.74925, 0.109375, 0.74925, -0.975647, 0.74925, -0.3221436, 0.74925, 1.2519084, 0.74925, 1.2900764, 0.74925, -2.8931298
0.0889412, -0.0196384, 0.756, 0.1092529, 0.756, -0.9746704, 0.756, -0.3258057, 0.756, 1.351145, 0.756, 1.4503816, 0.756, -3.0229008
0.0897353, -0.0179599, 0.76275, 0.1062622, 0.76275, -0.9758911, 0.76275, -0.3312988, 0.76275, 1.2442749, 0.76275, 1.480916, 0.76275, -2.8778627
0.0905294, -0.0146029, 0.7695, 0.1054077, 0.7695, -0.9735718, 0.7695, -0.3276367, 0.7695, 1.4122137, 0.7695, 1.0687023, 0.7695, -2.6946564
0.0913235, -0.0146029, 0.77625, 0.1031494, 0.77625, -0.9752808, 0.77625, -0.329834, 0.77625, 1.610687, 0.77625, 0.7938932, 0.77625, -2.9694657
0.0921176, -0.0166171, 0.783, 0.1051636, 0.783, -0.9707642, 0.783, -0.324646, 0.783, 1.5801526, 0.783, 0.7328244, 0.783, -3.1068702
0.0929118, -0.0198062, 0.78975, 0.105835, 0.78975, -0.9765625, 0.78975, -0.3245239, 0.78975, 1.7709924, 0.78975, 0.4503817, 0.78975, -3.1374047
0.0937059, -0.0152743, 0.7965, 0.1062012, 0.7965, -0.9760132, 0.7965, -0.3233032, 0.7965, 1.908397, 0.7965, 0.3435115, 0.7965, -3.1755726
0.0945, -0.0149386, 0.80325, 0.1089478, 0.80325, -0.9787598, 0.80325, -0.3147583, 0.80325, 1.7709924, 0.80325, -0.0152672, 0.80325, -3.0152671
0.0952941, -0.0109102, 0.81, 0.1061401, 0.81, -0.9783325, 0.81, -0.3179932, 0.81, 1.778626, 0.81, -0.0305344, 0.81, -2.9770992
0.0960882, -0.0104067, 0.81675, 0.1088867, 0.81675, -0.9732666, 0.81675, -0.3185425, 0.81675, 1.6030535, 0.81675, 0.389313, 0.81675, -3.1068702
0.0968824, -0.0112459, 0.8235, 0.1062012, 0.8235, -0.9711914, 0.8235, -0.3206177, 0.8235, 1.648855, 0.8235, 0.5648855, 0.8235, -3.0610688
0.0976765, -0.0099031, 0.83025, 0.1079102, 0.83025, -0.9744263, 0.83025, -0.315979, 0.83025, 1.6030535, 0.83025, 0.4045801, 0.83025, -3.1526718
0.0984706, -0.0090639, 0.837, 0.1069336, 0.837, -0.9721069, 0.837, -0.3192749, 0.837, 1.3282443, 0.837, 0.4961832, 0.837, -2.961832
0.0992647, -0.0099031, 0.84375, 0.1063232, 0.84375, -0.9750366, 0.84375, -0.3236084, 0.84375, 1.4503816, 0.84375, 0.6870229, 0.84375, -2.9541984
0.1000588, -0.0085603, 0.8505, 0.1072998, 0.8505, -0.975769, 0.8505, -0.3212891, 0.8505, 1.259542, 0.8505, 0.8091603, 0.8505, -3.0458016
0.1008529, -0.0072175, 0.85725, 0.1060181, 0.85725, -0.9730835, 0.85725, -0.3297119, 0.85725, 0.7328244, 0.85725, 0.2824427, 0.85725, -3.0992367
0.1016471, -0.0119173, 0.864, 0.1071777, 0.864, -0.9785767, 0.864, -0.3280029, 0.864, 0.6564885, 0.864, 0.0458015, 0.864, -3.1755726
0.1024412, -0.0196384, 0.87075, 0.1098022, 0.87075, -0.9721069, 0.87075, -0.3271484, 0.87075, 0.519084, 0.87075, 0.1832061, 0.87075, -3.2366412
0.1032353, -0.0203098, 0.8775, 0.1113892, 0.8775, -0.9727173, 0.8775, -0.3225708, 0.8775, 0.5572519, 0.8775, 0.3969466, 0.8775, -3.0992367
0.1040294, -0.0224918, 0.88425, 0.1082764, 0.88425, -0.9752808, 0.88425, -0.3214722, 0.88425, 0.4351145, 0.88425, 0.4656489, 0.88425, -3
0.1048235, -0.0243381, 0.891, 0.107666, 0.891, -0.9732666, 0.891, -0.3204956, 0.891, 0.3969466, 0.891, 0.610687, 0.891, -3.091603
0.1056176, -0.0216526, 0.89775, 0.1069946, 0.89775, -0.9755859, 0.89775, -0.3214111, 0.89775, 0.778626, 0.89775, 0.8320611, 0.89775, -2.9007633
0.1064118, -0.0209812, 0.9045, 0.1104736, 0.9045, -0.9730225, 0.9045, -0.3244629, 0.9045, 0.6641222, 0.9045, 0.961832, 0.9045, -3.1221373
0.1072059, -0.0203098, 0.91125, 0.1069336, 0.91125, -0.9733887, 0.91125, -0.3238525, 0.91125, 0.7633588, 0.91125, 0.8854962, 0.91125, -3.0458016
0.108, -0.0162814, 0.918, 0.1070557, 0.918, -0.9778442, 0.918, -0.3206177, 0.918, 0.8778626, 0.918, 0.8778626, 0.918, -3.0763359
0.1087941, -0.0135958, 0.92475, 0.1089478, 0.92475, -0.9762573, 0.92475, -0.3203125, 0.92475, 1.0076336, 0.92475, 1.091603, 0.92475, -2.9160306
0.1095882, -0.0162814, 0.9315, 0.105896, 0.9315, -0.9713135, 0.9315, -0.3190308, 0.9315, 0.9694657, 0.9315, 1.0610687, 0.9315, -2.8931298
0.1103824, -0.008896, 0.93825, 0.1057739, 0.93825, -0.9754028, 0.93825, -0.3233643, 0.93825, 0.9770992, 0.93825, 1.0076336, 0.93825, -2.8320611
0.1111765, -0.0031891, 0.945, 0.1060181, 0.945, -0.9780273, 0.945, -0.3269653, 0.945, 0.9236641, 0.945, 0.8549618, 0.945, -2.8396947
0.1119706, -0.0023499, 0.95175, 0.1063232, 0.95175, -0.9780884, 0.95175, -0.3264771, 0.95175, 0.9694657, 0.95175, 0.7099237, 0.95175, -2.9312978
0.1127647, -0.0028534, 0.9585, 0.1064453, 0.9585, -0.9749756, 0.9585, -0.3270874, 0.9585, 1.1832061, 0.9585, 0.7328244, 0.9585, -3.1221373
0.1135588, -0.0063783, 0.96525, 0.1080933, 0.96525, -0.9718018, 0.96525, -0.3259277, 0.96525, 0.908397, 0.96525, 0.7862595, 0.96525, -2.9770992
0.1143529, -0.0090639, 0.972, 0.109436, 0.972, -0.975769, 0.972, -0.3244019, 0.972, 1.1984733, 0.972, 0.8244275, 0.972, -3.0076337
0.1151471, -0.0115816, 0.97875, 0.1102905, 0.97875, -0.975708, 0.97875, -0.3241577, 0.97875, 1.0763359, 0.97875, 0.6259542, 0.97875, -3.0305343
0.1159412, -0.0243381, 0.9855, 0.1105957, 0.9855, -0.9769287, 0.9855, -0.3225708, 0.9855, 1.3664122, 0.9855, 0.5343512, 0.9855, -3.1984732
0.1167353, -0.0310521, 0.99225, 0.1118774, 0.99225, -0.9740601, 0.99225, -0.3219604, 0.99225, 1.2671756, 0.99225, 0.8396947, 0.99225, -3.2061069
0.1175294, -0.0270237, 0.999, 0.1067505, 0.999, -0.9751587, 0.999, -0.3233032, 0.999, 1.0839695, 0.999, 0.8625954, 0.999, -2.9847329
0.1183235, -0.0172885, 1.00575, 0.1069336, 1.00575, -0.9753418, 1.00575, -0.3234253, 1.00575, 1.1068702, 1.00575, 0.9007633, 1.00575, -3.0458016
0.1191176, -0.0206455, 1.0125, 0.1078491, 1.0125, -0.9748535, 1.0125, -0.3203125, 1.0125, 1.0610687, 1.0125, 0.8473282, 1.0125, -3
0.1199118, -0.0246738, 1.01925, 0.1060181, 1.01925, -0.9752808, 1.01925, -0.3203125, 1.01925, 1.1145039, 1.01925, 0.908397, 1.01925, -3.2442749
0.1207059, -0.018967, 1.026, 0.1052856, 1.026, -0.9728394, 1.026, -0.3199463, 1.026, 1.2671756, 1.026, 0.7862595, 1.026, -3.3740458
0.1215, -0.0152743, 1.03275, 0.1052246, 1.03275, -0.9741821, 1.03275, -0.3264771, 1.03275, 1.259542, 1.03275, 0.9160305, 1.03275, -3.2442749
0.1222941, -0.0149386, 1.0395, 0.1016235, 1.0395, -0.9719238, 1.0395, -0.3230591, 1.0395, 1.0076336, 1.0395, 0.7480916, 1.0395, -3.1603053
0.1230882, -0.0142672, 1.04625, 0.1038208, 1.04625, -0.9708862, 1.04625, -0.3203125, 1.04625, 0.9694657, 1.04625, 0.7175573, 1.04625, -3.0458016
0.1238824, -0.0135958, 1.053, 0.1043701, 1.053, -0.9714966, 1.053, -0.3201904, 1.053, 1.1832061, 1.053, 0.7099237, 1.053, -3.2442749
0.1246765, -0.0130922, 1.05975, 0.1030884, 1.05975, -0.9750977, 1.05975, -0.3201904, 1.05975, 0.8167939, 1.05975, 0.8167939, 1.05975, -3.1068702
0.1254706, -0.0119173, 1.0665, 0.1049805, 1.0665, -0.973938, 1.0665, -0.321167, 1.0665, 0.7633588, 1.0665, 0.7709923, 1.0665, -3.0992367
0.1262647, -0.011078, 1.07325, 0.1062622, 1.07325, -0.9729004, 1.07325, -0.3225708, 1.07325, 0.7328244, 1.07325, 0.9389313, 1.07325, -3.091603
0.1270588, -0.0093996, 1.08, 0.105896, 1.08, -0.9735107, 1.08, -0.3231201, 1.08, 0.6564885, 1.08, 0.9160305, 1.08, -3.2366412
0.1278529, -0.0095674, 1.08675, 0.1032715, 1.08675, -0.9733276, 1.08675, -0.3201294, 1.08675, 0.7480916, 1.08675, 0.9236641, 1.08675, -3.2671757
0.1286471, -0.0068818, 1.0935, 0.1114502, 1.0935, -0.9769897, 1.0935, -0.3197632, 1.0935, 0.7633588, 1.0935, 1.0839695, 1.0935, -3.3129771
0.1294412, -0.0075532, 1.10025, 0.1123047, 1.10025, -0.9761353, 1.10025, -0.3208618, 1.10025, 0.7709923, 1.10025, 0.8396947, 1.10025, -3.351145
0.1302353, -0.0102388, 1.107, 0.1122437, 1.107, -0.9741821, 1.107, -0.3228149, 1.107, 0.7480916, 1.107, 0.8473282, 1.107, -3.3053436
0.1310294, -0.0085603, 1.11375, 0.1140747, 1.11375, -0.9728394, 1.11375, -0.3239746, 1.11375, 0.6870229, 1.11375, 0.6564885, 1.11375, -3.2366412
0.1318235, -0.0102388, 1.1205, 0.1118774, 1.1205, -0.9714966, 1.1205, -0.3208008, 1.1205, 0.5801527, 1.1205, 0.5648855, 1.1205, -3.2290077
0.1326176, -0.0172885, 1.12725, 0.1108398, 1.12725, -0.9746704, 1.12725, -0.3224487, 1.12725, 0.5114504, 1.12725, 0.6259542, 1.12725, -3.3358779
0.1334118, -0.0219883, 1.134, 0.1090088, 1.134, -0.9735718, 1.134, -0.3258057, 1.134, 0.8778626, 1.134, 0.6564885, 1.134, -3.2290077
0.1342059, -0.0213169, 1.14075, 0.1061401, 1.14075, -0.9763184, 1.14075, -0.3235474, 1.14075, 0.961832, 1.14075, 0.9694657, 1.14075, -3.0763359
0.135, -0.0223239, 1.1475, 0.1036987, 1.1475, -0.9747925, 1.1475, -0.3250122, 1.1475, 0.7099237, 1.1475, 0.9007633, 1.1475, -3.1145039
0.1357941, -0.0223239, 1.15425, 0.1039429, 1.15425, -0.9718018, 1.15425, -0.3217773, 1.15425, 0.8167939, 1.15425, 0.5877863, 1.15425, -3.259542
0.1365882, -0.0199741, 1.161, 0.1051636, 1.161, -0.9735107, 1.161, -0.3259888, 1.161, 0.9160305, 1.161, 0.5419847, 1.161, -3.3816793
0.1373824, -0.0216526, 1.16775, 0.1054077, 1.16775, -0.9750366, 1.16775, -0.3233032, 1.16775, 0.8473282, 1.16775, 0.4885496, 1.16775, -3.2977099
0.1381765, -0.0238346, 1.1745, 0.1062012, 1.1745, -0.9730835, 1.1745, -0.3245239, 1.1745, 0.648855, 1.1745, 0.3206107, 1.1745, -3.2519083
0.1389706, -0.018967, 1.18125, 0.1082764, 1.18125, -0.973877, 1.18125, -0.3237915, 1.18125, 0.7175573, 1.18125, 0.2061069, 1.18125, -3.3816793
0.1397647, -0.014435, 1.188, 0.111145, 1.188, -0.9735718, 1.188, -0.3237915, 1.188, 0.7480916, 1.188, 0.3129771, 1.188, -3.1984732
0.1405588, -0.0129244, 1.19475, 0.1123047, 1.19475, -0.9738159, 1.19475, -0.3232422, 1.19475, 0.6641222, 1.19475, 0.3053435, 1.19475, -3.2977099
0.1413529, -0.0137636, 1.2015, 0.1113281, 1.2015, -0.9752808, 1.2015, -0.3216553, 1.2015, 0.8396947, 1.2015, 0.5954198, 1.2015, -3.0763359
0.1421471, -0.0149386, 1.20825, 0.1122437, 1.20825, -0.9777832, 1.20825, -0.3225708, 1.20825, 0.9160305, 1.20825, 0.5038168, 1.20825, -2.908397
0.1429412, -0.012253, 1.215, 0.1107788, 1.215, -0.9754028, 1.215, -0.3207397, 1.215, 0.6870229, 1.215, 0.9770992, 1.215, -2.9236641
0.1437353, -0.0099031, 1.22175, 0.1090088, 1.22175, -0.9735718, 1.22175, -0.3254395, 1.22175, 0.5419847, 1.22175, 1.0076336, 1.22175, -2.9541984
0.1445294, -0.0062104, 1.2285, 0.1084595, 1.2285, -0.9750977, 1.2285, -0.3270264, 1.2285, 0.7022901, 1.2285, 0.9465649, 1.2285, -3.0534351
0.1453235, -0.0099031, 1.23525, 0.105957, 1.23525, -0.9736938, 1.23525, -0.3265381, 1.23525, 0.4503817, 1.23525, 1.0229008, 1.23525, -3.0534351
0.1461176, -0.0082246, 1.242, 0.1087036, 1.242, -0.979187, 1.242, -0.3210449, 1.242, 0.4503817, 1.242, 1.0076336, 1.242, -2.870229
0.1469118, -0.0085603, 1.24875, 0.1123047, 1.24875, -0.9726562, 1.24875, -0.3232422, 1.24875, 0.6412213, 1.24875, 0.908397, 1.24875, -2.9236641
0.1477059, -0.0082246, 1.2555, 0.1095581, 1.2555, -0.9746094, 1.2555, -0.3250122, 1.2555, 0.5954198, 1.2555, 1.2748091, 1.2555, -2.8931298
0.1485, -0.0102388, 1.26225, 0.1066284, 1.26225, -0.972229, 1.26225, -0.3227539, 1.26225, 0.3816794, 1.26225, 1.2977099, 1.26225, -2.8778627
0.1492941, -0.0090639, 1.269, 0.1033936, 1.269, -0.975708, 1.269, -0.3225708, 1.269, 0.5267175, 1.269, 0.8549618, 1.269, -2.9541984
0.1500882, -0.0095674, 1.27575, 0.1038208, 1.27575, -0.9752197, 1.27575, -0.3231812, 1.27575, 0.7251908, 1.27575, 0.908397, 1.27575, -3.1374047
0.1508824, -0.0124208, 1.2825, 0.102417, 1.2825, -0.9727783, 1.2825, -0.3269043, 1.2825, 0.5725191, 1.2825, 0.6870229, 1.2825, -3.1679389
0.1516765, -0.0169528, 1.28925, 0.1046143, 1.28925, -0.9706421, 1.28925, -0.3275757, 1.28925, 0.5114504, 1.28925, 0.8167939, 1.28925, -3.1984732
0.1524706, -0.018967, 1.296, 0.1071777, 1.296, -0.9709473, 1.296, -0.324646, 1.296, 0.6793893, 1.296, 0.8167939, 1.296, -3.1374047
0.1532647, -0.0182956, 1.30275, 0.1068115, 1.30275, -0.9729614, 1.30275, -0.3240356, 1.30275, 0.0610687, 1.30275, 0.610687, 1.30275, -2.8854961
0.1540588, -0.0171206, 1.3095, 0.105835, 1.3095, -0.9735718, 1.3095, -0.3243408, 1.3095, 0.1984733, 1.3095, 0.5419847, 1.3095, -2.7328243
0.1548529, -0.0149386, 1.31625, 0.109436, 1.31625, -0.9743042, 1.31625, -0.3236084, 1.31625, 0.1145038, 1.31625, 0.8473282, 1.31625, -2.7328243
0.1556471, -0.0166171, 1.323, 0.1123047, 1.323, -0.9728394, 1.323, -0.3259277, 1.323, -0.6641222, 1.323, 0.9847328, 1.323, -2.4045801
0.1564412, -0.0176242, 1.32975, 0.1165771, 1.32975, -0.9735107, 1.32975, -0.3151245, 1.32975, -1.129771, 1.32975, 1.3587786, 1.32975, -2.091603
0.1572353, -0.0176242, 1.3365, 0.1221924, 1.3365, -0.9775391, 1.3365, -0.3109741, 1.3365, -1.8320611, 1.3365, 2.4732823, 1.3365, -1.5572519
0.1580294, -0.0179599, 1.34325, 0.1142578, 1.34325, -0.977356, 1.34325, -0.3207397, 1.34325, -3.0458016, 1.34325, 3.0458016, 1.34325, -1.1221374
0.1588235, -0.018967, 1.35, 0.1251221, 1.35, -0.9834595, 1.35, -0.3271484, 1.35, -3.3740458, 1.35, 2.1526718, 1.35, -0.8931298
0.1596176, -0.0206455, 1.35675, 0.1491089, 1.35675, -0.9799805, 1.35675, -0.3284302, 1.35675, -3.3129771, 1.35675, 2.5038168, 1.35675, -1.2137405
0.1604118, -0.021149, 1.3635, 0.1529541, 1.3635, -0.9807129, 1.3635, -0.3217773, 1.3635, -2.5496182, 1.3635, 5.2671757, 1.3635, -0.8320611
0.1612059, -0.017792, 1.37025, 0.1448364, 1.37025, -0.975769, 1.37025, -0.3240967, 1.37025, -2.4656489, 1.37025, 6.961832, 1.37025, 0.1908397
0.162, -0.0166171, 1.377, 0.1297607, 1.377, -0.9709473, 1.377, -0.3419189, 1.377, -2.5419848, 1.377, 7.7328243, 1.377, 0.3587786
0.1627941, -0.0132601, 1.38375, 0.0930786, 1.38375, -0.9698486, 1.38375, -0.3433228, 1.38375, -2.7099237, 1.38375, 6.0687022, 1.38375, -0.0687023
0.1635882, -0.0104067, 1.3905, 0.0629883, 1.3905, -0.9690552, 1.3905, -0.3330078, 1.3905, -3.0534351, 1.3905, 3.8015268, 1.3905, -0.3053435
0.1643824, -0.012253, 1.39725, 0.0849609, 1.39725, -0.9746704, 1.39725, -0.3343506, 1.39725, -3.2366412, 1.39725, 3.4198472, 1.39725, -0.4961832
0.1651765, -0.0132601, 1.404, 0.111084, 1.404, -0.9770508, 1.404, -0.3212891, 1.404, -3.2977099, 1.404, 3.4045801, 1.404, -0.3816794
0.1659706, -0.0139315, 1.41075, 0.1259155, 1.41075, -0.9723511, 1.41075, -0.3244019, 1.41075, -3.7175572, 1.41075, 3.2290077, 1.41075, -0.4045801
0.1667647, -0.0115816, 1.4175, 0.1204834, 1.4175, -0.9694214, 1.4175, -0.3399658, 1.4175, -4.2671757, 1.4175, 2.9541984, 1.4175, -0.3664122
0.1675588, -0.0127565, 1.42425, 0.1160278, 1.42425, -0.9703369, 1.42425, -0.3388062, 1.42425, -3.6183207, 1.42425, 3.9236641, 1.42425, -0.2519084
0.1683529, -0.0166171, 1.431, 0.1176147, 1.431, -0.9702148, 1.431, -0.3299561, 1.431, -2.9236641, 1.431, 5.3893127, 1.431, 0.3816794
0.1691471, -0.0169528, 1.43775, 0.1203003, 1.43775, -0.9664307, 1.43775, -0.3328857, 1.43775, -3.1374047, 1.43775, 6.1068702, 1.43775, 0.610687
0.1699412, -0.018967, 1.4445, 0.1188965, 1.4445, -0.9638062, 1.4445, -0.3383789, 1.4445, -3.2900763, 1.4445, 7.0458016, 1.4445, 0.8091603
0.1707353, -0.0172885, 1.45125, 0.1099243, 1.45125, -0.9661255, 1.45125, -0.3519897, 1.45125, -4.1297708, 1.45125, 7.6259542, 1.45125, 0.9770992
0.1715294, -0.0179599, 1.458, 0.1234741, 1.458, -0.9699707, 1.458, -0.3464355, 1.458, -4.4122138, 1.458, 7.4732823, 1.458, 0.8091603
0.1723235, -0.0187991, 1.46475, 0.1326904, 1.46475, -0.9765015, 1.46475, -0.34198, 1.46475, -4.9694657, 1.46475, 8.3358774, 1.46475, 0.7633588
0.1731176, -0.0151064, 1.4715, 0.1306763, 1.4715, -0.9832764, 1.4715, -0.3378296, 1.4715, -4.5419846, 1.4715, 9.1679392, 1.4715, 1.0305344
0.1739118, -0.0142672, 1.47825, 0.12323, 1.47825, -0.9789429, 1.47825, -0.3446045, 1.47825, -3.8778627, 1.47825, 9.2366409, 1.47825, 1.1679389
0.1747059, -0.0157778, 1.485, 0.1026611, 1.485, -0.9784546, 1.485, -0.3278198, 1.485, -3.6870229, 1.485, 9.2671757, 1.485, 1.0763359
0.1755, -0.0146029, 1.49175, 0.0863037, 1.49175, -0.9780273, 1.49175, -0.3181763, 1.49175, -3.2290077, 1.49175, 9.1450386, 1.49175, 0.6641222
0.1762941, -0.0169528, 1.4985, 0.0775146, 1.4985, -0.9805298, 1.4985, -0.3264771, 1.4985, -3.0839694, 1.4985, 8.7786255, 1.4985, 0.2900763
0.1770882, -0.0125887, 1.50525, 0.0901489, 1.50525, -0.9804077, 1.50525, -0.3283081, 1.50525, -1.9541985, 1.50525, 8.0534353, 1.50525, -0.221374
0.1778824, -0.0095674, 1.512, 0.0986328, 1.512, -0.979248, 1.512, -0.3080444, 1.512, -1.5801526, 1.512, 7.8244276, 1.512, -1.038168
0.1786765, -0.0099031, 1.51875, 0.0985107, 1.51875, -0.9771118, 1.51875, -0.3128662, 1.51875, -2.1450381, 1.51875, 8.8091602, 1.51875, -1.1526718
0.1794706, -0.0082246, 1.5255, 0.0946045, 1.5255, -0.9736938, 1.5255, -0.3256836, 1.5255, -2.8931298, 1.5255, 8.9236641, 1.5255, -1.2748091
0.1802647, -0.0082246, 1.53225, 0.0846558, 1.53225, -0.9718018, 1.53225, -0.3275757, 1.53225, -3.3587787, 1.53225, 8.8167934, 1.53225, -1.4656489
0.1810588, -0.008896, 1.539, 0.0722046, 1.539, -0.9765015, 1.539, -0.312561, 1.539, -3.6793892, 1.539, 7.7938933, 1.539, -1.5648855
0.1818529, -0.0125887, 1.54575, 0.0775146, 1.54575, -0.9713135, 1.54575, -0.3105469, 1.54575, -4.6564884, 1.54575, 6.2977099, 1.54575, -1.5114504
0.1826471, -0.0090639, 1.5525, 0.0844727, 1.5525, -0.9682007, 1.5525, -0.3114624, 1.5525, -5.3587785, 1.5525, 6.0610685, 1.5525, -1.9312977
0.1834412, -0.0137636, 1.55925, 0.09198, 1.55925, -0.963623, 1.55925, -0.3251953, 1.55925, -5.1832061, 1.55925, 5.9541984, 1.55925, -2.1679389
0.1842353, -0.0166171, 1.566, 0.0970459, 1.566, -0.9664917, 1.566, -0.333374, 1.566, -5.7099237, 1.566, 4.6793895, 1.566, -2.610687
0.1850294, -0.0162814, 1.57275, 0.1065063, 1.57275, -0.9705811, 1.57275, -0.3311157, 1.57275, -6.4503818, 1.57275, 4.8320613, 1.57275, -2.3740458
0.1858235, -0.017792, 1.5795, 0.1096802, 1.5795, -0.9661865, 1.5795, -0.3442383, 1.5795, -5.9236641, 1.5795, 6.1221375, 1.5795, -2.3587787
0.1866176, -0.0196384, 1.58625, 0.1112061, 1.58625, -0.9586182, 1.58625, -0.3551025, 1.58625, -5.7862597, 1.58625, 6.8549619, 1.58625, -2.4045801
0.1874118, -0.0182956, 1.593, 0.1094971, 1.593, -0.9598999, 1.593, -0.3588867, 1.593, -5.8854961, 1.593, 7.1984735, 1.593, -2.1679389
0.1882059, -0.018967, 1.59975, 0.1069946, 1.59975, -0.960144, 1.59975, -0.3600464, 1.59975, -6.1832061, 1.59975, 7.1984735, 1.59975, -1.8854961
0.189, -0.0193027, 1.6065, 0.1046753, 1.6065, -0.9552612, 1.6065, -0.3614502, 1.6065, -5.7099237, 1.6065, 6.5343513, 1.6065, -1.8778626
0.1897941, -0.0213169, 1.61325, 0.1010132, 1.61325, -0.9594116, 1.61325, -0.3618164, 1.61325, -5.2671757, 1.61325, 6.3053436, 1.61325, -2.0992367
0.1905882, -0.0196384, 1.62, 0.0993042, 1.62, -0.9648438, 1.62, -0.3606567, 1.62, -5.0458016, 1.62, 6.1374044, 1.62, -2
0.1913824, -0.018967, 1.62675, 0.0900269, 1.62675, -0.96521, 1.62675, -0.3566895, 1.62675, -4.3587785, 1.62675, 4.9160304, 1.62675, -2.0229008
0.1921765, -0.0223239, 1.6335, 0.095459, 1.6335, -0.9630127, 1.6335, -0.3510742, 1.6335, -4.6641221, 1.6335, 4.8549619, 1.6335, -2.1526718
0.1929706, -0.0204776, 1.64025, 0.093689, 1.64025, -0.963501, 1.64025, -0.3560181, 1.64025, -4.7099237, 1.64025, 5.1908398, 1.64025, -2.0229008
0.1937647, -0.0137636, 1.647, 0.1029053, 1.647, -0.9728394, 1.647, -0.3424683, 1.647, -4.9847326, 1.647, 4.7175574, 1.647, -2.0229008
0.1945588, -0.0146029, 1.65375, 0.0974731, 1.65375, -0.9797363, 1.65375, -0.3349609, 1.65375, -4.7251906, 1.65375, 4.3816795, 1.65375, -2.2900763
0.1953529, -0.0095674, 1.6605, 0.0898438, 1.6605, -0.9799194, 1.6605, -0.3218384, 1.6605, -5.1984735, 1.6605, 4.0839696, 1.6605, -2.2671757
0.1961471, -0.008896, 1.66725, 0.0910645, 1.66725, -0.9810791, 1.66725, -0.3171387, 1.66725, -4.8549619, 1.66725, 4.3816795, 1.66725, -2.3282442
0.1969412, -0.0109102, 1.674, 0.09375, 1.674, -0.9824829, 1.674, -0.3095093, 1.674, -5.3587785, 1.674, 4.3053436, 1.674, -2.8091602
0.1977353, -0.0135958, 1.68075, 0.0967407, 1.68075, -0.9741821, 1.68075, -0.3147583, 1.68075, -5.2442746, 1.68075, 4.9847326, 1.68075, -2.9923663
0.1985294, -0.0157778, 1.6875, 0.0927734, 1.6875, -0.9675293, 1.6875, -0.3217163, 1.6875, -5.1832061, 1.6875, 5.1068702, 1.6875, -3.2748091
0.1993235, -0.0182956, 1.69425, 0.0924072, 1.69425, -0.9606323, 1.69425, -0.3352051, 1.69425, -5.4122138, 1.69425, 5.1832061, 1.69425, -3.4045801
0.2001176, -0.0186313, 1.701, 0.09552, 1.701, -0.9593506, 1.701, -0.3447876, 1.701, -6.1603055, 1.701, 5.7099237, 1.701, -3.1908398
0.2009118, -0.0162814, 1.70775, 0.1013794, 1.70775, -0.9619141, 1.70775, -0.3552246, 1.70775, -6.0534353, 1.70775, 6.0610685, 1.70775, -3.2977099
0.2017059, -0.0149386, 1.7145, 0.102417, 1.7145, -0.9586792, 1.7145, -0.3649902, 1.7145, -5.9007635, 1.7145, 6, 1.7145, -3.2366412
0.2025, -0.0149386, 1.72125, 0.1034546, 1.72125, -0.9540405, 1.72125, -0.3730469, 1.72125, -5.7480917, 1.72125, 5.6717558, 1.72125, -3.1984732
0.2032941, -0.0162814, 1.728, 0.1088867, 1.728, -0.9559326, 1.728, -0.3688354, 1.728, -6.0152674, 1.728, 4.9465647, 1.728, -3.1755726
0.2040882, -0.0149386, 1.73475, 0.1089478, 1.73475, -0.9641724, 1.73475, -0.3556519, 1.73475, -6.3740458, 1.73475, 5.6030536, 1.73475, -2.9847329
0.2048824, -0.0149386, 1.7415, 0.1061401, 1.7415, -0.9755859, 1.7415, -0.3494873, 1.7415, -6.0305343, 1.7415, 5.5725193, 1.7415, -2.8091602
0.2056765, -0.0179599, 1.74825, 0.1030884, 1.74825, -0.9777222, 1.74825, -0.3439331, 1.74825, -5.7175574, 1.74825, 5.9236641, 1.74825, -2.480916
0.2064706, -0.0203098, 1.755, 0.0919189, 1.755, -0.9782104, 1.755, -0.3386841, 1.755, -5.7251906, 1.755, 5.8473282, 1.755, -2.7099237
0.2072647, -0.0162814, 1.76175, 0.0857544, 1.76175, -0.9794312, 1.76175, -0.3287354, 1.76175, -5.3129773, 1.76175, 5.1068702, 1.76175, -2.8320611
0.2080588, -0.0139315, 1.7685, 0.0878906, 1.7685, -0.9816284, 1.7685, -0.3106689, 1.7685, -5.5343513, 1.7685, 4.8015265, 1.7685, -3.2671757
0.2088529, -0.0157778, 1.77525, 0.0825195, 1.77525, -0.9758911, 1.77525, -0.3035889, 1.77525, -4.8931298, 1.77525, 4.2519083, 1.77525, -3.6183207
0.2096471, -0.0159457, 1.782, 0.0872803, 1.782, -0.9626465, 1.782, -0.3092651, 1.782, -5.0229006, 1.782, 4.4885497, 1.782, -4.1374044
0.2104412, -0.0130922, 1.78875, 0.0802002, 1.78875, -0.9595947, 1.78875, -0.3222046, 1.78875, -4.9541984, 1.78875, 4.740458, 1.78875, -4.3053436
0.2112353, -0.0119173, 1.7955, 0.090332, 1.7955, -0.9570312, 1.7955, -0.3345947, 1.7955, -5.1221375, 1.7955, 5.1068702, 1.7955, -4.3282442
0.2120294, -0.012253, 1.80225, 0.1027222, 1.80225, -0.9481201, 1.80225, -0.3486328, 1.80225, -5.2290077, 1.80225, 6.221374, 1.80225, -4.480916
0.2128235, -0.012253, 1.809, 0.1003418, 1.809, -0.9494629, 1.809, -0.364502, 1.809, -5.6793895, 1.809, 7.5343513, 1.809, -4.519084
0.2136176, -0.0095674, 1.81575, 0.0982666, 1.81575, -0.9515381, 1.81575, -0.3804321, 1.81575, -6.0610685, 1.81575, 8.5496187, 1.81575, -4.6106873
0.2144118, -0.0030213, 1.8225, 0.0888062, 1.8225, -0.9536133, 1.8225, -0.3825073, 1.8225, -6.1297708, 1.8225, 7.8015265, 1.8225, -4.4503818
0.2152059, -0.0058747, 1.82925, 0.0880127, 1.82925, -0.9564819, 1.82925, -0.3852539, 1.82925, -6.7557254, 1.82925, 7.5648856, 1.82925, -4.4961834
0.216, -0.0135958, 1.836, 0.0993042, 1.836, -0.9624634, 1.836, -0.3874512, 1.836, -7.0916033, 1.836, 6.3664122, 1.836, -4.7099237
0.2167941, -0.0171206, 1.84275, 0.105896, 1.84275, -0.9646606, 1.84275, -0.3846436, 1.84275, -7.2977099, 1.84275, 5.5038166, 1.84275, -5.1603055
0.2175882, -0.0166171, 1.8495, 0.1060181, 1.8495, -0.9675293, 1.8495, -0.3879395, 1.8495, -7.2442746, 1.8495, 4.6717558, 1.8495, -5.4045801
0.2183824, -0.0172885, 1.85625, 0.1089478, 1.85625, -0.9742432, 1.85625, -0.3700562, 1.85625, -7.221374, 1.85625, 4.3206105, 1.85625, -5.4580154
0.2191765, -0.0159457, 1.863, 0.117981, 1.863, -0.9700317, 1.863, -0.3726807, 1.863, -7.7633586, 1.863, 4.7862597, 1.863, -5.3206105
0.2199706, -0.0166171, 1.86975, 0.1137085, 1.86975, -0.9673462, 1.86975, -0.3803101, 1.86975, -7.5801525, 1.86975, 4.9236641, 1.86975, -5.2671757
0.2207647, -0.0229953, 1.8765, 0.1168823, 1.8765, -0.9724731, 1.8765, -0.3693848, 1.8765, -7.3587785, 1.8765, 4.9083967, 1.8765, -5.3053436
0.2215588, -0.023331, 1.88325, 0.1126099, 1.88325, -0.9699707, 1.88325, -0.3726196, 1.88325, -6.9923663, 1.88325, 4.9389315, 1.88325, -5.1526718
0.2223529, -0.0216526, 1.89, 0.1138306, 1.89, -0.9614868, 1.89, -0.3818359, 1.89, -7, 1.89, 5.0534353, 1.89, -4.8854961
0.2231471, -0.0221561, 1.89675, 0.1140137, 1.89675, -0.9612427, 1.89675, -0.3800049, 1.89675, -6.8091602, 1.89675, 5.4503818, 1.89675, -4.9694657
0.2239412, -0.0229953, 1.9035, 0.1109619, 1.9035, -0.9580078, 1.9035, -0.3817749, 1.9035, -5.7557254, 1.9035, 4.8778625, 1.9035, -5.3282442
0.2247353, -0.0182956, 1.91025, 0.1068115, 1.91025, -0.9538574, 1.91025, -0.3830566, 1.91025, -5.480916, 1.91025, 4.4885497, 1.91025, -5.5496182
0.2255294, -0.0203098, 1.917, 0.1037598, 1.917, -0.9487305, 1.917, -0.3947754, 1.917, -5.4961834, 1.917, 4.0076337, 1.917, -5.3511453
0.2263235, -0.0224918, 1.92375, 0.1069946, 1.92375, -0.9515991, 1.92375, -0.3815308, 1.92375, -5.5419846, 1.92375, 3.8931298, 1.92375, -5.1832061
0.2271176, -0.0159457, 1.9305, 0.1100464, 1.9305, -0.9559326, 1.9305, -0.3743896, 1.9305, -4.8931298, 1.9305, 4.3587785, 1.9305, -5.0152674
0.2279118, -0.0169528, 1.93725, 0.1119995, 1.93725, -0.9526978, 1.93725, -0.3917236, 1.93725, -4.3740458, 1.93725, 4.6717558, 1.93725, -5.0076337
0.2287059, -0.018967, 1.944, 0.1125488, 1.944, -0.9519653, 1.944, -0.3970947, 1.944, -4.1297708, 1.944, 5.0305343, 1.944, -4.9389315
0.2295, -0.0109102, 1.95075, 0.1096191, 1.95075, -0.9528809, 1.95075, -0.388855, 1.95075, -4.1145039, 1.95075, 4.9541984, 1.95075, -4.7099237
0.2302941, -0.0095674, 1.9575, 0.1044312, 1.9575, -0.9558716, 1.9575, -0.3806152, 1.9575, -3.6183207, 1.9575, 4.3816795, 1.9575, -4.5725193
0.2310882, -0.0072175, 1.96425, 0.102478, 1.96425, -0.9562378, 1.96425, -0.3817139, 1.96425, -2.740458, 1.96425, 3.5954199, 1.96425, -4.8320613
0.2318824, -0.0092317, 1.971, 0.1020508, 1.971, -0.9537964, 1.971, -0.3803101, 1.971, -2.2977099, 1.971, 3.4122138, 1.971, -4.9312978
0.2326765, -0.0129244, 1.97775, 0.1040649, 1.97775, -0.9519043, 1.97775, -0.3768921, 1.97775, -2.4198472, 1.97775, 2.4427481, 1.97775, -5.1450381
0.2334706, -0.0097353, 1.9845, 0.1055908, 1.9845, -0.9550781, 1.9845, -0.3776245, 1.9845, -2.5572519, 1.9845, 2.0152671, 1.9845, -5.0458016
0.2342647, -0.0115816, 1.99125, 0.1127319, 1.99125, -0.9558716, 1.99125, -0.3828735, 1.99125, -2.610687, 1.99125, 2.389313, 1.99125, -5.038168
0.2350588, -0.0139315, 1.998, 0.1100464, 1.998, -0.9573975, 1.998, -0.3812866, 1.998, -2.7099237, 1.998, 3.091603, 1.998, -5.1221375
0.2358529, -0.0162814, 2.00475, 0.105957, 2.00475, -0.9603271, 2.00475, -0.3904419, 2.00475, -3.221374, 2.00475, 3.2519083, 2.00475, -5.1450381
0.2366471, -0.0206455, 2.0115, 0.1030273, 2.0115, -0.9595337, 2.0115, -0.3860474, 2.0115, -3.3053436, 2.0115, 3.0610688, 2.0115, -5.1755724
0.2374412, -0.0162814, 2.01825, 0.098877, 2.01825, -0.9605713, 2.01825, -0.3847046, 2.01825, -3.1908398, 2.01825, 2.2900763, 2.01825, -5.4045801
0.2382353, -0.0159457, 2.025, 0.1088257, 2.025, -0.9639893, 2.025, -0.37854, 2.025, -3.3053436, 2.025, 1.778626, 2.025, -5.6183205
0.2390294, -0.01561, 2.03175, 0.116394, 2.03175, -0.9580078, 2.03175, -0.3775635, 2.03175, -3.1832061, 2.03175, 1.0229008, 2.03175, -5.7251906
0.2398235, -0.0166171, 2.0385, 0.1203613, 2.0385, -0.9511719, 2.0385, -0.3858032, 2.0385, -3.0076337, 2.0385, 0.9160305, 2.0385, -5.9312978
0.2406176, -0.0179599, 2.04525, 0.1254883, 2.04525, -0.9536743, 2.04525, -0.3771973, 2.04525, -3.6030533, 2.04525, 0.870229, 2.04525, -5.9541984
0.2414118, -0.0119173, 2.052, 0.1277466, 2.052, -0.9592896, 2.052, -0.3746948, 2.052, -3.8549619, 2.052, 0.8091603, 2.052, -5.9923663
0.2422059, -0.0151064, 2.05875, 0.1350708, 2.05875, -0.9562378, 2.05875, -0.3759766, 2.05875, -3.4122138, 2.05875, 1.8549619, 2.05875, -5.5114503
0.243, -0.0171206, 2.0655, 0.1375122, 2.0655, -0.9542847, 2.0655, -0.3826294, 2.0655, -3.0610688, 2.0655, 2.9694657, 2.0655, -5.0992365
0.2437941, -0.01561, 2.07225, 0.132019, 2.07225, -0.9532471, 2.07225, -0.387146, 2.07225, -2.8320611, 2.07225, 3.2366412, 2.07225, -5
0.2445882, -0.0142672, 2.079, 0.1270142, 2.079, -0.9499512, 2.079, -0.3956299, 2.079, -2.6335878, 2.079, 3.0076337, 2.079, -5.1297708
0.2453824, -0.0115816, 2.08575, 0.1166992, 2.08575, -0.9533081, 2.08575, -0.3968506, 2.08575, -1.8167939, 2.08575, 2.8091602, 2.08575, -4.8778625
0.2461765, -0.0105745, 2.0925, 0.1184082, 2.0925, -0.9556885, 2.0925, -0.40448, 2.0925, -1.908397, 2.0925, 2.4503818, 2.0925, -4.8625956
0.2469706, -0.0082246, 2.09925, 0.1219482, 2.09925, -0.9552002, 2.09925, -0.4015503, 2.09925, -1.9160305, 2.09925, 2.1221373, 2.09925, -4.8702292
0.2477647, -0.0058747, 2.106, 0.1222534, 2.106, -0.9533691, 2.106, -0.4109497, 2.106, -1.7633588, 2.106, 1.9007634, 2.106, -4.9083967
0.2485588, -0.0065461, 2.11275, 0.1189575, 2.11275, -0.954895, 2.11275, -0.4185181, 2.11275, -1.778626, 2.11275, 1.6870229, 2.11275, -4.8778625
0.2493529, -0.012253, 2.1195, 0.1226196, 2.1195, -0.9556274, 2.1195, -0.4187012, 2.1195, -1.7709924, 2.1195, 1.4580153, 2.1195, -4.7633586
0.2501471, -0.0182956, 2.12625, 0.1308594, 2.12625, -0.9630127, 2.12625, -0.4012451, 2.12625, -1.6183206, 2.12625, 0.2977099, 2.12625, -4.6335878
0.2509412, -0.0186313, 2.133, 0.1339722, 2.133, -0.9589844, 2.133, -0.4033813, 2.133, -1.2900764, 2.133, -0.2977099, 2.133, -4.7328243
0.2517353, -0.0176242, 2.13975, 0.1338501, 2.13975, -0.9537354, 2.13975, -0.4039917, 2.13975, -1.5954199, 2.13975, -0.5267175, 2.13975, -4.7328243
0.2525294, -0.0132601, 2.1465, 0.1315918, 2.1465, -0.9561157, 2.1465, -0.4002075, 2.1465, -2.091603, 2.1465, -1.2519084, 2.1465, -4.8320613
0.2533235, -0.0182956, 2.15325, 0.1339111, 2.15325, -0.9546509, 2.15325, -0.392334, 2.15325, -2.2442749, 2.15325, -1.0992366, 2.15325, -4.5572519
0.2541176, -0.017792, 2.16, 0.138916, 2.16, -0.956604, 2.16, -0.3930054, 2.16, -2.2748091, 2.16, 0.2290076, 2.16, -4.2900763
0.2549118, -0.0171206, 2.16675, 0.1387329, 2.16675, -0.949646, 2.16675, -0.3908081, 2.16675, -2.129771, 2.16675, 1.351145, 2.16675, -4
0.2557059, -0.0213169, 2.1735, 0.1362915, 2.1735, -0.9465942, 2.1735, -0.3933716, 2.1735, -2.259542, 2.1735, 1.9465649, 2.1735, -3.9465649
0.2565, -0.0184634, 2.18025, 0.1295166, 2.18025, -0.9490967, 2.18025, -0.3910522, 2.18025, -2.2977099, 2.18025, 2.1450381, 2.18025, -3.778626
0.2572941, -0.0149386, 2.187, 0.123291, 2.187, -0.9525757, 2.187, -0.3860474, 2.187, -1.8931298, 2.187, 2.3587787, 2.187, -3.519084
0.2580882, -0.0129244, 2.19375, 0.1245117, 2.19375, -0.9581909, 2.19375, -0.3859253, 2.19375, -1.9541985, 2.19375, 2.6641221, 2.19375, -3.4351146
0.2588824, -0.012253, 2.2005, 0.1256104, 2.2005, -0.9569092, 2.2005, -0.385498, 2.2005, -1.7709924, 2.2005, 2.1679389, 2.2005, -3.5419848
0.2596765, -0.0139315, 2.20725, 0.1247559, 2.20725, -0.9570312, 2.20725, -0.3877563, 2.20725, -1.740458, 2.20725, 2.3206108, 2.20725, -3.5725191
0.2604706, -0.0149386, 2.214, 0.1185303, 2.214, -0.9574585, 2.214, -0.3844604, 2.214, -1.5343511, 2.214, 2.3282442, 2.214, -3.3969467
0.2612647, -0.0142672, 2.22075, 0.1165161, 2.22075, -0.9549561, 2.22075, -0.3814697, 2.22075, -1.3053435, 2.22075, 2.0763359, 2.22075, -3.4045801
0.2620588, -0.0162814, 2.2275, 0.1228638, 2.2275, -0.9529419, 2.2275, -0.3811035, 2.2275, -1.221374, 2.2275, 2.7709923, 2.2275, -3.1984732
0.2628529, -0.0142672, 2.23425, 0.12146, 2.23425, -0.953186, 2.23425, -0.3858032, 2.23425, -1.3206106, 2.23425, 2.7633588, 2.23425, -3.2519083
0.2636471, -0.011078, 2.241, 0.1237793, 2.241, -0.9518433, 2.241, -0.3962402, 2.241, -0.9923664, 2.241, 2.4580152, 2.241, -3.2519083
0.2644412, -0.0115816, 2.24775, 0.1245728, 2.24775, -0.9486694, 2.24775, -0.404541, 2.24775, -1.0610687, 2.24775, 2.8091602, 2.24775, -2.9465649
0.2652353, -0.0077211, 2.2545, 0.1183472, 2.2545, -0.9458618, 2.2545, -0.3983154, 2.2545, -1.2137405, 2.2545, 3.0534351, 2.2545, -2.8244274
0.2660294, -0.012253, 2.26125, 0.1225586, 2.26125, -0.9525146, 2.26125, -0.4024658, 2.26125, -1.3206106, 2.26125, 3.0610688, 2.26125, -2.5877862
0.2668235, -0.0140993, 2.268, 0.1178589, 2.268, -0.9572144, 2.268, -0.4035034, 2.268, -1.5267175, 2.268, 2.7557251, 2.268, -2.6641221
0.2676176, -0.0146029, 2.27475, 0.114563, 2.27475, -0.9575806, 2.27475, -0.4002075, 2.27475, -1.4503816, 2.27475, 2.4045801, 2.27475, -2.4045801
0.2684118, -0.0203098, 2.2815, 0.1177368, 2.2815, -0.9588013, 2.2815, -0.3896484, 2.2815, -1.7175573, 2.2815, 1.9541985, 2.2815, -2.648855
0.2692059, -0.0310521, 2.28825, 0.1268311, 2.28825, -0.9619751, 2.28825, -0.3817139, 2.28825, -1.3740458, 2.28825, 0.9770992, 2.28825, -2.9770992
0.27, -0.0303807, 2.295, 0.1290283, 2.295, -0.9604492, 2.295, -0.3800659, 2.295, -1.1755725, 2.295, 0.9389313, 2.295, -2.9923663
0.2707941, -0.0260166, 2.30175, 0.133667, 2.30175, -0.9539185, 2.30175, -0.3857422, 2.30175, -1.6946565, 2.30175, 1.5648855, 2.30175, -2.8015268
0.2715882, -0.0226596, 2.3085, 0.1403198, 2.3085, -0.9537964, 2.3085, -0.3876953, 2.3085, -1.610687, 2.3085, 2.7557251, 2.3085, -2.3740458
0.2723824, -0.0216526, 2.31525, 0.1395264, 2.31525, -0.9505615, 2.31525, -0.394165, 2.31525, -1.6870229, 2.31525, 3.6946564, 2.31525, -1.9389313
0.2731765, -0.0229953, 2.322, 0.128479, 2.322, -0.9467163, 2.322, -0.3967285, 2.322, -1.5572519, 2.322, 4.0152674, 2.322, -1.8091604
0.2739706, -0.021149, 2.32875, 0.1177368, 2.32875, -0.9475098, 2.32875, -0.4037476, 2.32875, -0.9007633, 2.32875, 4.2519083, 2.32875, -2.091603
0.2747647, -0.0193027, 2.3355, 0.1146851, 2.3355, -0.9414062, 2.3355, -0.4214478, 2.3355, -0.648855, 2.3355, 4.5114503, 2.3355, -2.1832061
0.2755588, -0.0162814, 2.34225, 0.1202393, 2.34225, -0.9417725, 2.34225, -0.4248657, 2.34225, -0.8167939, 2.34225, 4.6335878, 2.34225, -2.0687022
0.2763529, -0.0109102, 2.349, 0.1268921, 2.349, -0.9437866, 2.349, -0.4263306, 2.349, -0.6564885, 2.349, 3.8549619, 2.349, -1.9847329
0.2771471, -0.0062104, 2.35575, 0.1293335, 2.35575, -0.9518433, 2.35575, -0.4282837, 2.35575, -0.5114504, 2.35575, 3.1526718, 2.35575, -1.9694656
0.2779412, -0.0026856, 2.3625, 0.12677, 2.3625, -0.9537964, 2.3625, -0.4268799, 2.3625, -0.5038168, 2.3625, 3.0610688, 2.3625, -2.0305343
0.2787353, -0.0028534, 2.36925, 0.1262207, 2.36925, -0.9528198, 2.36925, -0.4282837, 2.36925, -0.0916031, 2.36925, 3.0152671, 2.36925, -1.8244275
0.2795294, -0.0065461, 2.376, 0.1304321, 2.376, -0.9546509, 2.376, -0.4280396, 2.376, 0.5114504, 2.376, 2.0076337, 2.376, -1.7557251
0.2803235, -0.0112459, 2.38275, 0.1353149, 2.38275, -0.9604492, 2.38275, -0.4165649, 2.38275, 0.9541985, 2.38275, 1.6641221, 2.38275, -1.7099236
0.2811176, -0.012253, 2.3895, 0.1311646, 2.3895, -0.9561157, 2.3895, -0.4207764, 2.3895, 1.2442749, 2.3895, 1.1221374, 2.3895, -1.5648855
0.2819118, -0.012253, 2.39625, 0.1289062, 2.39625, -0.9502563, 2.39625, -0.4139404, 2.39625, 1.5114504, 2.39625, 0.778626, 2.39625, -1.6641221
0.2827059, -0.0130922, 2.403, 0.1221924, 2.403, -0.9539185, 2.403, -0.411499, 2.403, 1.7099236, 2.403, 0.5267175, 2.403, -1.740458
0.2835, -0.012253, 2.40975, 0.1179199, 2.40975, -0.9563599, 2.40975, -0.411377, 2.40975, 1.610687, 2.40975, 0.2900763, 2.40975, -1.6183206
0.2842941, -0.0129244, 2.4165, 0.1213989, 2.4165, -0.9551392, 2.4165, -0.4118042, 2.4165, 1.648855, 2.4165, 0.2366412, 2.4165, -1.5114504
0.2850882, -0.0085603, 2.42325, 0.1175537, 2.42325, -0.9564209, 2.42325, -0.4083862, 2.42325, 1.870229, 2.42325, -0.0687023, 2.42325, -1.3969465
0.2858824, -0.0097353, 2.43, 0.1138916, 2.43, -0.9552612, 2.43, -0.4094849, 2.43, 1.9694656, 2.43, -0.7480916, 2.43, -1.5419847
0.2866765, -0.0130922, 2.43675, 0.1089478, 2.43675, -0.9525757, 2.43675, -0.4091187, 2.43675, 1.7251909, 2.43675, -0.9160305, 2.43675, -1.5877863
0.2874706, -0.0169528, 2.4435, 0.1046753, 2.4435, -0.9515991, 2.4435, -0.4055786, 2.4435, 1.6412214, 2.4435, -0.9847328, 2.4435, -1.5267175
0.2882647, -0.0186313, 2.45025, 0.1040649, 2.45025, -0.9520874, 2.45025, -0.4033813, 2.45025, 2.0305343, 2.45025, -1.5648855, 2.45025, -1.6412214
0.2890588, -0.018967, 2.457, 0.1109009, 2.457, -0.9518433, 2.457, -0.4042358, 2.457, 1.8320611, 2.457, -2.2137403, 2.457, -1.7557251
0.2898529, -0.0182956, 2.46375, 0.1187134, 2.46375, -0.9534302, 2.46375, -0.4036865, 2.46375, 1.8931298, 2.46375, -2.2366412, 2.46375, -1.7480916
0.2906471, -0.0166171, 2.4705, 0.1252441, 2.4705, -0.9511719, 2.4705, -0.4118652, 2.4705, 1.8625954, 2.4705, -2.0152671, 2.4705, -1.6717557
0.2914412, -0.0157778, 2.47725, 0.1306763, 2.47725, -0.9558716, 2.47725, -0.4119263, 2.47725, 1.8015267, 2.47725, -1.5343511, 2.47725, -1.5725191
0.2922353, -0.0132601, 2.484, 0.128418, 2.484, -0.9581909, 2.484, -0.4053955, 2.484, 2.0458016, 2.484, -1.5114504, 2.484, -1.2748091
0.2930294, -0.0109102, 2.49075, 0.130188, 2.49075, -0.9511719, 2.49075, -0.4081421, 2.49075, 1.9770992, 2.49075, -1.6412214, 2.49075, -1.0076336
0.2938235, -0.0080568, 2.4975, 0.1202393, 2.4975, -0.9508057, 2.4975, -0.4057617, 2.4975, 1.8167939, 2.4975, -1.5038168, 2.4975, -1.0992366
0.2946176, -0.005539, 2.50425, 0.1138916, 2.50425, -0.9563599, 2.50425, -0.4004517, 2.50425, 2.1068702, 2.50425, -1.3053435, 2.50425, -1.0763359
0.2954118, -0.0078889, 2.511, 0.1119385, 2.511, -0.9562988, 2.511, -0.4018555, 2.511, 2.5725191, 2.511, -1.5419847, 2.511, -1.129771
0.2962059, -0.0077211, 2.51775, 0.1121826, 2.51775, -0.9519043, 2.51775, -0.3981934, 2.51775, 3.2137403, 2.51775, -1.5419847, 2.51775, -1.1450381
0.297, -0.0078889, 2.5245, 0.1139526, 2.5245, -0.9502563, 2.5245, -0.4032593, 2.5245, 3.6030533, 2.5245, -1.3206106, 2.5245, -1.2442749
0.2977941, -0.0070497, 2.53125, 0.1107788, 2.53125, -0.9489746, 2.53125, -0.4052124, 2.53125, 3.6946564, 2.53125, -1.091603, 2.53125, -1.2824427
0.2985882, -0.0075532, 2.538, 0.1127319, 2.538, -0.9465942, 2.538, -0.4043579, 2.538, 4.0152674, 2.538, -0.9007633, 2.538, -1.1145039
0.2993824, -0.012253, 2.54475, 0.1081543, 2.54475, -0.9506836, 2.54475, -0.4044189, 2.54475, 4.1145039, 2.54475, -0.9694657, 2.54475, -1.0610687
0.3001765, -0.0146029, 2.5515, 0.1060791, 2.5515, -0.9490356, 2.5515, -0.4037476, 2.5515, 4.2748094, 2.5515, -1.0992366, 2.5515, -1.2671756
0.3009706, -0.0135958, 2.55825, 0.1029053, 2.55825, -0.9499512, 2.55825, -0.4006958, 2.55825, 4.2977099, 2.55825, -0.9694657, 2.55825, -1.2366412
0.3017647, -0.0117494, 2.565, 0.1071167, 2.565, -0.949585, 2.565, -0.3987427, 2.565, 4.5801525, 2.565, -0.8015267, 2.565, -1.351145
0.3025588, -0.0151064, 2.57175, 0.1062622, 2.57175, -0.9504395, 2.57175, -0.4070435, 2.57175, 4.6488547, 2.57175, -0.8473282, 2.57175, -1.2977099
0.3033529, -0.0179599, 2.5785, 0.1046143, 2.5785, -0.9508057, 2.5785, -0.4016113, 2.5785, 4.5343513, 2.5785, -1.4045801, 2.5785, -1.3053435
0.3041471, -0.0162814, 2.58525, 0.1094971, 2.58525, -0.9533691, 2.58525, -0.4020996, 2.58525, 4.5954199, 2.58525, -1.8091604, 2.58525, -1.7328244
0.3049412, -0.0179599, 2.592, 0.1113281, 2.592, -0.9514771, 2.592, -0.3970337, 2.592, 4.5648856, 2.592, -2.1526718, 2.592, -1.8778626
0.3057353, -0.0196384, 2.59875, 0.1078491, 2.59875, -0.9529419, 2.59875, -0.3936768, 2.59875, 4.5496182, 2.59875, -2.0610688, 2.59875, -2.0534351
0.3065294, -0.0206455, 2.6055, 0.105835, 2.6055, -0.9562378, 2.6055, -0.3909912, 2.6055, 5.2061067, 2.6055, -2.221374, 2.6055, -2.3206108
0.3073235, -0.0219883, 2.61225, 0.1055908, 2.61225, -0.9560547, 2.61225, -0.3918457, 2.61225, 5.4503818, 2.61225, -2.5801528, 2.61225, -2.3664122
0.3081176, -0.0226596, 2.619, 0.1008911, 2.619, -0.9584961, 2.619, -0.3873291, 2.619, 5.6717558, 2.619, -2.7633588, 2.619, -2.5725191
0.3089118, -0.018967, 2.62575, 0.0960693, 2.62575, -0.9517212, 2.62575, -0.3843994, 2.62575, 6.2824426, 2.62575, -3.2519083, 2.62575, -2.9160306
0.3097059, -0.0157778, 2.6325, 0.0957642, 2.6325, -0.9526367, 2.6325, -0.3733521, 2.6325, 6.5572519, 2.6325, -3.7938931, 2.6325, -3.0687022
0.3105, -0.017792, 2.63925, 0.1013184, 2.63925, -0.9571533, 2.63925, -0.3667603, 2.63925, 6.9160304, 2.63925, -4.2748094, 2.63925, -3.5648854
0.3112941, -0.018967, 2.646, 0.0964966, 2.646, -0.9547729, 2.646, -0.3731079, 2.646, 7.778626, 2.646, -4.6870227, 2.646, -3.908397
0.3120882, -0.0151064, 2.65275, 0.0881958, 2.65275, -0.9537354, 2.65275, -0.3804932, 2.65275, 7.6106873, 2.65275, -4.7633586, 2.65275, -4.0916033
0.3128824, -0.01561, 2.6595, 0.0906982, 2.6595, -0.949646, 2.6595, -0.3761597, 2.6595, 7.2442746, 2.6595, -4.3206105, 2.6595, -3.9694657
0.3136765, -0.0112459, 2.66625, 0.0999756, 2.66625, -0.947937, 2.66625, -0.373291, 2.66625, 7.221374, 2.66625, -4.1908398, 2.66625, -4.0229006
0.3144706, -0.0068818, 2.673, 0.1079102, 2.673, -0.9481812, 2.673, -0.3728638, 2.673, 7.0305343, 2.673, -3.8931298, 2.673, -4.0534353
0.3152647, -0.0099031, 2.67975, 0.1105957, 2.67975, -0.9515991, 2.67975, -0.3642578, 2.67975, 6.3435116, 2.67975, -3.1450381, 2.67975, -4
0.3160588, -0.0129244, 2.6865, 0.1119385, 2.6865, -0.9517212, 2.6865, -0.3612061, 2.6865, 5.9770994, 2.6865, -1.610687, 2.6865, -3.6030533
0.3168529, -0.0149386, 2.69325, 0.1229858, 2.69325, -0.9568481, 2.69325, -0.3635254, 2.69325, 6.2900763, 2.69325, -0.0916031, 2.69325, -3.3129771
0.3176471, -0.014435, 2.7, 0.1298218, 2.7, -0.9573975, 2.7, -0.3704834, 2.7, 7.0763359, 2.7, 1.038168, 2.7, -3.4274809
0.3184412, -0.0124208, 2.70675, 0.1234131, 2.70675, -0.961792, 2.70675, -0.3768311, 2.70675, 8.3282442, 2.70675, 1.0305344, 2.70675, -3.4580152
0.3192353, -0.0151064, 2.7135, 0.1149902, 2.7135, -0.9605103, 2.7135, -0.3893433, 2.7135, 8.3053436, 2.7135, 0.7251908, 2.7135, -3.2137403
0.3200294, -0.0191348, 2.72025, 0.1132202, 2.72025, -0.956665, 2.72025, -0.3996582, 2.72025, 7.2137403, 2.72025, -0.961832, 2.72025, -3.1374047
0.3208235, -0.0219883, 2.727, 0.1057739, 2.727, -0.9536133, 2.727, -0.3981323, 2.727, 6.8320613, 2.727, -1.6946565, 2.727, -3.3053436
0.3216176, -0.018967, 2.73375, 0.0969849, 2.73375, -0.9613647, 2.73375, -0.4036865, 2.73375, 6.1221375, 2.73375, -3.091603, 2.73375, -3.8473282
0.3224118, -0.0196384, 2.7405, 0.0990601, 2.7405, -0.9689941, 2.7405, -0.3817749, 2.7405, 6.1221375, 2.7405, -5.0610685, 2.7405, -4.1755724
0.3232059, -0.0206455, 2.74725, 0.1152344, 2.74725, -0.9711914, 2.74725, -0.3665161, 2.74725, 6.1374044, 2.74725, -6.5648856, 2.74725, -4.9923663
0.324, -0.0221561, 2.754, 0.1237793, 2.754, -0.9628906, 2.754, -0.3659058, 2.754, 6.2671757, 2.754, -5.7328243, 2.754, -5.0076337
0.3247941, -0.0206455, 2.76075, 0.1228638, 2.76075, -0.9642334, 2.76075, -0.3637085, 2.76075, 6, 2.76075, -4.6717558, 2.76075, -4.9847326
0.3255882, -0.0181277, 2.7675, 0.1221313, 2.7675, -0.9637451, 2.7675, -0.3639526, 2.7675, 6.259542, 2.7675, -4.4427481, 2.7675, -4.961832
0.3263824, -0.0179599, 2.77425, 0.1176758, 2.77425, -0.9639282, 2.77425, -0.3688354, 2.77425, 6.778626, 2.77425, -4.0458016, 2.77425, -4.8854961
0.3271765, -0.0184634, 2.781, 0.1100464, 2.781, -0.9579468, 2.781, -0.3736572, 2.781, 6.6564884, 2.781, -3.5648854, 2.781, -4.778626
0.3279706, -0.0142672, 2.78775, 0.0983276, 2.78775, -0.9552002, 2.78775, -0.3723755, 2.78775, 6.5648856, 2.78775, -3.8396947, 2.78775, -4.961832
0.3287647, -0.0119173, 2.7945, 0.0855713, 2.7945, -0.9547729, 2.7945, -0.3742065, 2.7945, 6.4198475, 2.7945, -4.9770994, 2.7945, -5.0534353
0.3295588, -0.0109102, 2.80125, 0.0841675, 2.80125, -0.9534302, 2.80125, -0.3770142, 2.80125, 6.0839696, 2.80125, -5.4122138, 2.80125, -5.0152674
0.3303529, -0.0099031, 2.808, 0.0933838, 2.808, -0.9526978, 2.808, -0.3821411, 2.808, 5.8702292, 2.808, -5.0992365, 2.808, -5.1221375
0.3311471, -0.0125887, 2.81475, 0.1074829, 2.81475, -0.953064, 2.81475, -0.3754883, 2.81475, 5.6412215, 2.81475, -4.8625956, 2.81475, -5.0152674
0.3319412, -0.0119173, 2.8215, 0.1151123, 2.8215, -0.9526978, 2.8215, -0.3722534, 2.8215, 5.9236641, 2.8215, -5.1526718, 2.8215, -5.0916033
0.3327353, -0.0109102, 2.82825, 0.118103, 2.82825, -0.9589233, 2.82825, -0.3631592, 2.82825, 5.9465647, 2.82825, -4.8549619, 2.82825, -4.961832
0.3335294, -0.0095674, 2.835, 0.1188354, 2.835, -0.9641724, 2.835, -0.3569946, 2.835, 5.9312978, 2.835, -3.9694657, 2.835, -4.8778625
0.3343235, -0.0149386, 2.84175, 0.1270752, 2.84175, -0.9619751, 2.84175, -0.3655396, 2.84175, 5.3053436, 2.84175, -3.7938931, 2.84175, -4.6412215
0.3351176, -0.0146029, 2.8485, 0.1332397, 2.8485, -0.9595947, 2.8485, -0.3702393, 2.8485, 3.9770992, 2.8485, -3.2366412, 2.8485, -4.5419846
0.3359118, -0.0095674, 2.85525, 0.1401367, 2.85525, -0.9624023, 2.85525, -0.3720703, 2.85525, 3.5954199, 2.85525, -2.1755726, 2.85525, -4.5419846
0.3367059, -0.0166171, 2.862, 0.1481934, 2.862, -0.9683838, 2.862, -0.3653564, 2.862, 3.6717558, 2.862, -2.0687022, 2.862, -4.480916
0.3375, -0.0182956, 2.86875, 0.1409912, 2.86875, -0.9660645, 2.86875, -0.3607178, 2.86875, 3.8473282, 2.86875, -1.6412214, 2.86875, -4.1755724
0.3382941, -0.0124208, 2.8755, 0.1278076, 2.8755, -0.9658813, 2.8755, -0.3747559, 2.8755, 3.6030533, 2.8755, -1.6030535, 2.8755, -4.0534353
0.3390882, -0.0135958, 2.88225, 0.1212769, 2.88225, -0.9638672, 2.88225, -0.3803101, 2.88225, 3.4198472, 2.88225, -1.5038168, 2.88225, -3.7938931
0.3398824, -0.0162814, 2.889, 0.1207275, 2.889, -0.9669189, 2.889, -0.3652344, 2.889, 3.2977099, 2.889, -0.9847328, 2.889, -3.908397
0.3406765, -0.0169528, 2.89575, 0.1121826, 2.89575, -0.9710693, 2.89575, -0.3665771, 2.89575, 3.9770992, 2.89575, -1.1832061, 2.89575, -3.8167939
0.3414706, -0.0109102, 2.9025, 0.1138916, 2.9025, -0.9641113, 2.9025, -0.3699341, 2.9025, 4.3358779, 2.9025, -1.778626, 2.9025, -3.6793892
0.3422647, -0.0090639, 2.90925, 0.1141357, 2.90925, -0.9606934, 2.90925, -0.3729248, 2.90925, 4.3587785, 2.90925, -1.8167939, 2.90925, -3.8167939
0.3430588, -0.0109102, 2.916, 0.111084, 2.916, -0.958374, 2.916, -0.3712158, 2.916, 4.4122138, 2.916, -2.0152671, 2.916, -3.9770992
0.3438529, -0.0140993, 2.92275, 0.1116333, 2.92275, -0.9584961, 2.92275, -0.3672485, 2.92275, 4.4961834, 2.92275, -2.0534351, 2.92275, -3.9160306
0.3446471, -0.0119173, 2.9295, 0.1114502, 2.9295, -0.960022, 2.9295, -0.3615112, 2.9295, 4.3816795, 2.9295, -2.2977099, 2.9295, -4.0229006
0.3454412, -0.012253, 2.93625, 0.1156616, 2.93625, -0.9606934, 2.93625, -0.3734741, 2.93625, 4.8396945, 2.93625, -2, 2.93625, -3.519084
0.3462353, -0.0112459, 2.943, 0.1300659, 2.943, -0.9577026, 2.943, -0.371521, 2.943, 4.3816795, 2.943, -1.1908396, 2.943, -3.2137403
0.3470294, -0.0124208, 2.94975, 0.1315918, 2.94975, -0.9592285, 2.94975, -0.3718872, 2.94975, 4.1145039, 2.94975, -0.1221374, 2.94975, -3.4351146
0.3478235, -0.0115816, 2.9565, 0.1237183, 2.9565, -0.9581909, 2.9565, -0.3729248, 2.9565, 3.9541984, 2.9565, -0.5877863, 2.9565, -3.0076337
0.3486176, -0.0115816, 2.96325, 0.1166382, 2.96325, -0.9625244, 2.96325, -0.3776245, 2.96325, 3.9236641, 2.96325, -0.6030535, 2.96325, -3.038168
0.3494118, -0.0166171, 2.97, 0.1127319, 2.97, -0.9626465, 2.97, -0.3731689, 2.97, 3.1450381, 2.97, -0.221374, 2.97, -2.9541984
0.3502059, -0.0142672, 2.97675, 0.1199951, 2.97675, -0.963501, 2.97675, -0.37323, 2.97675, 2.9923663, 2.97675, -0.0381679, 2.97675, -3.1374047
0.351, -0.0159457, 2.9835, 0.1204834, 2.9835, -0.961853, 2.9835, -0.3745728, 2.9835, 2.5877862, 2.9835, 0.129771, 2.9835, -3.1221373
0.3517941, -0.0176242, 2.99025, 0.1196899, 2.99025, -0.9636841, 2.99025, -0.3729248, 2.99025, 2.6335878, 2.99025, 0.3358779, 2.99025, -2.778626
0.3525882, -0.0149386, 2.997, 0.1203003, 2.997, -0.9662476, 2.997, -0.3709106, 2.997, 2.3740458, 2.997, 0.0534351, 2.997, -2.7862597
0.3533824, -0.0159457, 3.00375, 0.1221313, 3.00375, -0.9702759, 3.00375, -0.3665771, 3.00375, 2.778626, 3.00375, 0.3740458, 3.00375, -2.5343511
0.3541765, -0.0219883, 3.0105, 0.1203613, 3.0105, -0.9639282, 3.0105, -0.367981, 3.0105, 3.1526718, 3.0105, 1.0305344, 3.0105, -2.5343511
0.3549706, -0.0260166, 3.01725, 0.1233521, 3.01725, -0.9623413, 3.01725, -0.3654175, 3.01725, 3.4427481, 3.01725, 1.4427481, 3.01725, -2.3206108
0.3557647, -0.0213169, 3.024, 0.1220093, 3.024, -0.9666748, 3.024, -0.359436, 3.024, 3.259542, 3.024, 1.5114504, 3.024, -2.2061069
0.3565588, -0.0209812, 3.03075, 0.1140137, 3.03075, -0.9649658, 3.03075, -0.3555908, 3.03075, 3.7862597, 3.03075, 1.0458015, 3.03075, -2.1984732
0.3573529, -0.023331, 3.0375, 0.1119995, 3.0375, -0.9633789, 3.0375, -0.3598022, 3.0375, 3.9389312, 3.0375, 0.9694657, 3.0375, -2.2366412
0.3581471, -0.0193027, 3.04425, 0.1122437, 3.04425, -0.9591064, 3.04425, -0.3594971, 3.04425, 4.1221375, 3.04425, 1.3206106, 3.04425, -2.221374
0.3589412, -0.0209812, 3.051, 0.1119995, 3.051, -0.9567871, 3.051, -0.3724976, 3.051, 3.6183207, 3.051, 2.1068702, 3.051, -2.2366412
0.3597353, -0.021149, 3.05775, 0.1015015, 3.05775, -0.9571533, 3.05775, -0.3700562, 3.05775, 2.7175572, 3.05775, 2.0992367, 3.05775, -2.4885497
0.3605294, -0.0172885, 3.0645, 0.0975342, 3.0645, -0.9626465, 3.0645, -0.3695068, 3.0645, 2.2977099, 3.0645, 1.8931298, 3.0645, -2.6183207
0.3613235, -0.0135958, 3.07125, 0.0965576, 3.07125, -0.9650269, 3.07125, -0.3643799, 3.07125, 2.4427481, 3.07125, 1.6793894, 3.07125, -2.610687
0.3621176, -0.0115816, 3.078, 0.0999756, 3.078, -0.9621582, 3.078, -0.3640747, 3.078, 2.7557251, 3.078, 1.7175573, 3.078, -2.6030533
0.3629118, -0.0149386, 3.08475, 0.1009521, 3.08475, -0.9564209, 3.08475, -0.3724365, 3.08475, 2.8244274, 3.08475, 1.5572519, 3.08475, -2.9465649
0.3637059, -0.0152743, 3.0915, 0.1000977, 3.0915, -0.9593506, 3.0915, -0.371521, 3.0915, 2.351145, 3.0915, 1.2137405, 3.0915, -2.8320611
0.3645, -0.0095674, 3.09825, 0.1107788, 3.09825, -0.9623413, 3.09825, -0.3673096, 3.09825, 2.4961832, 3.09825, 0.9694657, 3.09825, -2.7480917
0.3652941, -0.0041962, 3.105, 0.1201172, 3.105, -0.9664307, 3.105, -0.3656006, 3.105, 2.7633588, 3.105, 0.5572519, 3.105, -2.8396947
0.3660882, -0.0109102, 3.11175, 0.1265259, 3.11175, -0.9627075, 3.11175, -0.3630981, 3.11175, 3.1526718, 3.11175, 0.3282443, 3.11175, -2.9389312
0.3668824, -0.0159457, 3.1185, 0.1237183, 3.1185, -0.9655151, 3.1185, -0.3601074, 3.1185, 3.0763359, 3.1185, 0.5877863, 3.1185, -2.7022901
0.3676765, -0.0139315, 3.12525, 0.1156006, 3.12525, -0.9678955, 3.12525, -0.359314, 3.12525, 3.2519083, 3.12525, 1.0992366, 3.12525, -2.6259542
0.3684706, -0.0176242, 3.132, 0.1143799, 3.132, -0.9696655, 3.132, -0.3573608, 3.132, 3.7099237, 3.132, 1.0534351, 3.132, -2.5648854
0.3692647, -0.0176242, 3.13875, 0.1123657, 3.13875, -0.9701538, 3.13875, -0.3666992, 3.13875, 4.1450381, 3.13875, 1.3129771, 3.13875, -2.5725191
0.3700588, -0.018967, 3.1455, 0.1098022, 3.1455, -0.9663696, 3.1455, -0.366394, 3.1455, 4.3664122, 3.1455, 1.3664122, 3.1455, -2.610687
0.3708529, -0.0206455, 3.15225, 0.1083374, 3.15225, -0.9660034, 3.15225, -0.3674316, 3.15225, 4.6030536, 3.15225, 1.5267175, 3.15225, -2.7251909
0.3716471, -0.018967, 3.159, 0.1052856, 3.159, -0.9625244, 3.159, -0.3720703, 3.159, 4.6641221, 3.159, 1.0610687, 3.159, -2.7328243
0.3724412, -0.0199741, 3.16575, 0.0973511, 3.16575, -0.9611816, 3.16575, -0.3674927, 3.16575, 4.8473282, 3.16575, 0.351145, 3.16575, -2.7938931
0.3732353, -0.0219883, 3.1725, 0.0957031, 3.1725, -0.9633789, 3.1725, -0.3656006, 3.1725, 5.1221375, 3.1725, -0.3664122, 3.1725, -2.8320611
0.3740294, -0.0179599, 3.17925, 0.0991821, 3.17925, -0.9636841, 3.17925, -0.3632202, 3.17925, 5.2519083, 3.17925, -0.3587786, 3.17925, -3.1832061
0.3748235, -0.0139315, 3.186, 0.0982056, 3.186, -0.9595947, 3.186, -0.3613892, 3.186, 5.4732823, 3.186, -0.6030535, 3.186, -3.3206108
0.3756176, -0.0097353, 3.19275, 0.1034546, 3.19275, -0.9613037, 3.19275, -0.3585815, 3.19275, 5.5343513, 3.19275, -1.1068702, 3.19275, -3.5648854
0.3764118, -0.0107424, 3.1995, 0.1051636, 3.1995, -0.9650269, 3.1995, -0.3469849, 3.1995, 5.6183205, 3.1995, -1.9465649, 3.1995, -3.4580152
0.3772059, -0.0062104, 3.20625, 0.1055908, 3.20625, -0.9643555, 3.20625, -0.3462524, 3.20625, 6.0152674, 3.20625, -2.091603, 3.20625, -3.4656489
0.378, -0.0057069, 3.213, 0.1096191, 3.213, -0.9628296, 3.213, -0.3500977, 3.213, 6.4961834, 3.213, -2.1832061, 3.213, -3.6946564
0.3787941, -0.0043641, 3.21975, 0.1114502, 3.21975, -0.9645386, 3.21975, -0.347229, 3.21975, 6.4885497, 3.21975, -1.6183206, 3.21975, -3.5801528
0.3795882, -0.0041962, 3.2265, 0.1069336, 3.2265, -0.9625854, 3.2265, -0.3540649, 3.2265, 6.480916, 3.2265, -1.5038168, 3.2265, -3.5496182
0.3803824, -0.0132601, 3.23325, 0.1075439, 3.23325, -0.9666748, 3.23325, -0.3513184, 3.23325, 6.7022901, 3.23325, -1.7633588, 3.23325, -3.7175572
0.3811765, -0.0223239, 3.24, 0.1039429, 3.24, -0.9664917, 3.24, -0.3520508, 3.24, 6.3511453, 3.24, -1.5648855, 3.24, -3.870229
0.3819706, -0.0204776, 3.24675, 0.1026611, 3.24675, -0.9656372, 3.24675, -0.3550415, 3.24675, 5.6641221, 3.24675, -1.2442749, 3.24675, -4.0152674
0.3827647, -0.0157778, 3.2535, 0.1055298, 3.2535, -0.9675903, 3.2535, -0.3563232, 3.2535, 5.7938933, 3.2535, -1.5267175, 3.2535, -3.9847329
0.3835588, -0.0099031, 3.26025, 0.1067505, 3.26025, -0.9697876, 3.26025, -0.3554077, 3.26025, 5.8473282, 3.26025, -1.1450381, 3.26025, -4.1374044
0.3843529, -0.0095674, 3.267, 0.1069946, 3.267, -0.9697266, 3.267, -0.3538818, 3.267, 6.0229006, 3.267, -1.0992366, 3.267, -4.1603055
0.3851471, -0.0129244, 3.27375, 0.1068726, 3.27375, -0.9689331, 3.27375, -0.354126, 3.27375, 6.1221375, 3.27375, -1.4427481, 3.27375, -4.2366414
0.3859412, -0.021149, 3.2805, 0.1018066, 3.2805, -0.963501, 3.2805, -0.359436, 3.2805, 6.0916033, 3.2805, -1.6717557, 3.2805, -4.2290077
0.3867353, -0.0240024, 3.28725, 0.1046143, 3.28725, -0.9636841, 3.28725, -0.3532104, 3.28725, 5, 3.28725, -2.0992367, 3.28725, -4.3511453
0.3875294, -0.0223239, 3.294, 0.1063232, 3.294, -0.9697266, 3.294, -0.3424072, 3.294, 4.6870227, 3.294, -3.129771, 3.294, -4.5343513
0.3883235, -0.0208133, 3.30075, 0.1066895, 3.30075, -0.9657593, 3.30075, -0.3412476, 3.30075, 4.8320613, 3.30075, -2.9312978, 3.30075, -4.6564884
0.3891176, -0.0159457, 3.3075, 0.1098022, 3.3075, -0.9656982, 3.3075, -0.3417969, 3.3075, 4.5572519, 3.3075, -2.7251909, 3.3075, -4.5496182
0.3899118, -0.0164492, 3.31425, 0.1087646, 3.31425, -0.9667969, 3.31425, -0.3433228, 3.31425, 4.2519083, 3.31425, -3.0305343, 3.31425, -4.4656487
0.3907059, -0.0169528, 3.321, 0.1074829, 3.321, -0.9700317, 3.321, -0.3408813, 3.321, 4.1297708, 3.321, -2.961832, 3.321, -4.5725193
0.3915, -0.0130922, 3.32775, 0.1083374, 3.32775, -0.9677734, 3.32775, -0.3400879, 3.32775, 4.2366414, 3.32775, -3.5648854, 3.32775, -4.6183205
0.3922941, -0.0151064, 3.3345, 0.1113281, 3.3345, -0.9727783, 3.3345, -0.338623, 3.3345, 3.9312978, 3.3345, -4.0916033, 3.3345, -4.5648856
0.3930882, -0.0142672, 3.34125, 0.1084595, 3.34125, -0.97052, 3.34125, -0.3362427, 3.34125, 3.8549619, 3.34125, -4.3511453, 3.34125, -4.480916
0.3938824, -0.01561, 3.348, 0.1067505, 3.348, -0.9724121, 3.348, -0.3371582, 3.348, 3.7251909, 3.348, -4.1526718, 3.348, -4.4656487
0.3946765, -0.0139315, 3.35475, 0.105896, 3.35475, -0.9733276, 3.35475, -0.3432007, 3.35475, 4, 3.35475, -4.1068702, 3.35475, -4.4656487
0.3954706, -0.011078, 3.3615, 0.1066284, 3.3615, -0.9735107, 3.3615, -0.3375244, 3.3615, 4.0687022, 3.3615, -4.5572519, 3.3615, -4.7480917
0.3962647, -0.0125887, 3.36825, 0.1075439, 3.36825, -0.973877, 3.36825, -0.3388672, 3.36825, 4.1068702, 3.36825, -4.7633586, 3.36825, -4.7328243
0.3970588, -0.0109102, 3.375, 0.1065674, 3.375, -0.9664307, 3.375, -0.3439941, 3.375, 4.3435116, 3.375, -5.2748094, 3.375, -4.6641221
0.3978529, -0.0104067, 3.38175, 0.1084595, 3.38175, -0.9650879, 3.38175, -0.3501587, 3.38175, 4.0458016, 3.38175, -5.259542, 3.38175, -4.5343513
0.3986471, -0.0109102, 3.3885, 0.1099243, 3.3885, -0.9650879, 3.3885, -0.3494873, 3.3885, 3.9389312, 3.3885, -4.9541984, 3.3885, -4.5954199
0.3994412, -0.0082246, 3.39525, 0.1182861, 3.39525, -0.9656982, 3.39525, -0.359314, 3.39525, 3.9389312, 3.39525, -5.8473282, 3.39525, -4.4351144
0.4002353, -0.0062104, 3.402, 0.1226807, 3.402, -0.9664307, 3.402, -0.3534546, 3.402, 3.6564887, 3.402, -5.8473282, 3.402, -4.2061067
0.4010294, -0.0082246, 3.40875, 0.119751, 3.40875, -0.9660034, 3.40875, -0.3553467, 3.40875, 3.9770992, 3.40875, -5.6183205, 3.40875, -4
0.4018235, -0.0142672, 3.4155, 0.1184692, 3.4155, -0.9658813, 3.4155, -0.3540039, 3.4155, 4.2977099, 3.4155, -5.3053436, 3.4155, -3.6259542
0.4026176, -0.0176242, 3.42225, 0.1173096, 3.42225, -0.9681396, 3.42225, -0.3526611, 3.42225, 4.3358779, 3.42225, -5.3206105, 3.42225, -3.4961832
0.4034118, -0.0125887, 3.429, 0.1209106, 3.429, -0.9667358, 3.429, -0.3520508, 3.429, 4.5496182, 3.429, -5.2137403, 3.429, -3.3664122
0.4042059, -0.0142672, 3.43575, 0.1233521, 3.43575, -0.96521, 3.43575, -0.3526611, 3.43575, 4.8015265, 3.43575, -5.1984735, 3.43575, -3.2519083
0.405, -0.0176242, 3.4425, 0.1229248, 3.4425, -0.9642944, 3.4425, -0.3546143, 3.4425, 5.1984735, 3.4425, -5.038168, 3.4425, -3.0839694
0.4057941, -0.0203098, 3.44925, 0.1242676, 3.44925, -0.9655762, 3.44925, -0.3591919, 3.44925, 5.8625956, 3.44925, -5, 3.44925, -2.8625953
0.4065882, -0.0199741, 3.456, 0.1261597, 3.456, -0.9672241, 3.456, -0.3548584, 3.456, 5.9160304, 3.456, -4.5725193, 3.456, -2.7557251
0.4073824, -0.0206455, 3.46275, 0.1255493, 3.46275, -0.9660645, 3.46275, -0.3521729, 3.46275, 5.2900763, 3.46275, -3.2671757, 3.46275, -2.5419848
0.4081765, -0.0216526, 3.4695, 0.1260986, 3.4695, -0.9691162, 3.4695, -0.3539429, 3.4695, 5.2061067, 3.4695, -2.6335878, 3.4695, -2.3053436
0.4089706, -0.0196384, 3.47625, 0.1209717, 3.47625, -0.9732056, 3.47625, -0.352417, 3.47625, 4.8778625, 3.47625, -2.4045801, 3.47625, -2.1068702
0.4097647, -0.0132601, 3.483, 0.1182251, 3.483, -0.9727173, 3.483, -0.3448486, 3.483, 4.8091602, 3.483, -2.5343511, 3.483, -1.9007634
0.4105588, -0.0135958, 3.48975, 0.1177979, 3.48975, -0.9744873, 3.48975, -0.3422241, 3.48975, 4.4351144, 3.48975, -2.3664122, 3.48975, -1.9160305
0.4113529, -0.0135958, 3.4965, 0.1173096, 3.4965, -0.9752197, 3.4965, -0.3342285, 3.4965, 4.6793895, 3.4965, -1.9312977, 3.4965, -1.8549619
0.4121471, -0.0112459, 3.50325, 0.1096191, 3.50325, -0.9733276, 3.50325, -0.3283691, 3.50325, 4.5801525, 3.50325, -1.908397, 3.50325, -1.8473282
0.4129412, -0.0105745, 3.51, 0.1089478, 3.51, -0.9759521, 3.51, -0.3272095, 3.51, 4.9083967, 3.51, -1.7022901, 3.51, -1.8473282
0.4137353, -0.0119173, 3.51675, 0.1086426, 3.51675, -0.9790649, 3.51675, -0.3261719, 3.51675, 4.740458, 3.51675, -1.519084, 3.51675, -1.9923664
0.4145294, -0.0149386, 3.5235, 0.1075439, 3.5235, -0.9712524, 3.5235, -0.3269043, 3.5235, 5.2824426, 3.5235, -1.2137405, 3.5235, -1.961832
0.4153235, -0.0162814, 3.53025, 0.1065674, 3.53025, -0.96875, 3.53025, -0.3302002, 3.53025, 4.7633586, 3.53025, -0.5419847, 3.53025, -1.6564885
0.4161176, -0.0135958, 3.537, 0.1057739, 3.537, -0.9700928, 3.537, -0.3295288, 3.537, 4.6412215, 3.537, -0.1679389, 3.537, -1.8625954
0.4169118, -0.0119173, 3.54375, 0.1078491, 3.54375, -0.9727173, 3.54375, -0.3262939, 3.54375, 4.6793895, 3.54375, -0.3358779, 3.54375, -1.7251909
0.4177059, -0.0135958, 3.5505, 0.1072388, 3.5505, -0.9709473, 3.5505, -0.3214111, 3.5505, 4.6335878, 3.5505, -0.1068702, 3.5505, -1.870229
0.4185, -0.0176242, 3.55725, 0.1008911, 3.55725, -0.9699707, 3.55725, -0.3185425, 3.55725, 4.5343513, 3.55725, 0.1755725, 3.55725, -1.9312977
0.4192941, -0.0171206, 3.564, 0.0981445, 3.564, -0.973999, 3.564, -0.3200073, 3.564, 4.4198475, 3.564, 0.1068702, 3.564, -1.961832
0.4200882, -0.0176242, 3.57075, 0.0990601, 3.57075, -0.9755249, 3.57075, -0.3185425, 3.57075, 4.4885497, 3.57075, 0.4351145, 3.57075, -2.0534351
0.4208824, -0.0198062, 3.5775, 0.1046143, 3.5775, -0.9732666, 3.5775, -0.3186646, 3.5775, 4.5343513, 3.5775, 0.648855, 3.5775, -2.1832061
0.4216765, -0.0186313, 3.58425, 0.1022339, 3.58425, -0.9719238, 3.58425, -0.3205566, 3.58425, 4.6641221, 3.58425, 0.8320611, 3.58425, -2.4045801
0.4224706, -0.01561, 3.591, 0.0997925, 3.591, -0.9717407, 3.591, -0.3170776, 3.591, 4.9770994, 3.591, 0.8473282, 3.591, -2.3206108
0.4232647, -0.0149386, 3.59775, 0.1020508, 3.59775, -0.9721069, 3.59775, -0.3164062, 3.59775, 5.0076337, 3.59775, 0.9007633, 3.59775, -2.3816793
0.4240588, -0.0135958, 3.6045, 0.1026001, 3.6045, -0.9730225, 3.6045, -0.3170166, 3.6045, 4.9389315, 3.6045, 0.8625954, 3.6045, -2.5648854
0.4248529, -0.0132601, 3.61125, 0.1008911, 3.61125, -0.9732056, 3.61125, -0.3196411, 3.61125, 4.6564884, 3.61125, 1.0458015, 3.61125, -2.6030533
0.4256471, -0.0102388, 3.618, 0.1033325, 3.618, -0.9723511, 3.618, -0.3204956, 3.618, 4.9465647, 3.618, 1.2442749, 3.618, -2.5267177
0.4264412, -0.0073854, 3.62475, 0.1046143, 3.62475, -0.9744873, 3.62475, -0.3222656, 3.62475, 5.1603055, 3.62475, 1.389313, 3.62475, -2.5496182
0.4272353, -0.0095674, 3.6315, 0.104248, 3.6315, -0.9763184, 3.6315, -0.3248901, 3.6315, 5.1145039, 3.6315, 1.3129771, 3.6315, -2.7480917
0.4280294, -0.0070497, 3.63825, 0.1033325, 3.63825, -0.9744263, 3.63825, -0.3214722, 3.63825, 5.221374, 3.63825, 0.8625954, 3.63825, -2.7862597
0.4288235, -0.0112459, 3.645, 0.100769, 3.645, -0.9744263, 3.645, -0.322937, 3.645, 5.2519083, 3.645, 0.2977099, 3.645, -2.7557251
0.4296176, -0.0109102, 3.65175, 0.0986938, 3.65175, -0.9746094, 3.65175, -0.3284912, 3.65175, 5.5648856, 3.65175, 0.2366412, 3.65175, -2.9160306
0.4304118, -0.0112459, 3.6585, 0.1005249, 3.6585, -0.970459, 3.6585, -0.335083, 3.6585, 5.7557254, 3.6585, 0.2366412, 3.6585, -2.9847329
0.4312059, -0.0132601, 3.66525, 0.1022339, 3.66525, -0.9696655, 3.66525, -0.3325806, 3.66525, 5.7022901, 3.66525, -0.6335878, 3.66525, -3.2748091
0.432, -0.0172885, 3.672, 0.1013794, 3.672, -0.9693604, 3.672, -0.3307495, 3.672, 5.4885497, 3.672, -1.8244275, 3.672, -3.5419848
0.4327941, -0.0216526, 3.67875, 0.105896, 3.67875, -0.9732666, 3.67875, -0.3286133, 3.67875, 5.1297708, 3.67875, -2.2671757, 3.67875, -3.610687
0.4335882, -0.023331, 3.6855, 0.1050415, 3.6855, -0.9729614, 3.6855, -0.3319702, 3.6855, 5.2061067, 3.6855, -2.4122138, 3.6855, -3.4961832
0.4343824, -0.0196384, 3.69225, 0.1070557, 3.69225, -0.9724731, 3.69225, -0.3302612, 3.69225, 5.0076337, 3.69225, -2.2137403, 3.69225, -3.1984732
0.4351765, -0.0203098, 3.699, 0.1087036, 3.699, -0.9749146, 3.699, -0.3317261, 3.699, 4.9541984, 3.699, -2.1450381, 3.699, -3.4885497
0.4359706, -0.0206455, 3.70575, 0.109375, 3.70575, -0.9749146, 3.70575, -0.3297729, 3.70575, 4.9389315, 3.70575, -1.9007634, 3.70575, -3.3282442
0.4367647, -0.0196384, 3.7125, 0.1117554, 3.7125, -0.9747925, 3.7125, -0.3319092, 3.7125, 4.6335878, 3.7125, -1.4427481, 3.7125, -3.3053436
0.4375588, -0.0216526, 3.71925, 0.1141968, 3.71925, -0.9769897, 3.71925, -0.3343506, 3.71925, 4.4580154, 3.71925, -1.038168, 3.71925, -3.2519083
0.4383529, -0.0198062, 3.726, 0.1124878, 3.726, -0.9730835, 3.726, -0.3359985, 3.726, 4.5343513, 3.726, -0.8549618, 3.726, -3.2824428
0.4391471, -0.014435, 3.73275, 0.1171875, 3.73275, -0.9727783, 3.73275, -0.3325806, 3.73275, 4.3053436, 3.73275, -0.908397, 3.73275, -3.1526718
0.4399412, -0.0142672, 3.7395, 0.1171875, 3.7395, -0.9769897, 3.7395, -0.3312378, 3.7395, 4.1603055, 3.7395, -0.8320611, 3.7395, -2.9541984
0.4407353, -0.0130922, 3.74625, 0.1142578, 3.74625, -0.9762573, 3.74625, -0.326416, 3.74625, 3.8854961, 3.74625, -0.8549618, 3.74625, -2.8778627
0.4415294, -0.0152743, 3.753, 0.111084, 3.753, -0.9755859, 3.753, -0.3256226, 3.753, 3.9160306, 3.753, -0.4732825, 3.753, -2.8778627
0.4423235, -0.0169528, 3.75975, 0.1085205, 3.75975, -0.9771118, 3.75975, -0.3288574, 3.75975, 3.6564887, 3.75975, -0.0534351, 3.75975, -2.6030533
0.4431176, -0.0142672, 3.7665, 0.1114502, 3.7665, -0.9755249, 3.7665, -0.3255615, 3.7665, 3.740458, 3.7665, 0.2366412, 3.7665, -2.5343511
0.4439118, -0.0105745, 3.77325, 0.1100464, 3.77325, -0.9767456, 3.77325, -0.3253174, 3.77325, 3.5877862, 3.77325, 0.2824427, 3.77325, -2.7175572
0.4447059, -0.0115816, 3.78, 0.1071167, 3.78, -0.9765625, 3.78, -0.3226318, 3.78, 3.480916, 3.78, 0.3358779, 3.78, -2.5114503
0.4455, -0.0077211, 3.78675, 0.1069946, 3.78675, -0.9738159, 3.78675, -0.3205566, 3.78675, 3.2748091, 3.78675, 0.4732825, 3.78675, -2.5725191
0.4462941, -0.0095674, 3.7935, 0.1065674, 3.7935, -0.9758911, 3.7935, -0.3197632, 3.7935, 3.2061069, 3.7935, 0.4961832, 3.7935, -2.4885497
0.4470882, -0.012253, 3.80025, 0.1043701, 3.80025, -0.9742432, 3.80025, -0.3201294, 3.80025, 3.1984732, 3.80025, 0.6717557, 3.80025, -2.4274809
0.4478824, -0.012253, 3.807, 0.1051636, 3.807, -0.9732056, 3.807, -0.3187256, 3.807, 3.1374047, 3.807, 0.961832, 3.807, -2.5801528
0.4486765, -0.0135958, 3.81375, 0.1043701, 3.81375, -0.9743652, 3.81375, -0.3205566, 3.81375, 2.9160306, 3.81375, 0.9694657, 3.81375, -2.4961832
0.4494706, -0.0119173, 3.8205, 0.1033936, 3.8205, -0.973938, 3.8205, -0.3222656, 3.8205, 2.870229, 3.8205, 1.2824427, 3.8205, -2.5267177
0.4502647, -0.0129244, 3.82725, 0.1061401, 3.82725, -0.9755249, 3.82725, -0.3189087, 3.82725, 2.6870229, 3.82725, 1.2671756, 3.82725, -2.5801528
0.4510588, -0.012253, 3.834, 0.1057739, 3.834, -0.975708, 3.834, -0.3166504, 3.834, 2.5343511, 3.834, 1.2442749, 3.834, -2.5648854
0.4518529, -0.0146029, 3.84075, 0.1019287, 3.84075, -0.9778442, 3.84075, -0.3158569, 3.84075, 2.2748091, 3.84075, 1.1526718, 3.84075, -2.6564887
0.4526471, -0.0172885, 3.8475, 0.0999756, 3.8475, -0.9799194, 3.8475, -0.3162231, 3.8475, 2.259542, 3.8475, 1.0458015, 3.8475, -2.5877862
0.4534412, -0.0182956, 3.85425, 0.1032715, 3.85425, -0.9758911, 3.85425, -0.3184204, 3.85425, 2.3435113, 3.85425, 1.1145039, 3.85425, -2.5343511
0.4542353, -0.0198062, 3.861, 0.1027222, 3.861, -0.9748535, 3.861, -0.3209229, 3.861, 2.1145039, 3.861, 1.4885496, 3.861, -2.5572519
0.4550294, -0.0203098, 3.86775, 0.1051025, 3.86775, -0.9736328, 3.86775, -0.3215332, 3.86775, 2.0076337, 3.86775, 1.5725191, 3.86775, -2.7099237
0.4558235, -0.0199741, 3.8745, 0.1036987, 3.8745, -0.9767456, 3.8745, -0.3206177, 3.8745, 2.2442749, 3.8745, 1.778626, 3.8745, -2.6946564
0.4566176, -0.0186313, 3.88125, 0.1026001, 3.88125, -0.9735107, 3.88125, -0.319397, 3.88125, 2.0687022, 3.88125, 1.5954199, 3.88125, -2.8015268
0.4574118, -0.0179599, 3.888, 0.1018677, 3.888, -0.9724121, 3.888, -0.3198853, 3.888, 1.908397, 3.888, 1.3206106, 3.888, -2.6641221
0.4582059, -0.0162814, 3.89475, 0.0991211, 3.89475, -0.9779663, 3.89475, -0.3248901, 3.89475, 2.0458016, 3.89475, 1.4732825, 3.89475, -2.7175572
0.459, -0.0149386, 3.9015, 0.0994873, 3.9015, -0.9759521, 3.9015, -0.3275146, 3.9015, 1.9160305, 3.9015, 1.2366412, 3.9015, -2.7022901
0.4597941, -0.0142672, 3.90825, 0.1030884, 3.90825, -0.9761353, 3.90825, -0.3255005, 3.90825, 1.9389313, 3.90825, 1.2061069, 3.90825, -2.7175572
0.4605882, -0.0109102, 3.915, 0.1030273, 3.915, -0.9763794, 3.915, -0.322876, 3.915, 2.129771, 3.915, 1.2137405, 3.915, -2.6030533
0.4613824, -0.0095674, 3.92175, 0.1051025, 3.92175, -0.9759521, 3.92175, -0.321167, 3.92175, 2.0458016, 3.92175, 1.1679389, 3.92175, -2.7175572
0.4621765, -0.0124208, 3.9285, 0.1036987, 3.9285, -0.9786377, 3.9285, -0.3219604, 3.9285, 2.0229008, 3.9285, 0.908397, 3.9285, -2.648855
0.4629706, -0.0109102, 3.93525, 0.1022949, 3.93525, -0.9752197, 3.93525, -0.321228, 3.93525, 1.7175573, 3.93525, 0.8854962, 3.93525, -2.8778627
0.4637647, -0.0092317, 3.942, 0.1000977, 3.942, -0.9771729, 3.942, -0.3198242, 3.942, 1.9007634, 3.942, 0.8091603, 3.942, -2.7480917
0.4645588, -0.0137636, 3.94875, 0.1030273, 3.94875, -0.9759521, 3.94875, -0.3171997, 3.94875, 1.8320611, 3.94875, 0.6412213, 3.94875, -2.8625953
0.4653529, -0.0119173, 3.9555, 0.1019897, 3.9555, -0.9766235, 3.9555, -0.3192139, 3.9555, 1.7480916, 3.9555, 0.6259542, 3.9555, -2.8549619
0.4661471, -0.012253, 3.96225, 0.1035156, 3.96225, -0.9769287, 3.96225, -0.3153076, 3.96225, 1.8473282, 3.96225, 0.6564885, 3.96225, -2.9694657
0.4669412, -0.01561, 3.969, 0.1011353, 3.969, -0.9765015, 3.969, -0.3199463, 3.969, 1.7480916, 3.969, 0.6259542, 3.969, -2.908397
0.4677353, -0.0169528, 3.97575, 0.098938, 3.97575, -0.9771118, 3.97575, -0.3173828, 3.97575, 1.7480916, 3.97575, 0.7557252, 3.97575, -3.0076337
0.4685294, -0.0172885, 3.9825, 0.1001587, 3.9825, -0.9777832, 3.9825, -0.3167725, 3.9825, 1.8244275, 3.9825, 0.7328244, 3.9825, -2.908397
0.4693235, -0.0193027, 3.98925, 0.0988159, 3.98925, -0.9779663, 3.98925, -0.314209, 3.98925, 1.8091604, 3.98925, 0.4732825, 3.98925, -3.1603053
0.4701176, -0.0196384, 3.996, 0.0949097, 3.996, -0.9765015, 3.996, -0.3148804, 3.996, 1.6870229, 3.996, 0.2290076, 3.996, -3.1984732
0.4709118, -0.0162814, 4.00275, 0.0917969, 4.00275, -0.9733276, 4.00275, -0.3141479, 4.00275, 1.4885496, 4.00275, -0.1145038, 4.00275, -3.3129771
0.4717059, -0.0129244, 4.0095, 0.0922852, 4.0095, -0.9741821, 4.0095, -0.3129883, 4.0095, 1.5267175, 4.0095, -0.2824427, 4.0095, -3.519084
0.4725, -0.0139315, 4.01625, 0.0977173, 4.01625, -0.9729614, 4.01625, -0.3148193, 4.01625, 1.3358779, 4.01625, -0.2290076, 4.01625, -3.5038168
0.4732941, -0.0149386, 4.023, 0.1013184, 4.023, -0.9771729, 4.023, -0.3136597, 4.023, 1.4045801, 4.023, 0.1450382, 4.023, -3.4961832
0.4740882, -0.0151064, 4.02975, 0.1022949, 4.02975, -0.9747925, 4.02975, -0.3131714, 4.02975, 1.1832061, 4.02975, 0.221374, 4.02975, -3.5496182
0.4748824, -0.0104067, 4.0365, 0.1057739, 4.0365, -0.9765625, 4.0365, -0.3171387, 4.0365, 1.2900764, 4.0365, 0.0763359, 4.0365, -3.6412213
0.4756765, -0.008896, 4.04325, 0.1082764, 4.04325, -0.9781494, 4.04325, -0.317749, 4.04325, 1.1145039, 4.04325, 0.2442748, 4.04325, -3.3664122
0.4764706, -0.01561, 4.05, 0.1090088, 4.05, -0.9783325, 4.05, -0.3150635, 4.05, 1.0534351, 4.05, 0.3435115, 4.05, -3.2748091
0.4772647, -0.0199741, 4.05675, 0.1066895, 4.05675, -0.9772949, 4.05675, -0.3178711, 4.05675, 1.1374046, 4.05675, 0.4656489, 4.05675, -3.3740458
0.4780588, -0.0176242, 4.0635, 0.1046143, 4.0635, -0.9755859, 4.0635, -0.3148804, 4.0635, 1.1984733, 4.0635, 0.6946565, 4.0635, -3.1832061
0.4788529, -0.0102388, 4.07025, 0.1036987, 4.07025, -0.9745483, 4.07025, -0.317627, 4.07025, 1.1908396, 4.07025, 0.7251908, 4.07025, -3.2061069
0.4796471, -0.0075532, 4.077, 0.1052246, 4.077, -0.9752808, 4.077, -0.3185425, 4.077, 1.1526718, 4.077, 0.7709923, 4.077, -3.221374
0.4804412, -0.0085603, 4.08375, 0.1031494, 4.08375, -0.9783936, 4.08375, -0.3193359, 4.08375, 1.259542, 4.08375, 0.8091603, 4.08375, -3.2977099
0.4812353, -0.0085603, 4.0905, 0.1051636, 4.0905, -0.9768677, 4.0905, -0.3212891, 4.0905, 1.1374046, 4.0905, 0.961832, 4.0905, -3.1755726
0.4820294, -0.0112459, 4.09725, 0.1020508, 4.09725, -0.975769, 4.09725, -0.3182983, 4.09725, 1.1984733, 4.09725, 0.9389313, 4.09725, -3.2061069
0.4828235, -0.0115816, 4.104, 0.1068726, 4.104, -0.9759521, 4.104, -0.3220825, 4.104, 1.1984733, 4.104, 0.8396947, 4.104, -3.2519083
0.4836176, -0.012253, 4.11075, 0.1022949, 4.11075, -0.975708, 4.11075, -0.3260498, 4.11075, 1.2061069, 4.11075, 0.8473282, 4.11075, -3.2748091
0.4844118, -0.01561, 4.1175, 0.1043701, 4.1175, -0.9743652, 4.1175, -0.3207397, 4.1175, 1.3282443, 4.1175, 0.480916, 4.1175, -3.0763359
0.4852059, -0.0179599, 4.12425, 0.1052856, 4.12425, -0.9780273, 4.12425, -0.3190308, 4.12425, 1.1679389, 4.12425, 0.4122137, 4.12425, -3.1908398
0.486, -0.0176242, 4.131, 0.1053467, 4.131, -0.9768677, 4.131, -0.3174438, 4.131, 1.4122137, 4.131, 0.3664122, 4.131, -3.1068702
0.4867941, -0.0231632, 4.13775, 0.1052856, 4.13775, -0.9763184, 4.13775, -0.3189697, 4.13775, 1.3740458, 4.13775, 0.4656489, 4.13775, -3.2442749
0.4875882, -0.0234989, 4.1445, 0.105957, 4.1445, -0.9783936, 4.1445, -0.319458, 4.1445, 1.4732825, 4.1445, 0.740458, 4.1445, -3.1603053
0.4883824, -0.0229953, 4.15125, 0.1040039, 4.15125, -0.9750977, 4.15125, -0.319397, 4.15125, 1.3740458, 4.15125, 0.5877863, 4.15125, -3.1908398
0.4891765, -0.0270237, 4.158, 0.1031494, 4.158, -0.9754639, 4.158, -0.3153076, 4.158, 1.2137405, 4.158, 0.3282443, 4.158, -3.0534351
0.4899706, -0.0216526, 4.16475, 0.0995483, 4.16475, -0.9755859, 4.16475, -0.3140869, 4.16475, 1.351145, 4.16475, 0.2824427, 4.16475, -3.2824428
0.4907647, -0.0196384, 4.1715, 0.1019287, 4.1715, -0.9798584, 4.1715, -0.314209, 4.1715, 1.480916, 4.1715, 0.2290076, 4.1715, -3.3969467
0.4915588, -0.018967, 4.17825, 0.1031494, 4.17825, -0.9769897, 4.17825, -0.3168335, 4.17825, 1.2290076, 4.17825, 0.4274809, 4.17825, -3.3969467
0.4923529, -0.0203098, 4.185, 0.1046143, 4.185, -0.9760132, 4.185, -0.3198242, 4.185, 1.3129771, 4.185, 0.4503817, 4.185, -3.3358779
0.4931471, -0.0182956, 4.19175, 0.1018066, 4.19175, -0.9790039, 4.19175, -0.3169556, 4.19175, 1.2900764, 4.19175, 0.3664122, 4.19175, -3.4961832
0.4939412, -0.01561, 4.1985, 0.1074219, 4.1985, -0.9768066, 4.1985, -0.3178101, 4.1985, 1.3206106, 4.1985, 0.5038168, 4.1985, -3.3664122
0.4947353, -0.0208133, 4.20525, 0.1047974, 4.20525, -0.9761963, 4.20525, -0.3172607, 4.20525, 1.221374, 4.20525, 0.6793893, 4.20525, -3.4274809
0.4955294, -0.0193027, 4.212, 0.1047363, 4.212, -0.9767456, 4.212, -0.3193359, 4.212, 1.1221374, 4.212, 0.8015267, 4.212, -3.1603053
0.4963235, -0.0142672, 4.21875, 0.1090088, 4.21875, -0.9787598, 4.21875, -0.3151855, 4.21875, 1.129771, 4.21875, 0.7938932, 4.21875, -3.1603053
0.4971176, -0.0149386, 4.2255, 0.1044922, 4.2255, -0.979248, 4.2255, -0.3179321, 4.2255, 1.2061069, 4.2255, 0.6717557, 4.2255, -3.3435113
0.4979118, -0.0164492, 4.23225, 0.1029663, 4.23225, -0.9771729, 4.23225, -0.3175659, 4.23225, 1.3740458, 4.23225, 0.8167939, 4.23225, -3.2824428
0.4987059, -0.0157778, 4.239, 0.1029663, 4.239, -0.9741821, 4.239, -0.3179321, 4.239, 1.2061069, 4.239, 0.610687, 4.239, -3.0458016
0.4995, -0.0102388, 4.24575, 0.1030884, 4.24575, -0.9761963, 4.24575, -0.3150024, 4.24575, 1.3129771, 4.24575, 0.7557252, 4.24575, -3.1984732
0.5002941, -0.0117494, 4.2525, 0.1010742, 4.2525, -0.9789429, 4.2525, -0.3144531, 4.2525, 1.4274809, 4.2525, 0.4732825, 4.2525, -3.2137403
0.5010882, -0.0172885, 4.25925, 0.1013794, 4.25925, -0.9795532, 4.25925, -0.3143311, 4.25925, 1.3206106, 4.25925, 0.5267175, 4.25925, -3.3053436
0.5018824, -0.0162814, 4.266, 0.0993042, 4.266, -0.9779663, 4.266, -0.3175659, 4.266, 1.3206106, 4.266, 0.5648855, 4.266, -3.1068702
0.5026765, -0.0154421, 4.27275, 0.1016846, 4.27275, -0.9754639, 4.27275, -0.3181152, 4.27275, 1.3969465, 4.27275, 0.7862595, 4.27275, -3.3053436
0.5034706, -0.0184634, 4.2795, 0.1074219, 4.2795, -0.9758911, 4.2795, -0.3208618, 4.2795, 1.4656489, 4.2795, 0.9923664, 4.2795, -3.4274809
0.5042647, -0.0209812, 4.28625, 0.1054077, 4.28625, -0.9761353, 4.28625, -0.319519, 4.28625, 1.2977099, 4.28625, 0.8396947, 4.28625, -3.2290077
0.5050588, -0.01561, 4.293, 0.1026611, 4.293, -0.9776611, 4.293, -0.3157349, 4.293, 1.2900764, 4.293, 0.2748092, 4.293, -3.259542
0.5058529, -0.0169528, 4.29975, 0.1029663, 4.29975, -0.9750366, 4.29975, -0.3153076, 4.29975, 1.4045801, 4.29975, -0.0992366, 4.29975, -3.1145039
0.5066471, -0.0129244, 4.3065, 0.1054688, 4.3065, -0.9771118, 4.3065, -0.3208008, 4.3065, 1.2442749, 4.3065, 0.1908397, 4.3065, -3.091603
0.5074412, -0.012253, 4.31325, 0.1074219, 4.31325, -0.9740601, 4.31325, -0.3186646, 4.31325, 1.3664122, 4.31325, 0.480916, 4.31325, -3.1374047
0.5082353, -0.0139315, 4.32, 0.1098633, 4.32, -0.9776611, 4.32, -0.3147583, 4.32, 1.4427481, 4.32, 0.7099237, 4.32, -3.1832061
0.5090294, -0.0142672, 4.32675, 0.1090088, 4.32675, -0.9772339, 4.32675, -0.3145142, 4.32675, 1.259542, 4.32675, 0.3587786, 4.32675, -2.9694657
0.5098235, -0.0146029, 4.3335, 0.1060791, 4.3335, -0.9807129, 4.3335, -0.3099976, 4.3335, 1.259542, 4.3335, 0.4274809, 4.3335, -2.908397
0.5106176, -0.0135958, 4.34025, 0.1080933, 4.34025, -0.975647, 4.34025, -0.3114624, 4.34025, 1.2900764, 4.34025, 0.7633588, 4.34025, -2.8625953
0.5114118, -0.012253, 4.347, 0.1068115, 4.347, -0.9768066, 4.347, -0.3171387, 4.347, 1.3740458, 4.347, 1.1908396, 4.347, -2.9694657
0.5122059, -0.011078, 4.35375, 0.1068115, 4.35375, -0.9766235, 4.35375, -0.3146973, 4.35375, 1.4351145, 4.35375, 1.1221374, 4.35375, -2.9923663
0.513, -0.0125887, 4.3605, 0.109314, 4.3605, -0.9752197, 4.3605, -0.3189087, 4.3605, 1.3740458, 4.3605, 1.0687023, 4.3605, -2.908397
0.5137941, -0.014435, 4.36725, 0.1063232, 4.36725, -0.9782715, 4.36725, -0.3161011, 4.36725, 1.3282443, 4.36725, 0.9465649, 4.36725, -2.9694657
0.5145882, -0.0120851, 4.374, 0.0997925, 4.374, -0.975708, 4.374, -0.3152466, 4.374, 1.2824427, 4.374, 0.7862595, 4.374, -2.8320611
0.5153824, -0.0135958, 4.38075, 0.102478, 4.38075, -0.9765015, 4.38075, -0.3146362, 4.38075, 1.2748091, 4.38075, 0.870229, 4.38075, -2.8778627
0.5161765, -0.0119173, 4.3875, 0.1020508, 4.3875, -0.9772339, 4.3875, -0.3157959, 4.3875, 1.2977099, 4.3875, 0.8473282, 4.3875, -2.870229
0.5169706, -0.0102388, 4.39425, 0.0998535, 4.39425, -0.9733276, 4.39425, -0.3179932, 4.39425, 1.351145, 4.39425, 0.7480916, 4.39425, -2.8778627
0.5177647, -0.0070497, 4.401, 0.0998535, 4.401, -0.9743652, 4.401, -0.3165894, 4.401, 1.2519084, 4.401, 0.6717557, 4.401, -2.9465649
0.5185588, -0.0085603, 4.40775, 0.1018066, 4.40775, -0.9754639, 4.40775, -0.3187866, 4.40775, 1.5038168, 4.40775, 0.8015267, 4.40775, -2.8396947
0.5193529, -0.0135958, 4.4145, 0.104126, 4.4145, -0.9750977, 4.4145, -0.3146973, 4.4145, 1.3053435, 4.4145, 0.389313, 4.4145, -2.8244274
0.5201471, -0.0169528, 4.42125, 0.102356, 4.42125, -0.9761963, 4.42125, -0.3137207, 4.42125, 1.2519084, 4.42125, 0.3664122, 4.42125, -3.0839694
0.5209412, -0.023331, 4.428, 0.104187, 4.428, -0.9761353, 4.428, -0.3103638, 4.428, 1.3129771, 4.428, 0.3206107, 4.428, -3.038168
0.5217353, -0.0176242, 4.43475, 0.105896, 4.43475, -0.9783936, 4.43475, -0.3106689, 4.43475, 1.4580153, 4.43475, 0.389313, 4.43475, -3.0534351
0.5225294, -0.0132601, 4.4415, 0.1055298, 4.4415, -0.9787598, 4.4415, -0.310791, 4.4415, 1.4351145, 4.4415, 0.6183206, 4.4415, -2.7633588
0.5233235, -0.0179599, 4.44825, 0.1099243, 4.44825, -0.9769287, 4.44825, -0.3127441, 4.44825, 1.5877863, 4.44825, 0.9236641, 4.44825, -2.9160306
0.5241176, -0.0182956, 4.455, 0.1054077, 4.455, -0.9811401, 4.455, -0.3145142, 4.455, 1.389313, 4.455, 0.8091603, 4.455, -2.8396947
0.5249118, -0.0149386, 4.46175, 0.1039429, 4.46175, -0.9805908, 4.46175, -0.3120728, 4.46175, 1.3740458, 4.46175, 0.7175573, 4.46175, -2.908397
0.5257059, -0.0199741, 4.4685, 0.1053467, 4.4685, -0.9747925, 4.4685, -0.3143311, 4.4685, 1.3740458, 4.4685, 1.1526718, 4.4685, -2.8473282
0.5265, -0.0193027, 4.47525, 0.1044312, 4.47525, -0.9758301, 4.47525, -0.3181152, 4.47525, 1.259542, 4.47525, 1.5725191, 4.47525, -2.6564887
0.5272941, -0.0142672, 4.482, 0.1017456, 4.482, -0.9763794, 4.482, -0.3171387, 4.482, 1.2519084, 4.482, 1.5038168, 4.482, -2.7175572
0.5280882, -0.0095674, 4.48875, 0.1003418, 4.48875, -0.9743652, 4.48875, -0.3138428, 4.48875, 1.2290076, 4.48875, 1.2061069, 4.48875, -2.8167939
0.5288824, -0.0078889, 4.4955, 0.0987549, 4.4955, -0.975769, 4.4955, -0.312439, 4.4955, 1.1068702, 4.4955, 0.908397, 4.4955, -2.9770992
0.5296765, -0.0102388, 4.50225, 0.0971069, 4.50225, -0.9738159, 4.50225, -0.3139038, 4.50225, 1.1374046, 4.50225, 0.8320611, 4.50225, -3
0.5304706, -0.0146029, 4.509, 0.1008911, 4.509, -0.9750366, 4.509, -0.31427, 4.509, 1.1221374, 4.509, 0.908397, 4.509, -2.9007633
0.5312647, -0.0129244, 4.51575, 0.1014404, 4.51575, -0.9743042, 4.51575, -0.3156128, 4.51575, 1.1984733, 4.51575, 0.8854962, 4.51575, -2.8931298
0.5320588, -0.0115816, 4.5225, 0.1014404, 4.5225, -0.9763794, 4.5225, -0.3154907, 4.5225, 1.1145039, 4.5225, 0.6259542, 4.5225, -2.9541984
0.5328529, -0.012253, 4.52925, 0.1004028, 4.52925, -0.9768066, 4.52925, -0.3148193, 4.52925, 1.1145039, 4.52925, 0.3664122, 4.52925, -2.9465649
0.5336471, -0.0115816, 4.536, 0.1033936, 4.536, -0.9754639, 4.536, -0.3144531, 4.536, 1.259542, 4.536, 0.7022901, 4.536, -3.0229008
0.5344412, -0.0142672, 4.54275, 0.1035767, 4.54275, -0.9752808, 4.54275, -0.3151855, 4.54275, 1.1221374, 4.54275, 1.0458015, 4.54275, -2.9007633
0.5352353, -0.0157778, 4.5495, 0.1036987, 4.5495, -0.9752808, 4.5495, -0.3157959, 4.5495, 1.1221374, 4.5495, 0.8931298, 4.5495, -2.961832
0.5360294, -0.0213169, 4.55625, 0.1029663, 4.55625, -0.9805908, 4.55625, -0.3106079, 4.55625, 1.0458015, 4.55625, 0.8015267, 4.55625, -2.9923663
0.5368235, -0.0194705, 4.563, 0.1057129, 4.563, -0.9786987, 4.563, -0.3115845, 4.563, 0.9465649, 4.563, 1.0076336, 4.563, -3.0839694
0.5376176, -0.0172885, 4.56975, 0.1046143, 4.56975, -0.9795532, 4.56975, -0.3129883, 4.56975, 1.1526718, 4.56975, 1.1908396, 4.56975, -2.9694657
0.5384118, -0.018967, 4.5765, 0.1035767, 4.5765, -0.9779053, 4.5765, -0.317688, 4.5765, 0.8931298, 4.5765, 1.1068702, 4.5765, -2.778626
0.5392059, -0.017792, 4.58325, 0.1036377, 4.58325, -0.9794922, 4.58325, -0.3162231, 4.58325, 1.0458015, 4.58325, 1.0763359, 4.58325, -2.8549619
0.54, -0.0206455, 4.59, 0.1043701, 4.59, -0.9783325, 4.59, -0.3135376, 4.59, 1.1526718, 4.59, 1.0534351, 4.59, -2.7938931
0.5407941, -0.0203098, 4.59675, 0.1022339, 4.59675, -0.9784546, 4.59675, -0.3143921, 4.59675, 0.870229, 4.59675, 0.9541985, 4.59675, -2.8473282
0.5415882, -0.0167849, 4.6035, 0.1019287, 4.6035, -0.9798584, 4.6035, -0.3168945, 4.6035, 0.9847328, 4.6035, 0.8625954, 4.6035, -2.7099237
0.5423824, -0.0164492, 4.61025, 0.1049194, 4.61025, -0.9812622, 4.61025, -0.3145142, 4.61025, 0.9770992, 4.61025, 0.908397, 4.61025, -2.8931298
0.5431765, -0.0199741, 4.617, 0.1043091, 4.617, -0.9790039, 4.617, -0.3145142, 4.617, 1.0610687, 4.617, 0.9007633, 4.617, -2.8167939
0.5439706, -0.0146029, 4.62375, 0.1068115, 4.62375, -0.982666, 4.62375, -0.3163452, 4.62375, 1.0152671, 4.62375, 1.0687023, 4.62375, -2.740458
0.5447647, -0.0082246, 4.6305, 0.104126, 4.6305, -0.9799805, 4.6305, -0.3173218, 4.6305, 0.8778626, 4.6305, 0.9312977, 4.6305, -2.740458
0.5455588, -0.0095674, 4.63725, 0.1015625, 4.63725, -0.9779663, 4.63725, -0.315918, 4.63725, 1.1984733, 4.63725, 1.091603, 4.63725, -2.7328243
0.5463529, -0.0127565, 4.644, 0.1019897, 4.644, -0.9777222, 4.644, -0.3123169, 4.644, 1.2061069, 4.644, 1.1221374, 4.644, -2.7862597
0.5471471, -0.0087282, 4.65075, 0.1027222, 4.65075, -0.9782715, 4.65075, -0.31427, 4.65075, 1.2442749, 4.65075, 1.091603, 4.65075, -2.6717558
0.5479412, -0.0090639, 4.6575, 0.1027832, 4.6575, -0.9746094, 4.6575, -0.3140259, 4.6575, 1.0763359, 4.6575, 0.8396947, 4.6575, -2.6564887
0.5487353, -0.0135958, 4.66425, 0.1029053, 4.66425, -0.9763794, 4.66425, -0.3118286, 4.66425, 1.0229008, 4.66425, 0.9694657, 4.66425, -2.8167939
0.5495294, -0.0149386, 4.671, 0.1045532, 4.671, -0.9790649, 4.671, -0.3108521, 4.671, 1.0229008, 4.671, 0.8549618, 4.671, -2.7175572
0.5503235, -0.0130922, 4.67775, 0.1043701, 4.67775, -0.9788818, 4.67775, -0.3128052, 4.67775, 1.1755725, 4.67775, 0.7328244, 4.67775, -2.7862597
0.5511176, -0.0119173, 4.6845, 0.1054688, 4.6845, -0.9760742, 4.6845, -0.3103027, 4.6845, 1.1221374, 4.6845, 1.0992366, 4.6845, -2.5877862
0.5519118, -0.014435, 4.69125, 0.1082764, 4.69125, -0.9767456, 4.69125, -0.3141479, 4.69125, 1.0763359, 4.69125, 1.2748091, 4.69125, -2.4885497
0.5527059, -0.017792, 4.698, 0.1072388, 4.698, -0.9737549, 4.698, -0.3169556, 4.698, 1.0152671, 4.698, 1.4427481, 4.698, -2.5343511
0.5535, -0.0152743, 4.70475, 0.1062012, 4.70475, -0.9747925, 4.70475, -0.3126221, 4.70475, 1.0610687, 4.70475, 1.2900764, 4.70475, -2.4198472
0.5542941, -0.0166171, 4.7115, 0.1044312, 4.7115, -0.977478, 4.7115, -0.3131104, 4.7115, 1.038168, 4.7115, 1.2137405, 4.7115, -2.389313
0.5550882, -0.0151064, 4.71825, 0.0991211, 4.71825, -0.9782104, 4.71825, -0.3132935, 4.71825, 0.9541985, 4.71825, 1.129771, 4.71825, -2.6030533
0.5558824, -0.0135958, 4.725, 0.1009521, 4.725, -0.980835, 4.725, -0.3157349, 4.725, 1.1221374, 4.725, 1.4045801, 4.725, -2.4274809
0.5566765, -0.0137636, 4.73175, 0.1005859, 4.73175, -0.9790039, 4.73175, -0.3191528, 4.73175, 1.0687023, 4.73175, 1.5496184, 4.73175, -2.480916
0.5574706, -0.0132601, 4.7385, 0.098999, 4.7385, -0.9811401, 4.7385, -0.3148804, 4.7385, 1.1526718, 4.7385, 1.4351145, 4.7385, -2.6335878
0.5582647, -0.0151064, 4.74525, 0.0959473, 4.74525, -0.9807739, 4.74525, -0.3182983, 4.74525, 1.2290076, 4.74525, 1.3206106, 4.74525, -2.8167939
0.5590588, -0.0159457, 4.752, 0.0939941, 4.752, -0.9770508, 4.752, -0.3139038, 4.752, 1.1526718, 4.752, 1, 4.752, -2.8625953
0.5598529, -0.0159457, 4.75875, 0.0953979, 4.75875, -0.9761963, 4.75875, -0.312561, 4.75875, 0.9770992, 4.75875, 0.8854962, 4.75875, -2.7175572
0.5606471, -0.0135958, 4.7655, 0.0944824, 4.7655, -0.9776001, 4.7655, -0.3099976, 4.7655, 1.0763359, 4.7655, 0.7633588, 4.7655, -2.9923663
0.5614412, -0.0105745, 4.77225, 0.0922852, 4.77225, -0.9752808, 4.77225, -0.3104858, 4.77225, 0.9160305, 4.77225, 0.4427481, 4.77225, -2.961832
0.5622353, -0.0058747, 4.779, 0.09375, 4.779, -0.9772339, 4.779, -0.312561, 4.779, 0.9312977, 4.779, 0.2671756, 4.779, -3.091603
0.5630294, -0.0070497, 4.78575, 0.0948486, 4.78575, -0.9761963, 4.78575, -0.3132324, 4.78575, 0.908397, 4.78575, 0.2366412, 4.78575, -3.1374047
0.5638235, -0.0062104, 4.7925, 0.0977783, 4.7925, -0.9771729, 4.7925, -0.3135986, 4.7925, 0.7633588, 4.7925, 0.5114504, 4.7925, -3.0229008
0.5646176, -0.0107424, 4.79925, 0.102356, 4.79925, -0.9801025, 4.79925, -0.3115234, 4.79925, 0.7862595, 4.79925, 0.5343512, 4.79925, -3.038168
0.5654118, -0.0172885, 4.806, 0.1126709, 4.806, -0.982605, 4.806, -0.3110352, 4.806, 0.8244275, 4.806, 0.8396947, 4.806, -2.9847329
0.5662059, -0.0203098, 4.81275, 0.1143799, 4.81275, -0.9806519, 4.81275, -0.3137817, 4.81275, 0.7862595, 4.81275, 0.961832, 4.81275, -2.961832
0.567, -0.0169528, 4.8195, 0.1110229, 4.8195, -0.9765625, 4.8195, -0.312561, 4.8195, 1.038168, 4.8195, 1.3664122, 4.8195, -2.8244274
0.5677941, -0.0129244, 4.82625, 0.1071167, 4.82625, -0.9752808, 4.82625, -0.3161621, 4.82625, 0.9236641, 4.82625, 1.4580153, 4.82625, -2.8549619
0.5685882, -0.0146029, 4.833, 0.1040649, 4.833, -0.9780273, 4.833, -0.3145752, 4.833, 0.9160305, 4.833, 1.5877863, 4.833, -2.778626
0.5693824, -0.0199741, 4.83975, 0.1043091, 4.83975, -0.977417, 4.83975, -0.3167725, 4.83975, 0.9541985, 4.83975, 1.5038168, 4.83975, -2.7175572
0.5701765, -0.0149386, 4.8465, 0.1035767, 4.8465, -0.9769897, 4.8465, -0.3190308, 4.8465, 1.1603054, 4.8465, 1.6870229, 4.8465, -2.6717558
0.5709706, -0.0117494, 4.85325, 0.098938, 4.85325, -0.979126, 4.85325, -0.3178101, 4.85325, 1.0305344, 4.85325, 1.648855, 4.85325, -2.5267177
0.5717647, -0.0132601, 4.86, 0.1000977, 4.86, -0.9767456, 4.86, -0.3190308, 4.86, 1.1450381, 4.86, 1.5572519, 4.86, -2.610687
0.5725588, -0.0246738, 4.86675, 0.0981445, 4.86675, -0.9811401, 4.86675, -0.3189087, 4.86675, 1.0076336, 4.86675, 1.259542, 4.86675, -2.7099237
0.5733529, -0.0307164, 4.8735, 0.0933838, 4.8735, -0.979248, 4.8735, -0.3198853, 4.8735, 1.0763359, 4.8735, 0.9389313, 4.8735, -2.5572519
0.5741471, -0.0290379, 4.88025, 0.0942993, 4.88025, -0.9796753, 4.88025, -0.3201294, 4.88025, 1.0610687, 4.88025, 0.6870229, 4.88025, -2.6183207
0.5749412, -0.0243381, 4.887, 0.09552, 4.887, -0.9804077, 4.887, -0.314209, 4.887, 1.1832061, 4.887, 0.5648855, 4.887, -2.8549619
0.5757353, -0.0206455, 4.89375, 0.0957031, 4.89375, -0.9814453, 4.89375, -0.3153076, 4.89375, 0.8778626, 4.89375, 0.4198473, 4.89375, -2.8778627
0.5765294, -0.0182956, 4.9005, 0.1002197, 4.9005, -0.9793701, 4.9005, -0.3134766, 4.9005, 0.9770992, 4.9005, 0.4122137, 4.9005, -2.8091602
0.5773235, -0.0162814, 4.90725, 0.1019287, 4.90725, -0.9806519, 4.90725, -0.3140259, 4.90725, 1.129771, 4.90725, 0.4961832, 4.90725, -2.908397
0.5781176, -0.01561, 4.914, 0.1039429, 4.914, -0.9768677, 4.914, -0.3120728, 4.914, 1.0458015, 4.914, 0.480916, 4.914, -2.6564887
0.5789118, -0.0139315, 4.92075, 0.1029663, 4.92075, -0.9797363, 4.92075, -0.3157959, 4.92075, 1.1145039, 4.92075, 0.8244275, 4.92075, -2.9236641
0.5797059, -0.012253, 4.9275, 0.1043701, 4.9275, -0.9776611, 4.9275, -0.315979, 4.9275, 1.1221374, 4.9275, 0.9160305, 4.9275, -2.778626
0.5805, -0.0119173, 4.93425, 0.1018677, 4.93425, -0.9762573, 4.93425, -0.3123779, 4.93425, 1.0305344, 4.93425, 0.9389313, 4.93425, -2.7099237
0.5812941, -0.0078889, 4.941, 0.1002197, 4.941, -0.9787598, 4.941, -0.3093262, 4.941, 1.1450381, 4.941, 0.8244275, 4.941, -2.8625953
0.5820882, -0.0072175, 4.94775, 0.1016235, 4.94775, -0.9769287, 4.94775, -0.3128052, 4.94775, 1.2290076, 4.94775, 0.6564885, 4.94775, -3.0229008
0.5828824, -0.0095674, 4.9545, 0.0977783, 4.9545, -0.9777832, 4.9545, -0.3109741, 4.9545, 1.0763359, 4.9545, 0.8473282, 4.9545, -2.9236641
0.5836765, -0.0065461, 4.96125, 0.0983276, 4.96125, -0.979248, 4.96125, -0.3129272, 4.96125, 1.0229008, 4.96125, 0.7099237, 4.96125, -2.9923663
0.5844706, -0.0102388, 4.968, 0.0963745, 4.968, -0.9794312, 4.968, -0.3146362, 4.968, 1.0839695, 4.968, 0.6335878, 4.968, -2.961832
0.5852647, -0.0112459, 4.97475, 0.098938, 4.97475, -0.9801025, 4.97475, -0.3161011, 4.97475, 1.0992366, 4.97475, 0.5496183, 4.97475, -2.961832
0.5860588, -0.0095674, 4.9815, 0.1003418, 4.9815, -0.975708, 4.9815, -0.31604, 4.9815, 1.0229008, 4.9815, 0.610687, 4.9815, -3.1068702
0.5868529, -0.0129244, 4.98825, 0.1010132, 4.98825, -0.9754028, 4.98825, -0.3137817, 4.98825, 1.0839695, 4.98825, 0.6183206, 4.98825, -3.0229008
0.5876471, -0.0169528, 4.995, 0.1014404, 4.995, -0.9746094, 4.995, -0.314209, 4.995, 1.0992366, 4.995, 0.6946565, 4.995, -3.0763359
0.5884412, -0.0149386, 5.00175, 0.098938, 5.00175, -0.9767456, 5.00175, -0.3146362, 5.00175, 0.9770992, 5.00175, 0.5419847, 5.00175, -3.1450381
0.5892353, -0.0172885, 5.0085, 0.1011353, 5.0085, -0.9769287, 5.0085, -0.3130493, 5.0085, 0.9770992, 5.0085, 0.7251908, 5.0085, -3.1450381
0.5900294, -0.0196384, 5.01525, 0.0987549, 5.01525, -0.9759521, 5.01525, -0.3115845, 5.01525, 1.0458015, 5.01525, 0.9160305, 5.01525, -3.0305343
0.5908235, -0.0206455, 5.022, 0.0994263, 5.022, -0.9771729, 5.022, -0.3157349, 5.022, 1.0229008, 5.022, 0.8931298, 5.022, -3.1679389
0.5916176, -0.0151064, 5.02875, 0.0980835, 5.02875, -0.977356, 5.02875, -0.3150635, 5.02875, 0.8167939, 5.02875, 0.7328244, 5.02875, -3.2442749
0.5924118, -0.0124208, 5.0355, 0.0959473, 5.0355, -0.9795532, 5.0355, -0.3155518, 5.0355, 1, 5.0355, 0.5572519, 5.0355, -3.2137403
0.5932059, -0.0127565, 5.04225, 0.09729, 5.04225, -0.9777832, 5.04225, -0.3163452, 5.04225, 0.9465649, 5.04225, 0.5725191, 5.04225, -3.2671757
0.594, -0.017792, 5.049, 0.097229, 5.049, -0.9780273, 5.049, -0.312561, 5.049, 1.0992366, 5.049, 0.4580153, 5.049, -3.4961832
0.5947941, -0.018967, 5.05575, 0.0975342, 5.05575, -0.9782715, 5.05575, -0.3108521, 5.05575, 0.9770992, 5.05575, 0.4122137, 5.05575, -3.3206108
0.5955882, -0.0157778, 5.0625, 0.0996704, 5.0625, -0.9797974, 5.0625, -0.3098755, 5.0625, 0.8396947, 5.0625, 0.1832061, 5.0625, -3.5648854
0.5963824, -0.0129244, 5.06925, 0.0963135, 5.06925, -0.9777222, 5.06925, -0.3113403, 5.06925, 0.9770992, 5.06925, 0.1068702, 5.06925, -3.4427481
0.5971765, -0.0112459, 5.076, 0.1004028, 5.076, -0.9790039, 5.076, -0.3095093, 5.076, 0.961832, 5.076, 0.0458015, 5.076, -3.3053436
0.5979706, -0.0135958, 5.08275, 0.1040039, 5.08275, -0.979126, 5.08275, -0.3109741, 5.08275, 0.8015267, 5.08275, 0.1603053, 5.08275, -3.4656489
0.5987647, -0.0149386, 5.0895, 0.1065674, 5.0895, -0.9766846, 5.0895, -0.3117676, 5.0895, 0.8473282, 5.0895, 0.4656489, 5.0895, -3.4427481
0.5995588, -0.01561, 5.09625, 0.1071167, 5.09625, -0.9795532, 5.09625, -0.3106689, 5.09625, 0.8549618, 5.09625, 0.6183206, 5.09625, -3.221374
0.6003529, -0.0169528, 5.103, 0.1101074, 5.103, -0.9799805, 5.103, -0.3065796, 5.103, 0.7480916, 5.103, 1.1374046, 5.103, -3.3282442
0.6011471, -0.0184634, 5.10975, 0.1102905, 5.10975, -0.9797974, 5.10975, -0.3114624, 5.10975, 0.8549618, 5.10975, 1.5343511, 5.10975, -3.2061069
0.6019412, -0.0162814, 5.1165, 0.105896, 5.1165, -0.9786377, 5.1165, -0.3139038, 5.1165, 0.9541985, 5.1165, 1.5954199, 5.1165, -2.9312978
0.6027353, -0.0149386, 5.12325, 0.1060791, 5.12325, -0.9798584, 5.12325, -0.3171387, 5.12325, 0.9465649, 5.12325, 1.6335878, 5.12325, -2.8473282
0.6035294, -0.0146029, 5.13, 0.1038818, 5.13, -0.9793701, 5.13, -0.3162842, 5.13, 0.8854962, 5.13, 1.8778626, 5.13, -3.038168
0.6043235, -0.0139315, 5.13675, 0.0996094, 5.13675, -0.9799805, 5.13675, -0.3170776, 5.13675, 1.0152671, 5.13675, 1.8473282, 5.13675, -2.8549619
0.6051176, -0.0152743, 5.1435, 0.0988159, 5.1435, -0.9805908, 5.1435, -0.3224487, 5.1435, 1.091603, 5.1435, 1.740458, 5.1435, -2.9389312
0.6059118, -0.0135958, 5.15025, 0.0980225, 5.15025, -0.9762573, 5.15025, -0.3202515, 5.15025, 1.0458015, 5.15025, 1.4198474, 5.15025, -2.9541984
0.6067059, -0.0139315, 5.157, 0.0966797, 5.157, -0.9793701, 5.157, -0.3226318, 5.157, 1.221374, 5.157, 1.038168, 5.157, -3.038168
0.6075, -0.0135958, 5.16375, 0.09729, 5.16375, -0.9783325, 5.16375, -0.3174438, 5.16375, 1.1145039, 5.16375, 0.6259542, 5.16375, -2.9923663
0.6082941, -0.0149386, 5.1705, 0.0947266, 5.1705, -0.9778442, 5.1705, -0.3171997, 5.1705, 1.1908396, 5.1705, 0.2824427, 5.1705, -3.038168
0.6090882, -0.0176242, 5.17725, 0.0979614, 5.17725, -0.9786987, 5.17725, -0.3155518, 5.17725, 1.4122137, 5.17725, 0.2519084, 5.17725, -3.091603
0.6098824, -0.012253, 5.184, 0.1016235, 5.184, -0.9778442, 5.184, -0.314209, 5.184, 1.351145, 5.184, 0.4427481, 5.184, -3.1832061
0.6106765, -0.0125887, 5.19075, 0.1000366, 5.19075, -0.9731445, 5.19075, -0.3139038, 5.19075, 1.3587786, 5.19075, 0.610687, 5.19075, -3.1679389
0.6114706, -0.0125887, 5.1975, 0.1018677, 5.1975, -0.9775391, 5.1975, -0.3148804, 5.1975, 1.2977099, 5.1975, 1, 5.1975, -3.2061069
0.6122647, -0.0109102, 5.20425, 0.1013794, 5.20425, -0.9740601, 5.20425, -0.3138428, 5.20425, 1.3816794, 5.20425, 0.8778626, 5.20425, -3.1145039
0.6130588, -0.0115816, 5.211, 0.1002808, 5.211, -0.9759521, 5.211, -0.3156738, 5.211, 1.2671756, 5.211, 0.961832, 5.211, -3.1832061
0.6138529, -0.0125887, 5.21775, 0.0935669, 5.21775, -0.979248, 5.21775, -0.3094482, 5.21775, 1.1984733, 5.21775, 0.961832, 5.21775, -3.1679389
0.6146471, -0.0115816, 5.2245, 0.0979614, 5.2245, -0.9768677, 5.2245, -0.312561, 5.2245, 1.351145, 5.2245, 0.7862595, 5.2245, -3.2900763
0.6154412, -0.014435, 5.23125, 0.0992432, 5.23125, -0.9804077, 5.23125, -0.3133545, 5.23125, 1.3206106, 5.23125, 0.8320611, 5.23125, -3.2442749
0.6162353, -0.0162814, 5.238, 0.09729, 5.238, -0.9789429, 5.238, -0.3152466, 5.238, 1.3358779, 5.238, 0.8244275, 5.238, -3.2977099
0.6170294, -0.0152743, 5.24475, 0.0983276, 5.24475, -0.9769897, 5.24475, -0.3167114, 5.24475, 1.3282443, 5.24475, 0.5648855, 5.24475, -3.2061069
0.6178235, -0.018967, 5.2515, 0.0999756, 5.2515, -0.9741211, 5.2515, -0.3140259, 5.2515, 1.2137405, 5.2515, 0.3206107, 5.2515, -3.1603053
0.6186176, -0.0186313, 5.25825, 0.1026001, 5.25825, -0.9761353, 5.25825, -0.3113403, 5.25825, 1.2824427, 5.25825, 0.5114504, 5.25825, -3.259542
0.6194118, -0.0146029, 5.265, 0.1002197, 5.265, -0.9771118, 5.265, -0.3119507, 5.265, 1.3282443, 5.265, 0.4122137, 5.265, -3.2290077
0.6202059, -0.0162814, 5.27175, 0.1002197, 5.27175, -0.9772339, 5.27175, -0.3099976, 5.27175, 1.3129771, 5.27175, 0.480916, 5.27175, -3.1755726
0.621, -0.0179599, 5.2785, 0.102417, 5.2785, -0.9766846, 5.2785, -0.3134155, 5.2785, 1.2137405, 5.2785, 0.870229, 5.2785, -3.129771
0.6217941, -0.0172885, 5.28525, 0.1030884, 5.28525, -0.979126, 5.28525, -0.3147583, 5.28525, 1.4503816, 5.28525, 1.0610687, 5.28525, -3.2519083
0.6225882, -0.0162814, 5.292, 0.104187, 5.292, -0.9779663, 5.292, -0.3137817, 5.292, 1.4045801, 5.292, 1.1374046, 5.292, -3.2061069
0.6233824, -0.0198062, 5.29875, 0.1062622, 5.29875, -0.9768066, 5.29875, -0.3123169, 5.29875, 1.3282443, 5.29875, 1.1374046, 5.29875, -3.1374047
0.6241765, -0.0203098, 5.3055, 0.1030884, 5.3055, -0.9742432, 5.3055, -0.315918, 5.3055, 1.221374, 5.3055, 1.3282443, 5.3055, -3.0534351
0.6249706, -0.0172885, 5.31225, 0.1001587, 5.31225, -0.9775391, 5.31225, -0.3113403, 5.31225, 1.2977099, 5.31225, 1.4122137, 5.31225, -3.0839694
0.6257647, -0.0166171, 5.319, 0.1047363, 5.319, -0.9747314, 5.319, -0.3171387, 5.319, 1.1984733, 5.319, 1.4351145, 5.319, -3.038168
0.6265588, -0.018967, 5.32575, 0.1027832, 5.32575, -0.9727783, 5.32575, -0.3172607, 5.32575, 1.1984733, 5.32575, 1.5114504, 5.32575, -2.8931298
0.6273529, -0.0176242, 5.3325, 0.100647, 5.3325, -0.9763184, 5.3325, -0.3148804, 5.3325, 1.2061069, 5.3325, 1.5038168, 5.3325, -3
0.6281471, -0.0146029, 5.33925, 0.0963135, 5.33925, -0.9779053, 5.33925, -0.3123779, 5.33925, 1.4045801, 5.33925, 1.259542, 5.33925, -3.0687022
0.6289412, -0.0135958, 5.346, 0.0942993, 5.346, -0.9803467, 5.346, -0.3081055, 5.346, 1.4580153, 5.346, 0.9312977, 5.346, -3.3053436
0.6297353, -0.0104067, 5.35275, 0.0947876, 5.35275, -0.9783936, 5.35275, -0.3123169, 5.35275, 1.2977099, 5.35275, 0.9389313, 5.35275, -3.3129771
0.6305294, -0.0119173, 5.3595, 0.0983276, 5.3595, -0.9778442, 5.3595, -0.3076782, 5.3595, 1.3358779, 5.3595, 0.8854962, 5.3595, -3.1832061
0.6313235, -0.0109102, 5.36625, 0.100769, 5.36625, -0.9796143, 5.36625, -0.3095093, 5.36625, 1.1984733, 5.36625, 0.8931298, 5.36625, -3.3053436
0.6321176, -0.0078889, 5.373, 0.1010742, 5.373, -0.9790039, 5.373, -0.3067627, 5.373, 1.0763359, 5.373, 0.8778626, 5.373, -3.221374
0.6329118, -0.0068818, 5.37975, 0.100708, 5.37975, -0.9807129, 5.37975, -0.3078003, 5.37975, 0.9389313, 5.37975, 0.8549618, 5.37975, -3.221374
0.6337059, -0.0082246, 5.3865, 0.1047974, 5.3865, -0.9768677, 5.3865, -0.3066406, 5.3865, 0.9770992, 5.3865, 0.8244275, 5.3865, -3.129771
0.6345, -0.0109102, 5.39325, 0.1039429, 5.39325, -0.9765015, 5.39325, -0.3076782, 5.39325, 0.9541985, 5.39325, 1.2824427, 5.39325, -3.1908398
0.6352941, -0.0149386, 5.4, 0.1027222, 5.4, -0.9798584, 5.4, -0.3062744, 5.4, 0.9541985, 5.4, 1.4656489, 5.4, -3.0534351
0.6360882, -0.0179599, 5.40675, 0.104248, 5.40675, -0.980957, 5.40675, -0.3046265, 5.40675, 0.9007633, 5.40675, 1.4427481, 5.40675, -3.091603
0.6368824, -0.0218204, 5.4135, 0.1020508, 5.4135, -0.9788208, 5.4135, -0.3096924, 5.4135, 0.8396947, 5.4135, 1.2366412, 5.4135, -3.0458016
0.6376765, -0.018967, 5.42025, 0.0996094, 5.42025, -0.977417, 5.42025, -0.3113403, 5.42025, 0.8091603, 5.42025, 1.3358779, 5.42025, -3.0992367
0.6384706, -0.018967, 5.427, 0.0986938, 5.427, -0.977478, 5.427, -0.3140259, 5.427, 0.7938932, 5.427, 1.3587786, 5.427, -3.0229008
0.6392647, -0.0193027, 5.43375, 0.1012573, 5.43375, -0.9769897, 5.43375, -0.3140259, 5.43375, 0.8396947, 5.43375, 1.2137405, 5.43375, -3.091603
0.6400588, -0.0181277, 5.4405, 0.0999146, 5.4405, -0.9767456, 5.4405, -0.3134766, 5.4405, 0.6793893, 5.4405, 0.8931298, 5.4405, -3.221374
0.6408529, -0.0213169, 5.44725, 0.0941772, 5.44725, -0.9796753, 5.44725, -0.3110962, 5.44725, 0.7633588, 5.44725, 0.7938932, 5.44725, -3.2519083
0.6416471, -0.0250095, 5.454, 0.0982666, 5.454, -0.9766235, 5.454, -0.3139648, 5.454, 0.7862595, 5.454, 0.5114504, 5.454, -3.0839694
0.6424412, -0.0203098, 5.46075, 0.0991821, 5.46075, -0.9772339, 5.46075, -0.3116455, 5.46075, 0.7557252, 5.46075, 0.5725191, 5.46075, -3.3053436
0.6432353, -0.0146029, 5.4675, 0.0980225, 5.4675, -0.975769, 5.4675, -0.3126221, 5.4675, 0.7480916, 5.4675, 0.4198473, 5.4675, -3.4198472
0.6440294, -0.014435, 5.47425, 0.0990601, 5.47425, -0.9785767, 5.47425, -0.3110352, 5.47425, 0.5877863, 5.47425, 0.3129771, 5.47425, -3.2977099
0.6448235, -0.0146029, 5.481, 0.1019287, 5.481, -0.9784546, 5.481, -0.3103638, 5.481, 0.8320611, 5.481, 0.2290076, 5.481, -3.3206108
0.6456176, -0.0117494, 5.48775, 0.1054077, 5.48775, -0.9750977, 5.48775, -0.3111572, 5.48775, 0.8091603, 5.48775, 0.7099237, 5.48775, -3.0763359
0.6464118, -0.0102388, 5.4945, 0.1036377, 5.4945, -0.9754639, 5.4945, -0.3154907, 5.4945, 0.6335878, 5.4945, 0.870229, 5.4945, -3.259542
0.6472059, -0.0077211, 5.50125, 0.1017456, 5.50125, -0.9822998, 5.50125, -0.3137207, 5.50125, 0.6870229, 5.50125, 0.7557252, 5.50125, -3.2442749
0.648, -0.0075532, 5.508, 0.0979004, 5.508, -0.9811401, 5.508, -0.3135376, 5.508, 0.8091603, 5.508, 0.7099237, 5.508, -3.2061069
0.6487941, -0.0075532, 5.51475, 0.0977783, 5.51475, -0.9793091, 5.51475, -0.3161621, 5.51475, 0.7022901, 5.51475, 0.9312977, 5.51475, -3.3129771
0.6495882, -0.0085603, 5.5215, 0.0985718, 5.5215, -0.977417, 5.5215, -0.3205566, 5.5215, 0.8015267, 5.5215, 0.8167939, 5.5215, -3.2977099
0.6503824, -0.012253, 5.52825, 0.0974731, 5.52825, -0.9788208, 5.52825, -0.3185425, 5.52825, 0.7709923, 5.52825, 0.7175573, 5.52825, -3.4503818
0.6511765, -0.0149386, 5.535, 0.0958862, 5.535, -0.9775391, 5.535, -0.3154297, 5.535, 0.8778626, 5.535, 0.1908397, 5.535, -3.3587787
0.6519706, -0.0184634, 5.54175, 0.0971069, 5.54175, -0.9788818, 5.54175, -0.3157959, 5.54175, 0.8091603, 5.54175, -0.1908397, 5.54175, -3.3282442
0.6527647, -0.0172885, 5.5485, 0.1002808, 5.5485, -0.9764404, 5.5485, -0.3148193, 5.5485, 0.8396947, 5.5485, -0.3129771, 5.5485, -3.3664122
0.6535588, -0.0176242, 5.55525, 0.0983276, 5.55525, -0.9804688, 5.55525, -0.3137207, 5.55525, 0.8931298, 5.55525, -0.2061069, 5.55525, -3.4580152
0.6543529, -0.0182956, 5.562, 0.1029053, 5.562, -0.9805298, 5.562, -0.3152466, 5.562, 0.7862595, 5.562, 0.0152672, 5.562, -3.389313
0.6551471, -0.0193027, 5.56875, 0.1074829, 5.56875, -0.9824829, 5.56875, -0.3105469, 5.56875, 0.9160305, 5.56875, 0.0610687, 5.56875, -3.5877862
0.6559412, -0.0159457, 5.5755, 0.1057739, 5.5755, -0.9806519, 5.5755, -0.3121948, 5.5755, 0.9541985, 5.5755, 0.2137405, 5.5755, -3.3740458
0.6567353, -0.0182956, 5.58225, 0.1091919, 5.58225, -0.9786377, 5.58225, -0.3079224, 5.58225, 0.9389313, 5.58225, 0.129771, 5.58225, -3.3740458
0.6575294, -0.01561, 5.589, 0.1077881, 5.589, -0.9779053, 5.589, -0.3103638, 5.589, 0.9770992, 5.589, 0.648855, 5.589, -3.2671757
0.6583235, -0.0132601, 5.59575, 0.1087036, 5.59575, -0.9762573, 5.59575, -0.3139038, 5.59575, 1.129771, 5.59575, 1.221374, 5.59575, -2.8396947
0.6591176, -0.0176242, 5.6025, 0.1078491, 5.6025, -0.9755859, 5.6025, -0.3184204, 5.6025, 1.1526718, 5.6025, 1.3664122, 5.6025, -2.9847329
0.6599118, -0.0193027, 5.60925, 0.1047974, 5.60925, -0.9749756, 5.60925, -0.3165283, 5.60925, 1.1221374, 5.60925, 1.221374, 5.60925, -3.0305343
0.6607059, -0.0149386, 5.616, 0.1033325, 5.616, -0.977356, 5.616, -0.3131104, 5.616, 1.0305344, 5.616, 0.9694657, 5.616, -3.0152671
0.6615, -0.0135958, 5.62275, 0.1016235, 5.62275, -0.9772949, 5.62275, -0.3135376, 5.62275, 1.0076336, 5.62275, 1.0992366, 5.62275, -2.8778627
0.6622941, -0.0130922, 5.6295, 0.1032104, 5.6295, -0.973877, 5.6295, -0.3166504, 5.6295, 1.1450381, 5.6295, 1.0305344, 5.6295, -2.8473282
0.6630882, -0.0119173, 5.63625, 0.1025391, 5.63625, -0.9766846, 5.63625, -0.3165283, 5.63625, 1.129771, 5.63625, 1.091603, 5.63625, -2.778626
0.6638824, -0.0097353, 5.643, 0.102417, 5.643, -0.9804077, 5.643, -0.3154297, 5.643, 1.091603, 5.643, 0.9160305, 5.643, -2.9160306
0.6646765, -0.008896, 5.64975, 0.100647, 5.64975, -0.9810181, 5.64975, -0.3092651, 5.64975, 1.1908396, 5.64975, 0.4656489, 5.64975, -2.7099237
0.6654706, -0.008896, 5.6565, 0.1025391, 5.6565, -0.9833984, 5.6565, -0.3092041, 5.6565, 1.0534351, 5.6565, 0.5648855, 5.6565, -2.740458
0.6662647, -0.012253, 5.66325, 0.1051636, 5.66325, -0.9782104, 5.66325, -0.31073, 5.66325, 1.2290076, 5.66325, 0.8320611, 5.66325, -2.6946564
0.6670588, -0.0099031, 5.67, 0.1066895, 5.67, -0.9800415, 5.67, -0.3139038, 5.67, 1.221374, 5.67, 1.2900764, 5.67, -2.6259542
0.6678529, -0.0132601, 5.67675, 0.1062012, 5.67675, -0.9804688, 5.67675, -0.3114014, 5.67675, 1.1450381, 5.67675, 1.2137405, 5.67675, -2.648855
0.6686471, -0.017792, 5.6835, 0.1038818, 5.6835, -0.9799805, 5.6835, -0.309082, 5.6835, 1.1603054, 5.6835, 1.2977099, 5.6835, -2.6564887
0.6694412, -0.018967, 5.69025, 0.0997314, 5.69025, -0.9793701, 5.69025, -0.310791, 5.69025, 1.1068702, 5.69025, 1.3282443, 5.69025, -2.7099237
0.6702353, -0.0203098, 5.697, 0.098877, 5.697, -0.9788208, 5.697, -0.3148804, 5.697, 1.0610687, 5.697, 1.5496184, 5.697, -2.6335878
0.6710294, -0.0203098, 5.70375, 0.0979614, 5.70375, -0.9765015, 5.70375, -0.3178101, 5.70375, 1.091603, 5.70375, 1.6717557, 5.70375, -2.5114503
0.6718235, -0.0193027, 5.7105, 0.0969238, 5.7105, -0.9788208, 5.7105, -0.3151855, 5.7105, 1.2290076, 5.7105, 1.2824427, 5.7105, -2.740458
0.6726176, -0.0204776, 5.71725, 0.09552, 5.71725, -0.9763184, 5.71725, -0.3130493, 5.71725, 1.091603, 5.71725, 0.961832, 5.71725, -2.6870229
0.6734118, -0.0216526, 5.724, 0.092041, 5.724, -0.9771729, 5.724, -0.3101196, 5.724, 1.1450381, 5.724, 0.3816794, 5.724, -2.8473282
0.6742059, -0.0179599, 5.73075, 0.0930176, 5.73075, -0.9796753, 5.73075, -0.3150635, 5.73075, 1.1832061, 5.73075, 0.2977099, 5.73075, -2.9312978
0.675, -0.018967, 5.7375, 0.0964966, 5.7375, -0.9724731, 5.7375, -0.3153076, 5.7375, 1.129771, 5.7375, 0.4503817, 5.7375, -2.8320611
0.6757941, -0.0162814, 5.74425, 0.1013184, 5.74425, -0.9768677, 5.74425, -0.3143921, 5.74425, 1.0763359, 5.74425, 0.4580153, 5.74425, -3.0305343
0.6765882, -0.0135958, 5.751, 0.0980225, 5.751, -0.9760132, 5.751, -0.3105469, 5.751, 0.9541985, 5.751, 0.1755725, 5.751, -2.870229
0.6773824, -0.0139315, 5.75775, 0.0995483, 5.75775, -0.9772339, 5.75775, -0.3077393, 5.75775, 1.0610687, 5.75775, -0.0152672, 5.75775, -3.0229008
0.6781765, -0.01561, 5.7645, 0.1011353, 5.7645, -0.9776001, 5.7645, -0.3080444, 5.7645, 1.1068702, 5.7645, 0.2137405, 5.7645, -3.038168
0.6789706, -0.0176242, 5.77125, 0.0966187, 5.77125, -0.9806519, 5.77125, -0.3101807, 5.77125, 0.9694657, 5.77125, 0.5572519, 5.77125, -2.961832
